stamp,img_delta,blur,lin_acc.x,lin_acc.y,lin_acc.z,ang_vel.x,ang_vel.y,ang_vel.z,rpe,ate,drift
1403636581363555584,60.877085,706.9276681740287,5.810440125,-0.0653776666666666,-1.6834749166666665,-0.0928515162060983,0.0293215314335047,-0.0209439510239319,3.699448471412613,3.699448471412651,-0.10394146219148759
1403636581863555584,50.074101,373.80182120812896,9.128356708333332,-0.392266,-3.415983083333333,-0.028623399732707,-0.0837758040957278,0.0823795406941323,1.449968581605973,3.0958284618349636,0.04422429061435551
1403636582363555584,53.645372,279.69500766314184,10.419565625,0.0735498749999999,-4.748053041666666,-0.0097738438111682,0.3134611336581816,0.0600393262686049,1.5694730048079728,2.3743834574843325,0.07975126635648966
1403636582863555584,50.086022,291.991663156984,7.878008833333333,-0.3268883333333333,-3.554910625,-0.1591740277818828,0.3169517921621702,0.200363798128949,0.5342657710489583,2.4857151204175096,0.11886865084386677
1403636583363555584,44.081211,437.2350852445632,7.861664416666666,-0.0653776666666666,-2.6477955,-0.0111701072127637,-0.0802851455917391,0.0104719755119659,0.498288522151036,2.6931315100462685,-0.033229738687890364
1403636583863555584,45.168638,257.31447149648693,9.880199875,0.1307553333333333,-4.731708625,-0.0251327412287183,-0.2478367537831947,0.0733038285837618,1.1458194900102796,2.230572003781378,-0.10606789797096594
1403636584363555584,39.397478,338.7114125333576,10.476771083333333,0.4494714583333333,-4.225031708333333,-0.08307767239493,0.0809832772925368,-0.0677187749773799,1.2520381479231348,2.0683831990090864,0.08052359916533791
1403636584863555584,44.300556,460.5136350139532,7.346815291666666,0.220649625,-2.557901208333333,-0.0272271363311115,0.2715732316103177,0.1850049007113989,0.6899208127846418,2.767759931678374,0.08111497771756282
1403636585363555584,49.831629,439.73543734926784,9.586000375,0.0163444166666666,-3.4486719166666666,-0.0027925268031909,-0.132645023151569,-0.0383972435438752,0.7445705960463612,2.8239089326972744,0.0012953021657362562
1403636585863555584,50.305605,369.899934685107,10.043644041666663,-0.269682875,-4.404820291666666,0.143116998663535,-0.3581415625092364,0.1850049007113989,1.6426912004675782,1.5844384669544145,0.014860984244757347
1403636586363555584,59.718609,312.6568976799208,7.126165666666666,-0.0817220833333333,-6.145500666666667,-0.018151424220741,-0.3937462792499207,0.2247984076568696,1.988848096265527,2.476691750057352,0.11092422479018849
1403636586863555584,39.34598,767.0270325810396,7.142510083333334,-1.12776475,-6.129156249999999,0.0530580092606276,0.1570796326794896,0.0230383461263251,1.1190111934590514,2.8425998556363896,-0.008720835606626398
1403636587363555584,49.941301,526.9613084370557,7.469398416666666,0.2043052083333333,-6.366150291666666,-0.0370009801422797,-0.0020943951023931,0.1445132620651305,0.5755495179159793,2.8818930377242054,0.01936942819080345
1403636587863555584,49.581289,338.7355826577008,6.938204874999999,-0.6456044583333332,-6.03108975,-0.1158898623324234,0.0404916386462684,0.200363798128949,0.7724000945332117,2.781910668798382,-0.005027279791927963
1403636588363555584,50.017357,589.3927631649217,7.175198916666666,-1.3157255416666664,-6.856482791666667,0.0677187749773799,0.0977384381116824,0.1172861257340189,0.9512457763522657,2.823281482386029,-0.03713185133169805
1403636588863555584,60.079575,285.3374380638223,7.093476833333334,-0.83356525,-6.791105125,0.0907571211037051,0.0307177948351002,0.0244346095279206,1.7298008564284877,2.1711029930069845,-0.00525461547078665
1403636589363555584,50.179005,308.9838426426469,7.657359208333333,-0.2533384583333333,-6.145500666666667,0.0851720674973232,-0.075398223686155,0.0125663706143591,1.8788049782156462,2.985059452266643,0.07840672199149656
1403636589863555584,50.134182,332.82971180457787,7.542948291666666,0.1879607916666666,-6.22722275,0.1382300767579508,-0.1277581012459849,-0.0013962634015954,0.9831774903795067,3.482987648941121,0.016604517393991713
1403636590363555584,49.32189,659.4345540438189,7.428537374999999,0.465815875,-6.415183541666666,-0.1193805208364121,0.0048869219055841,0.0872664625997164,0.8701781474450838,2.738661290935479,-0.04559105804635122
1403636590863555584,60.407876,388.8183998998678,7.444881791666666,-0.1144109166666666,-6.300772625,-0.0677187749773799,-0.0656243798749867,0.1284562329467826,1.2985531501196195,1.946426803553642,-0.06385391172440968
1403636591363555584,43.767691,388.4021559534647,7.044443583333333,-1.454653083333333,-6.357978083333332,-0.0970403064108847,-0.0279252680319092,0.1263618378443894,1.2140296512541495,1.5091176111985487,-0.026238992816728146
1403636591863555584,36.091089,362.8029241112304,8.18855275,0.04903325,-5.483551791666667,-0.1815142422074102,0.3518583772020568,0.1396263401595463,1.8677416372415847,2.1571391894641803,0.17589943568308097
1403636592363555584,49.610138,451.9098552968455,7.853492208333332,-0.9479761666666666,-5.990228708333333,0.0984365698124801,-0.124965574442794,0.1165879940332212,0.6434794542762755,2.7999726894819625,-0.03414668561906753
1403636592863555584,61.14626,208.03481229179707,6.954549291666666,-1.454653083333333,-7.0689602083333325,0.5110324049839398,-0.1193805208364121,-0.1912880860185785,0.5393616717929249,2.3907125805087666,-0.12082296735310738
1403636593363555584,50.295353,301.35237041451325,6.774760708333333,0.1062387083333333,-6.456044583333333,0.1228711793404008,-0.0886627260013119,-0.0195476876223364,2.008157080295972,1.2154199153537428,-0.021772704056866266
1403636593863555584,41.407109,226.46490368544283,7.984247541666667,-0.2860272916666666,-6.137328458333333,-0.6695083010650248,0.1919862177193762,0.5082398781807488,0.9023437000835426,1.5046755753252687,0.12384921810928229
1403636594363555584,43.691158,197.76315076582503,8.433719,-1.2176590416666666,-5.140319041666666,-0.3406882699892931,0.0747000919853573,0.0977384381116824,1.7409273661442053,2.5817423884534665,-0.03193076744378187
1403636594863555584,39.211035,233.95213571531863,7.1588545,-2.909306166666666,-6.742071875,0.4447098934081551,0.0942477796076938,-0.2282890661608583,1.4186694872272367,3.8567463863403164,0.09363517663303211
1403636595363555584,42.762995,239.5373666763288,7.428537374999999,1.6017528333333333,-6.586799916666666,0.3637266161156182,-0.0740019602845595,-0.104021623418862,1.6360864719143713,4.788950603197922,0.20007614003636398
1403636595863555584,59.607029,235.68365097033623,7.673703624999999,-0.7518431666666666,-5.93302325,-0.6387905062299246,0.0216420827247296,0.374896723328382,0.4794641274431881,4.578167795756022,0.10476370899563214
1403636596363555584,49.242497,364.1367602940621,7.583809333333333,-0.83356525,-6.063778583333333,-0.0328121899374933,0.1354375499547599,0.0132645023151569,0.4447279771700928,4.238044616205261,0.1353212502483343
1403636596863555584,49.96562,473.1290245428854,9.07115125,0.8499096666666667,-3.8164212916666655,-0.0321140582366956,0.1528908424747032,-0.0816814089933346,0.9059746866089813,5.10540928516941,0.03746131552883192
1403636597363555584,57.192564,259.2754003847229,7.273265416666667,-0.9152873333333332,-6.42335575,0.2624975194999471,0.0998328332140756,-0.1731366617978375,0.7420142402239619,5.522974584123525,-0.15173767336533572
1403636597863555584,60.730457,345.7785576715561,7.10982125,0.0326888333333333,-6.586799916666666,0.1500983156715123,0.0537561409614253,-0.1068141502220529,1.3961419117117548,4.1736387452896375,0.007486728456406411
1403636598363555584,42.971373,367.3427858071734,8.817812791666666,0.5066769166666666,-4.682675375,-0.1668534764906579,-0.0397935069454707,0.0921533845053006,1.1124320080861465,4.6825017667149345,0.05005745090546032
1403636598863555584,39.525032,284.0942667915771,7.461226208333334,-0.44129925,-5.271074375,0.104021623418862,0.5249950389998943,0.1151917306316257,0.8784398147692755,5.54662234074179,0.02116164015951849
1403636599363555584,50.90332,432.70267836642535,9.005773583333333,-0.44129925,-3.211677875,-0.0851720674973232,0.3469714552964727,0.046774823953448,0.4796917125808983,5.962506090119386,0.03270851980250189
1403636599863555584,59.617043,480.7781277774819,9.863855458333331,-0.6456044583333332,-1.871435708333333,-0.018151424220741,0.0747000919853573,0.1549852375770964,0.25690695213388653,6.23542618420826,0.04374080432453642
1403636600363555584,62.081814,635.5850970206319,9.46341725,-0.269682875,-2.6477955,0.0048869219055841,0.0174532925199432,0.0809832772925368,0.17951834616372792,6.311820586913211,-0.0050789620666575885
1403636600863555584,50.263882,642.9933418653533,9.398039583333333,-0.2778550833333333,-2.4680069166666665,-0.0069813170079773,0.0132645023151569,0.0684169066781777,0.06885099224841137,6.273252727507485,-0.001650159778805893
1403636601363555584,50.305844,646.053478360667,9.536967125,-0.5230213333333333,-2.606934458333333,0.0,0.0216420827247296,0.1033234917180643,0.044857680313951445,6.239250075434445,-0.007820701266177288
1403636601863555584,50.023317,646.8871149051884,9.438900625,-0.5475379583333333,-2.655967708333333,-0.0041887902047863,0.0209439510239319,0.0781907504893459,0.08657924725034051,6.1861852696186626,-0.002050953013590373
1403636602363555584,49.657107,646.1289143504133,9.430728416666666,-0.5557101666666666,-2.50069575,-0.0090757121103705,0.0223402144255274,0.0698131700797731,0.03914479285370892,6.147605059519852,0.001862374103473563
1403636602863555584,50.236464,647.5051093574333,9.414383999999998,-0.4494714583333333,-2.582417833333333,-0.0041887902047863,0.0195476876223364,0.0767944870877505,0.02290366660227235,6.151326032382576,0.0028997585010834825
1403636603363555584,50.433636,646.360193502874,9.496106083333332,-0.5230213333333333,-2.582417833333333,-0.0041887902047863,0.0251327412287183,0.0837758040957278,0.021917278759148773,6.135032275271288,-0.005085819256134272
1403636603863555584,50.714492,646.915242894617,9.414383999999998,-0.5883989999999999,-2.623278875,-0.0055850536063818,0.0272271363311115,0.0802851455917391,0.013818936104053277,6.125191533429995,0.0021421616326326998
1403636604363555584,43.461323,645.2598010343859,9.389867375,-0.5230213333333333,-2.533384583333333,-0.0090757121103705,0.0223402144255274,0.0733038285837618,0.02514323540418897,6.112214791086585,-0.0017547490879108452
1403636604863555584,53.574324,643.6379015002237,9.389867375,-0.5066769166666666,-2.606934458333333,-0.0041887902047863,0.0153588974175501,0.0781907504893459,0.02066379653823067,6.094963901783591,0.00017941263486598302
1403636605363555584,57.163954,644.2739064754318,9.471589458333332,-0.5148491249999999,-2.5905900416666663,-0.0013962634015954,0.0230383461263251,0.0816814089933346,0.010846311720931652,6.0898472011373395,-0.004032459332038663
1403636605863555584,49.718619,630.630856471793,9.545139333333331,-0.5883989999999999,-2.623278875,-0.0062831853071795,0.0188495559215387,0.0823795406941323,0.005385290711968319,6.092866976033414,0.00017424181091829638
1403636606363555584,62.800408,630.2166995329285,9.398039583333333,-0.5557101666666666,-2.582417833333333,-0.0020943951023931,0.0237364778271228,0.075398223686155,0.016427411552910245,6.098771082206637,-0.0018683866373967462
1403636606863555584,49.761772,631.4892573900339,9.357178541666666,-0.5475379583333333,-2.525212375,0.0,0.0146607657167523,0.0788888821901436,0.010328557052447241,6.096933489469024,-2.7828905428961548e-06
1403636607363555584,41.246175,630.4896467477278,9.381695166666669,-0.5148491249999999,-2.574245625,-0.0020943951023931,0.0216420827247296,0.0788888821901436,0.055249652484674686,6.051365850790049,-0.007074796434330288
1403636607863555584,50.205707,631.6851546205461,9.455245041666666,-0.5230213333333333,-2.5905900416666663,-0.0055850536063818,0.0195476876223364,0.0809832772925368,0.013464867351409842,6.041402412150131,0.0030040483912632254
1403636608363555584,40.251017,631.2090435669135,9.36535075,-0.5148491249999999,-2.557901208333333,-0.0020943951023931,0.0209439510239319,0.0802851455917391,0.034198088391567086,6.067705536541301,-0.002001696164631639
1403636608863555584,43.076038,629.9793202749647,9.406211791666664,-0.5230213333333333,-2.606934458333333,-0.0006981317007977,0.0216420827247296,0.08307767239493,0.03314942164827368,6.044686050579553,-0.003837126941780511
1403636609363555584,42.189837,630.840469441093,9.373522958333332,-0.5720545833333333,-2.5415567916666664,-0.0020943951023931,0.018151424220741,0.08307767239493,0.01610446817262451,6.04703964706256,0.0005595998164276139
1403636609863555584,36.423683,629.9418460263295,9.218251,-0.53936575,-2.7131731666666665,-0.0006981317007977,0.0223402144255274,0.0740019602845595,0.019159976719086536,6.062825713027804,0.0034843191559765785
1403636610363555584,50.14944,629.6005739901622,9.479761666666668,-0.4985047083333333,-2.508867958333333,-0.0097738438111682,0.025830872929516,0.0816814089933346,0.019637986000766945,6.04382699875489,-0.0004374738982866333
1403636610863555584,59.807539,618.2563995660582,9.316317499999998,-0.7109821249999999,-2.6151066666666667,-0.0097738438111682,0.0314159265358979,0.0635299847725936,0.0746255504872023,6.083920747209448,0.01072243161409947
1403636611363555584,46.565056,523.8096379383771,8.057797416666666,-2.214668458333333,-2.0757409166666667,0.0383972435438752,-0.0418879020478639,0.0928515162060983,0.02318934592596584,6.09041080935428,0.00598391142455057
1403636611863555584,49.820423,636.4154638559438,9.937405333333334,-0.7763597916666666,-2.190151833333333,-0.0020943951023931,0.0202458193231342,0.0907571211037051,0.08822518513958807,6.1030115862934,-0.0013202495148565419
1403636612363555584,48.587084,627.6951584736801,9.798477791666668,0.24516625,-2.754034208333333,0.0404916386462684,0.0307177948351002,0.1905899543177807,0.11357332931287072,6.075285579550822,0.002948454644345233
1403636612863555584,49.405813,629.4161549240132,9.643205833333331,-0.4494714583333333,-2.6477955,-0.0335103216382911,0.0237364778271228,0.0104719755119659,0.09751586771885032,6.099765699086799,-0.0019231809847592984
1403636613363555584,42.916298,640.0149321639336,9.5124505,-0.2043052083333333,-2.5415567916666664,0.007679448708775,0.0237364778271228,0.0942477796076938,0.06001098521446191,6.079088428416747,-0.0009813883254032874
1403636613863555584,49.978972,638.7341850532198,9.438900625,-0.5311935416666667,-2.574245625,-0.0090757121103705,0.0160570291183478,0.0600393262686049,0.01825746488597855,6.069914568018351,-0.003784406726341061
1403636614363555584,43.981552,641.2889052065602,9.308145291666667,-0.6946377083333333,-2.6151066666666667,-0.0062831853071795,0.0321140582366956,0.0837758040957278,0.0262156248677279,6.052459597735725,0.00025823496920285294
1403636614863555584,60.098648,644.157830238325,9.398039583333333,-0.4903325,-2.5415567916666664,-0.0013962634015954,0.0139626340159546,0.0893608577021096,0.018625508207824458,6.033877499082742,0.004433490968938081
1403636615363555584,49.315691,644.8306982501003,9.398039583333333,-0.44129925,-2.582417833333333,-0.0055850536063818,0.0202458193231342,0.08307767239493,0.021317122661625627,6.016877824470391,-0.003944677327877066
1403636615863555584,59.714079,644.9358482580727,9.406211791666664,-0.6047434166666666,-2.5905900416666663,-0.0020943951023931,0.0195476876223364,0.075398223686155,0.016960795909608976,6.019140541540039,-0.0014668336138141669
1403636616363555584,41.445971,643.8868039187414,9.504278291666663,-0.53936575,-2.59876225,-0.0041887902047863,0.0230383461263251,0.085870199198121,0.031906126405784,5.989054475444815,-0.0004984824940770238
1403636616863555584,60.883046,644.7599477210449,9.398039583333333,-0.5557101666666666,-2.574245625,-0.0048869219055841,0.0209439510239319,0.0837758040957278,0.023276183234994873,6.012155896291825,0.00849620815444041
1403636617363555584,49.776554,644.4428051396781,9.536967125,-0.5475379583333333,-2.5905900416666663,-0.0041887902047863,0.0216420827247296,0.0767944870877505,0.021296258658338528,6.000913507961859,-0.0043819066468877566
1403636617863555584,62.027931,645.1378619263805,9.389867375,-0.5066769166666666,-2.5170401666666664,-0.0027925268031909,0.0195476876223364,0.0767944870877505,0.014690632047935923,6.012757613720532,0.002269401501891366
1403636618363555584,49.689532,643.8352841669822,9.430728416666666,-0.5557101666666666,-2.582417833333333,-0.0062831853071795,0.0251327412287183,0.08307767239493,0.015232646948132702,6.001263428245411,-0.001997618724408845
1403636618863555584,63.102007,639.5217584165579,9.316317499999998,-1.7243359583333333,-2.288218333333333,0.046774823953448,0.0237364778271228,0.0670206432765822,0.00862948666256396,6.001079635075393,0.0058764903394941115
1403636619363555584,43.399334,576.9516383814183,10.035471833333334,-2.190151833333333,-2.639623291666666,0.0781907504893459,0.0349065850398865,0.0621337213709981,0.027843340958710584,6.0182106713717,0.0013958282726385107
1403636619863555584,43.351412,640.4492181207603,8.744262916666667,-0.7600153749999999,-2.2718739166666664,-0.0041887902047863,0.0118682389135614,0.1089085453244461,0.02441531604016081,6.011631386252942,0.0015355633245226485
1403636620363555584,46.573162,641.0493182039335,9.398039583333333,-0.6782932916666666,-2.476179125,0.0041887902047863,0.0153588974175501,0.085870199198121,0.018100376295770406,5.995857757580864,-0.004205134458747928
1403636620863555584,43.04409,643.0241852656654,9.275456458333332,-0.5148491249999999,-2.574245625,0.0069813170079773,0.0356047167406843,0.0879645943005142,0.016200762082210076,6.008199769435234,-0.0023672877775275936
1403636621363555584,51.236153,643.1940598780687,9.765788958333331,-0.6701210833333332,-2.8357562916666668,-0.0118682389135614,0.0335103216382911,0.0502654824574366,0.03766691829471858,6.007561215975058,-0.007886218125281452
1403636621863555584,50.090075,641.9190589579824,9.308145291666667,-0.4576436666666666,-2.5905900416666663,0.0132645023151569,0.0,0.0781907504893459,0.029824066958337243,5.999435801677009,0.002445633788646262
1403636622363555584,50.318956,640.884067386957,9.030290208333332,-0.3350605416666666,-2.3209071666666663,0.0062831853071795,0.0314159265358979,0.0774926187885482,0.03964341665554028,5.989504233173298,0.005425326367248573
1403636622863555584,42.340278,634.4882343375398,9.398039583333333,-0.5148491249999999,-2.8766173333333334,-0.0160570291183478,0.0474729556542457,0.1089085453244461,0.053038887717745134,6.0384141287868935,-0.00021924093932046418
1403636623363555584,40.985346,636.2328985401293,9.381695166666669,-0.8580818749999999,-2.2555295,-0.0265290046303138,0.0586430628670094,0.0474729556542457,0.12352914605683533,5.936547171075799,-0.005784703853713324
1403636623863555584,50.422907,610.6582956475476,10.525804333333332,-0.4249548333333333,-2.705000958333333,-0.0265290046303138,0.0425860337486616,0.1263618378443894,0.07418042207950423,5.97989867419988,-0.035878593368035894
1403636624363555584,62.284947,475.3638466846486,7.722736874999999,0.7436709583333333,-1.2585200833333332,-0.1514945790731078,-0.0747000919853573,0.0097738438111682,0.19088111721064793,5.848111602216206,-0.029932594654618505
1403636624863555584,38.184166,311.1960320818048,7.722736874999999,0.367749375,-2.0593965,-0.0879645943005142,-0.1570796326794896,-0.2778564169174973,0.5001168348413396,6.0143029444999865,0.029151714544807028
1403636625363555584,59.944391,735.595203663941,5.066769166666667,1.765197,-1.8796079166666664,0.0383972435438752,-0.0195476876223364,0.0705113017805709,0.7469793690145188,5.902044921808114,0.026720543972257538
1403636625863555584,50.215482,294.1739774801472,8.654368624999998,0.0572054583333333,-2.190151833333333,0.0244346095279206,0.2234021442552742,0.1019272283164688,0.40046616822286596,5.716748416274652,-0.054920445277592655
1403636626363555584,39.833308,769.7139327549258,4.290409374999999,0.6292600416666666,-1.12776475,-0.0013962634015954,0.1123992038284348,0.1186823891356144,0.8295514072171037,6.089434220211343,0.0754946267124037
1403636626863555584,41.410685,571.9561807660058,8.842329416666665,0.1144109166666666,-2.9256505833333333,0.0132645023151569,-0.210835773640915,0.0656243798749867,0.7452246128329391,6.635489273194441,-0.031934641913032635
1403636627363555584,50.361394,800.0732324215986,8.033280791666666,0.3023717083333333,-3.6448049166666654,-0.0174532925199432,0.0509636141582344,0.0886627260013119,0.7565173111422735,6.316343458758252,-0.019560281687427405
1403636627863555584,38.449764,436.00419547761805,9.447072833333332,0.5965712083333333,-2.966511625,-0.2904227875318564,-0.2094395102393195,0.132645023151569,0.3592351247455315,5.959413604942811,-0.0390298918395251
1403636628363555584,50.034523,620.4341908959675,9.978266375,-0.5148491249999999,-3.072750333333333,0.0013962634015954,0.0383972435438752,0.1808161105066125,0.8088207720554236,6.33978629485582,0.06119616254559812
1403636628863555584,50.12846,596.0260804297471,10.8853815,-0.1634441666666666,-2.231012875,-0.189891822616983,-0.1158898623324234,0.0244346095279206,0.7509040635362864,6.074821948041779,-0.18625593077444957
1403636629363555584,50.206185,754.7669230043763,9.553311541666666,-0.980665,-3.563082833333333,-0.1857030324121966,0.0600393262686049,0.2450442269800038,0.7004690736038965,5.868159419205721,0.044413846811210966
1403636629863555584,61.05566,784.5895944323852,10.133538333333334,1.0133538333333332,-3.6284605,-0.3476695869972704,-0.0006981317007977,0.2275909344600605,1.8228675365305285,4.978465622413526,-0.1990858517352585
1403636630363555584,39.307117,1145.355490799461,10.051816249999998,0.8499096666666667,-3.4241552916666667,-0.0237364778271228,-0.0174532925199432,0.1333431548523667,2.533823503026808,3.954745610817368,-0.15169402977990032
1403636630863555584,39.419651,1142.907086829446,8.891362666666666,0.318716125,-3.710182583333333,0.054454272662223,0.0495673507566389,0.1528908424747032,2.2697317575477864,3.049596722715233,0.08813476132813003
1403636631363555584,42.69886,1106.671111362577,9.847511041666666,0.6456044583333332,-2.5170401666666664,0.0111701072127637,0.0586430628670094,0.0663225115757845,1.3070141955002361,4.170178166721932,0.13469577019144907
1403636631863555584,49.754858,1130.8683587596984,9.226423208333332,-0.1389275416666666,-3.170816833333333,-0.0390953752446729,0.0069813170079773,0.0446804288510548,0.7553661049401513,4.316046501887582,-0.01981937944656398
1403636632363555584,49.830675,1112.6368871228435,7.542948291666666,0.2043052083333333,-3.072750333333333,-0.0202458193231342,-0.0390953752446729,0.1186823891356144,3.6214082210859493,5.611353070730709,-0.14735409174739722
1403636632863555584,49.195289,728.0263538899884,8.302963666666667,-0.4086104166666666,-3.92266,0.3797836452339661,0.0376991118430775,-0.2694788365079245,3.898155942417842,3.657349978341258,-0.11592882630906942
1403636633363555584,58.718205,947.9216958170324,10.395049,0.8989429166666666,-3.898143375,0.0202458193231342,-0.0069813170079773,0.200363798128949,1.9598554252352365,2.787563348907533,0.14221874408191582
1403636633863555584,49.96109,908.1022753176504,8.785123958333333,0.171616375,-3.5222217916666665,-0.0223402144255274,0.0551524043630208,0.1640609496874669,6.302025636338899,8.13757271534454,0.30237048306965875
1403636634363555584,49.705267,586.8773519531053,9.536967125,0.83356525,-2.4680069166666665,0.0202458193231342,0.2227040125544764,0.0188495559215387,1.2563265045446754,7.969629557925756,-0.4509725870363921
1403636634863555584,46.236992,851.7352449081233,7.567464916666665,-0.1389275416666666,-4.641814333333333,0.1103048087260416,-0.0502654824574366,0.0397935069454707,3.209763280573962,11.114095579110687,0.26981893694127734
1403636635363555584,49.663067,756.7597366881697,9.381695166666669,-0.8172208333333333,-2.966511625,0.0356047167406843,-0.0684169066781777,0.2527236756887789,3.244860978819522,14.362316899562774,0.24075556956449873
1403636635863555584,41.314125,626.7422479899122,7.387676333333332,0.1307553333333333,-3.9144877916666654,-0.0125663706143591,-0.0272271363311115,0.1577777643802873,6.644749326986406,10.607305266291224,-2.352733305865696
1403636636363555584,49.963712,291.7217899482803,7.052615791666666,-0.63743225,-2.7867230416666664,-0.0174532925199432,0.3553490357060455,0.0083775804095727,4.29067118929225,8.068450410578041,0.8149316816103669
1403636636863555584,49.627781,542.1460230604688,9.201906583333331,-0.5066769166666666,-3.268883333333333,0.0795870138909414,-0.1438151303643327,0.2513274122871834,4.362231607334454,11.661384361766087,0.39561173871510036
1403636637363555584,53.434848,573.8857649886944,9.275456458333332,0.73549875,-2.4516625,-0.0279252680319092,-0.0237364778271228,0.085870199198121,6.304348211348028,16.990757522706936,0.3061294867528268
1403636637863555584,49.901247,416.5849293837194,10.2969825,-0.4903325,-2.0512242916666668,-0.0293215314335047,0.0439822971502571,0.0502654824574366,5.705298977591966,22.285179632156403,0.2625701117148793
1403636638363555584,49.791813,305.07407612905894,8.736090708333332,0.0572054583333333,-2.239185083333333,0.0439822971502571,-0.3574434308084387,0.2974041045398337,4.874512632870571,26.64333713908233,0.2608164284749037
1403636638863555584,52.474022,402.9102331872381,7.591981541666666,-0.5066769166666666,-3.4404997083333333,-0.0453785605518525,0.208043246837724,0.0404916386462684,4.925091773518495,22.048498943473593,-0.7666876548759838
1403636639363555584,46.860933,355.2734105392832,9.896544291666666,0.416782625,-3.6284605,-0.1012290966156711,0.0460766922526503,-0.1780235837034216,4.2585061160313025,18.303205792739988,0.02312493807225735
1403636639863555584,39.161444,432.0737873817768,8.016936375,-0.3759215833333333,-3.4650163333333333,0.0027925268031909,0.0453785605518525,0.1137954672300302,1.7212698740628765,17.56179293274201,-0.08177500382872793
1403636640363555584,50.074816,490.9172968806656,9.046634625,-0.44129925,-2.3372515833333334,0.1089085453244461,0.0376991118430775,-0.0293215314335047,3.7366686442022283,20.875291156600436,0.593689730649583
1403636640863555584,57.607651,636.4862815471953,11.056997875,0.1470997499999999,-4.053415333333333,0.0474729556542457,0.0516617458590321,0.1179842574348166,4.249149266221344,24.338429696468815,-0.09512078862604056
1403636641363555584,39.716244,584.2260118515409,7.804458958333332,-0.4249548333333333,-2.974683833333333,-0.0230383461263251,-0.025830872929516,0.2492330171847902,1.6124219248698033,25.55670088821814,0.16718110170939582
1403636641863555584,49.567461,597.9238170520282,9.822994416666669,-0.024516625,-3.726527,-0.0083775804095727,0.1165879940332212,0.0383972435438752,2.0007908131288956,27.368586377258282,0.15464385909884726
1403636642363555584,50.030947,601.205925963063,7.698220249999999,0.122583125,-2.8602729166666667,-0.210835773640915,0.018151424220741,0.1487020522699168,3.2671095871711047,25.14734053614362,-0.10316863062759296
1403636642863555584,39.103746,673.3815369821945,11.539158166666668,-0.24516625,-3.8082490833333327,-0.0209439510239319,0.0048869219055841,0.1263618378443894,1.4047674615560486,24.36616188434561,-0.28777405544935064
1403636643363555584,42.413235,728.3185513268978,11.727118958333332,0.122583125,-3.849110125,0.0488692190558412,-0.0216420827247296,0.104021623418862,0.5163127638525735,24.71511444296785,0.24135776751548832
1403636643863555584,50.122977,719.9048830923635,7.788114541666666,0.2941994999999999,-3.334261,-0.0041887902047863,-0.0942477796076938,0.0425860337486616,1.271714099306687,23.880073800738348,-0.2172094655135126
1403636644363555584,49.801112,448.47329746976806,8.28661925,0.63743225,-3.0564059166666664,0.0446804288510548,0.3169517921621702,0.2799508120198904,1.081358704871067,23.331264664292366,-0.009110316231414117
1403636644863555584,37.982941,441.0117029675876,7.869836625,0.1389275416666666,-4.184170666666667,-0.0963421747100869,-0.1291543646475804,-0.1172861257340189,1.8212667349686615,24.843462020441688,0.0943632506524601
1403636645363555584,49.737692,439.2045243585856,10.149882749999998,0.2941994999999999,-3.334261,0.0111701072127637,0.2757620218151041,0.0795870138909414,1.515925237523973,25.764338664151502,0.16141039357274423
1403636645863555584,50.155163,615.1093861367899,11.016136833333332,-0.6782932916666666,-4.257720541666666,0.0097738438111682,-0.0062831853071795,0.1075122819228507,4.599245884120197,27.59766380854682,0.27047877628862693
1403636646363555584,52.987099,397.8028212219318,8.302963666666667,0.4821602916666666,-4.225031708333333,-0.6066764479932288,0.2345722514680378,0.1668534764906579,10.6588385459028,36.52634864985582,0.25261902760205146
1403636646863555584,45.845986,523.6141191652526,9.790305583333332,-0.0735498749999999,-2.811239666666667,-0.1801179788058148,-0.0223402144255274,0.1424188669627373,2.0590486770928123,34.40508355406201,-0.743419680888465
1403636647363555584,59.932947,536.6518698607099,9.594172583333334,0.0653776666666666,-3.726527,0.0265290046303138,0.1235693110411985,0.1026253600172665,8.328033081330465,26.56074475636114,-0.4822379930249845
1403636647863555584,60.999632,437.9112828423772,8.964912541666667,-0.0898942916666666,-3.391466458333333,-0.1843067690106012,0.0209439510239319,0.1514945790731078,1.713637324508192,25.24184720513809,-0.2866810719452957
1403636648363555584,56.352854,335.1856376542723,10.076332875,0.563882375,-3.87362675,-0.5619960191421741,0.0118682389135614,0.2296853295624537,1.378289680685627,24.706157817981207,-0.27480643337675303
1403636648863555584,50.439119,366.4026842279848,8.482752249999999,0.4576436666666666,-2.288218333333333,-0.1452113937659282,-0.200363798128949,0.0809832772925368,4.692205959893367,27.206637329983884,-0.06036304680603877
1403636649363555584,50.205946,600.1912701788717,7.363159708333333,-0.4903325,-3.162644625,0.0565486677646162,-0.2429498318776106,0.0446804288510548,3.471433700275433,24.245470807898535,-0.260567682991212
1403636649863555584,49.078226,470.6461050936713,8.891362666666666,0.2043052083333333,-3.195333458333333,-0.15079644737231,0.0314159265358979,0.122173047639603,2.3654672622447634,24.337645963834564,0.20745812459033885
1403636650363555584,59.603214,390.6078278820199,9.210078791666666,-0.5557101666666666,-3.8654545416666655,-0.5124286683855351,-0.0593411945678072,0.2038544566329376,2.7219992053029882,25.4343886185878,0.018203583238136645
1403636650863555584,48.76399,546.8738364250875,9.095667875,-0.0898942916666666,-3.366949833333333,-0.1619665545850737,0.1089085453244461,0.085870199198121,1.832862442202078,23.97893646183301,-0.09627802875274583
1403636651363555584,61.531305,759.8249476795304,9.046634625,0.0653776666666666,-3.857282333333333,0.0635299847725936,-0.0726056968829641,0.1130973355292325,1.7765790911713768,24.354995750091753,0.08393862856886969
1403636651863555584,61.061621,588.5895158270569,8.417374583333332,0.2288218333333333,-3.538566208333333,-0.28623399732707,0.0153588974175501,0.2848377339254746,1.570491631518639,24.66526683784033,0.316092705330167
1403636652363555584,41.754245,330.9681713126392,7.624670374999999,0.4576436666666666,-2.034879875,-0.6618288523562498,-0.2282890661608583,0.2450442269800038,6.06917335483026,18.855963656215142,-1.4134644045608908
1403636652863555584,49.870014,758.464429648638,9.716755708333332,-1.1604535833333331,-2.50069575,-0.0747000919853573,0.0390953752446729,0.1277581012459849,7.484635108552497,12.411001233746486,-0.057700558061142715
1403636653363555584,50.429582,831.0628636418721,8.809640583333332,-0.4249548333333333,-4.233203916666667,0.0733038285837618,0.1340412865531645,0.0265290046303138,5.111667332751422,14.885949720519658,0.2027090576884074
1403636653863555584,50.514221,850.5088178295811,8.548129916666667,-1.871435708333333,-2.8766173333333334,-0.0237364778271228,0.0111701072127637,0.0970403064108847,4.6760539261278415,19.295901550034024,0.4579286001778904
1403636654363555584,50.135136,569.2997356152575,12.626061875,-0.1797885833333333,-3.881798958333333,-0.2806489437206881,0.0188495559215387,0.182212373908208,1.530918714123569,20.50291111315792,-0.09662084491823109
1403636654863555584,38.487911,762.7532958280649,10.264293666666664,0.3023717083333333,-4.020726499999999,-0.1521927107739055,-0.0125663706143591,0.1277581012459849,2.6659310995475427,18.24728105624765,-0.0826870587390438
1403636655363555584,54.875374,835.2563160876105,9.398039583333333,0.0163444166666666,-2.8439285,-0.1480039205691191,0.0516617458590321,0.1110029404268393,6.618147345646255,15.003296102236774,-0.47745862607404455
1403636655863555584,49.824476,490.3646554798599,7.297782041666666,-0.367749375,-2.3699404166666667,-0.3155555287605747,0.0041887902047863,0.2534218073895766,7.245530524161616,12.236851774298483,-0.2308751790251904
1403636656363555584,50.167322,741.7969976098308,9.545139333333331,-0.269682875,-3.3751220416666667,-0.025830872929516,-0.0488692190558412,0.0174532925199432,7.337098633639835,12.709672264597934,0.04563851264423313
1403636656863555584,41.843414,798.9307694229685,9.136528916666666,0.0408610416666666,-3.4241552916666667,0.0216420827247296,0.1186823891356144,0.0251327412287183,8.813659572316684,13.068602941790791,0.2943544378384786
1403636657363555584,49.67165,619.3356334318836,10.967103583333332,-0.3268883333333333,-4.0125542916666666,0.0041887902047863,-0.2310815929640492,0.122173047639603,7.492075407176413,14.714237662968394,0.5269961396025096
1403636657863555584,49.839497,622.1706383940256,8.417374583333332,0.3514049583333333,-2.280046125,-0.0579449311662117,-0.1445132620651305,0.2527236756887789,7.26173115461773,17.25643002679977,0.10360480331766198
1403636658363555584,53.387642,488.0433314140693,9.839338833333333,-0.1389275416666666,-3.8245935,-0.0614355896702004,0.0090757121103705,0.0328121899374933,4.34897564543898,20.2844450700576,0.50412821516991
1403636658863555584,50.168752,466.9634363150933,9.577828166666666,-0.9643205833333331,-3.5222217916666665,-0.0223402144255274,0.1933824811209717,0.075398223686155,4.23169868705215,21.872681696059626,-0.6454892742970593
1403636659363555584,50.305128,318.8437411739789,9.692239083333332,-0.4903325,-3.0564059166666664,-0.0160570291183478,-0.093549647906896,0.1096066770252439,11.647274726782726,12.66424025883642,-0.5315552050641337
1403636659863555584,50.186158,513.4063894418615,7.3549875,-0.7518431666666666,-2.40262925,-0.0565486677646162,0.0083775804095727,0.1445132620651305,2.812025204373362,10.328253898296811,-0.06223651792989493
1403636660363555584,57.344675,450.99119354443,10.24794925,0.0817220833333333,-3.3015721666666664,-0.0090757121103705,-0.1773254520026238,0.1123992038284348,1.4690879172698332,9.315227795578446,0.15413069324967488
1403636660863555584,59.783221,762.253693818276,8.123175083333333,-0.3514049583333333,-3.170816833333333,-0.0411897703470661,0.1047197551196597,0.0209439510239319,5.279298360125517,8.9619951832935,0.19132113876375278
1403636661363555584,49.917936,685.4787014690535,8.736090708333332,-0.1634441666666666,-4.143309625,0.0139626340159546,0.0048869219055841,0.0823795406941323,0.8278967473954322,8.883442395443453,-0.151147910950435
1403636661863555584,49.213886,765.5980320219071,9.193734375,0.0817220833333333,-2.2228406666666665,0.0027925268031909,0.0006981317007977,0.1745329251994329,1.6518277520655007,9.05476062115532,-0.023795346787643723
1403636662363555584,46.874762,678.7048398282817,12.127557166666666,0.1389275416666666,-3.219850083333333,-0.0523598775598298,-0.0837758040957278,-0.0516617458590321,3.006258061362329,8.568155584751304,-0.06297189883392029
1403636662863555584,59.968949,572.5047059145516,8.793296166666666,0.4331270416666666,-2.9338227916666666,-0.0495673507566389,-0.182212373908208,0.0509636141582344,0.800430374047305,8.153667075359014,0.03200479766461761
1403636663363555584,46.265126,476.6564889738891,10.754626166666666,0.4821602916666666,-2.4189736666666666,-0.1319468914507713,-0.0118682389135614,-0.2527236756887789,0.5556461645994201,8.313396464250273,-0.23172632534958026
1403636663863555584,60.46629,312.8943019928459,11.931424166666664,0.1470997499999999,-4.241376125,-0.0509636141582344,0.2555162024919699,-0.0349065850398865,2.853457359981041,9.475015960099222,0.1533387770784671
1403636664363555584,49.933672,303.80248073933416,8.883190458333333,-0.2043052083333333,-3.554910625,0.1137954672300302,0.153588974175501,0.1640609496874669,2.324562341762614,9.972958683610225,-0.17929882223207017
1403636664863555584,47.716856,246.10919745003972,9.291800875,0.6537766666666667,-1.6753027083333332,0.1068141502220529,-0.0139626340159546,0.0293215314335047,2.2043781757566583,10.466576808906956,-0.14208501598463918
1403636665363555584,49.687624,239.54484946095155,10.158054958333333,0.0,-3.366949833333333,-0.0600393262686049,-0.0160570291183478,-0.054454272662223,2.0645589607503423,11.501281411092386,0.3692146177830722
1403636665863555584,42.906284,197.54619874188924,9.177389958333332,0.7600153749999999,-3.08909475,0.1130973355292325,0.1445132620651305,0.418879020478639,1.5138833835813001,11.57598424287017,0.028879063128545823
1403636666363555584,49.834252,295.3222329375209,10.4931155,-0.1389275416666666,-3.293399958333333,0.1235693110411985,0.132645023151569,0.2485348854839925,1.3618082883734461,11.803537397798907,-0.03660421954866244
1403636666863555584,57.616949,285.1617211179021,9.790305583333332,-0.907115125,-3.268883333333333,0.1514945790731078,-0.2757620218151041,0.4649557127312894,2.2437759971568196,12.867843046562196,0.11503718193904433
1403636667363555584,50.175429,456.3459548590235,10.117193916666666,0.1879607916666666,-3.3996386666666667,0.018151424220741,0.0495673507566389,-0.0090757121103705,1.1202148428238914,12.765711172468464,0.009749233988276984
1403636667863555584,46.832323,483.3480689181978,9.079323458333333,0.9888372083333332,-4.478370166666666,0.0188495559215387,0.1172861257340189,0.1242674427419962,3.6145204795117785,13.092396764957323,0.14738910993182586
1403636668363555584,59.791804,618.8915832694446,9.332661916666666,0.5557101666666666,-2.59876225,-0.0495673507566389,0.0509636141582344,0.1773254520026238,6.441926039900668,16.50938076183185,0.22936163100701634
1403636668863555584,49.919128,520.0537456250232,9.136528916666666,-0.5965712083333333,-3.2280222916666665,-0.0691150383789754,0.1682497398922533,-0.1668534764906579,7.421437509143079,22.64767500904376,0.5317907874658019
1403636669363555584,46.600104,594.011894221784,8.703401874999999,0.392266,-2.3862848333333333,-0.0048869219055841,-0.0614355896702004,0.085870199198121,5.87753282606112,27.684094352923122,0.7937645630937276
1403636669863555584,49.318075,425.7837287158811,11.2776475,1.5363751666666667,-4.159654041666666,0.2387610416728242,-0.0342084533390888,0.7113962031128886,5.468560982976248,31.71499752505551,0.2069273693389313
1403636670363555584,49.30687,480.8224156001077,10.207088208333332,-0.3105439166666667,-3.2443667083333327,0.1989675347273535,-0.124965574442794,0.1773254520026238,12.088150160495767,22.483706883876764,-0.8024099842235373
1403636670863555584,60.999393,389.14080901320585,11.318508541666665,0.4249548333333333,-4.788914083333333,0.6590363255530588,0.0237364778271228,0.2059488517353309,9.715533166183343,16.86787536272726,-0.08961718529204177
1403636671363555584,71.932554,399.2238466230562,7.485742833333332,0.1062387083333333,-2.549729,0.132645023151569,-0.364424747816416,-0.76026542216873,3.0177929060691717,16.775249804391095,0.19075387778204345
1403636671863555584,49.92652,323.7528503632793,12.127557166666666,0.6047434166666666,-3.9390044166666662,-0.0425860337486616,-0.0998328332140756,0.0530580092606276,2.125141270907149,15.414943809481327,-0.11062385354665416
1403636672363555584,60.755491,341.0815325306668,7.322298666666667,-0.8172208333333333,-1.789713625,-0.1382300767579508,0.2946115777366427,-0.2122320370425104,2.023271344900174,14.803405652481553,-0.10909417564742263
1403636672863555584,49.620867,497.2863186938542,9.733100125,-0.7109821249999999,-3.734699208333333,0.1396263401595463,-0.0356047167406843,0.0083775804095727,0.981748113654243,14.871256633949786,-0.13257173160787517
1403636673363555584,63.308477,567.068902332764,9.5124505,0.0898942916666666,-3.751043625,0.1096066770252439,-0.0293215314335047,0.0802851455917391,2.7441960400657632,15.410828409856128,0.045441380434594336
1403636673863555584,50.000906,683.6120061981092,9.07115125,0.3759215833333333,-3.4731885416666666,0.0111701072127637,0.104021623418862,0.0509636141582344,1.4275032507251835,16.781273191026422,0.19784791425143666
1403636674363555584,50.43602,461.46299020995457,8.466407833333333,0.0163444166666666,-3.1299557916666663,0.1696460032938488,0.0956440430092892,0.3204424506661589,0.7607873587172199,17.27252846389722,-0.04741872982475215
1403636674863555584,60.328722,307.82550159053505,10.713765125,-0.2288218333333333,-4.126965208333333,0.0900589894029074,-0.2268928027592628,0.093549647906896,2.2988156829816897,16.627145544867396,-0.29777471401979483
1403636675363555584,49.726486,340.57636813889286,8.5317855,-0.4331270416666666,-3.726527,-0.0237364778271228,0.2827433388230814,-0.0844739357965255,0.5564136541380531,16.18870087576452,0.042020995476605094
1403636675863555584,49.991608,294.7023354829154,8.490924458333334,0.1552719583333333,-3.1054391666666663,0.5131268000863328,0.1584758960810851,0.4153883619746504,2.914315791991877,16.09559298501275,0.021180868419484966
1403636676363555584,60.70304,420.82085853012927,9.046634625,1.0215260416666667,-3.587599458333333,0.3811799086355615,0.0537561409614253,-0.3420845333908886,3.556208654744692,14.706607767965451,-0.07765615685628013
1403636676863555584,49.914598,515.5741093898881,9.7085835,-0.0980665,-3.661149333333333,0.2073451151369263,-0.0977384381116824,0.1829105056090057,1.934632900896596,13.926810593615812,-0.05550511204380548
1403636677363555584,49.416542,402.9090509811455,9.210078791666666,0.2043052083333333,-3.3506054166666663,0.1696460032938488,0.2373647782712288,-0.0488692190558412,0.652956986462788,14.476136198668915,0.3060414704126977
1403636677863555584,49.861908,343.4648682739617,9.013945791666666,0.6456044583333332,-2.40262925,0.5773549165597242,-0.2157226955464991,0.1633628179866692,3.4033399484305034,15.978918138523085,0.17876747882732147
1403636678363555584,58.089018,502.8927665778374,11.220442041666669,-0.24516625,-4.053415333333333,0.333008821280518,0.0013962634015954,-0.0251327412287183,1.6939428693596454,16.650681358695067,0.08700689307022103
1403636678863555584,59.688806,472.7589558296363,7.632842583333333,0.0980665,-2.606934458333333,0.3288200310757317,0.0390953752446729,-0.4209734155810323,1.9286206008223061,15.895058388797448,-0.17507903093957822
1403636679363555584,60.134649,382.7317607716275,9.242767625,0.7763597916666666,-3.1054391666666663,0.5159193268895238,0.0565486677646162,0.0090757121103705,1.3924261141719927,16.105945834003364,0.24377604583389711
1403636679863555584,40.220975,467.6864943355026,10.386876791666666,-0.5557101666666666,-2.557901208333333,-0.0097738438111682,0.2045525883337354,-0.0823795406941323,1.2041208411648139,16.31835724660544,-0.1544523277261476
1403636680363555584,49.645423,498.2183229664748,8.834157208333334,0.2941994999999999,-2.9256505833333333,-0.1410226035611418,-0.1528908424747032,-0.1389282084587486,3.846169859925113,16.767136234940775,0.07092972746856674
1403636680863555584,49.929142,338.7018682143864,7.84532,0.4739880833333333,-2.574245625,0.1494001839707146,-0.0691150383789754,0.5808455750637129,0.7422999362242823,16.018048987852453,0.10673524571164705
1403636681363555584,38.778543,382.6681651447987,9.299973083333333,0.5230213333333333,-4.886980583333333,-0.0460766922526503,0.2869321290278678,0.0523598775598298,3.2251843947123002,15.160949013718284,-0.23921705991004316
1403636681863555584,50.089836,517.4265867791042,10.321499125,-0.2369940416666666,-3.415983083333333,0.0446804288510548,-0.0132645023151569,0.1103048087260416,3.181827384373115,14.409385277714993,-0.01509299784206597
1403636682363555584,50.217628,459.7461273223676,8.891362666666666,-0.1307553333333333,-1.5527195833333332,0.0083775804095727,-0.132645023151569,0.1556833692778942,2.6928076466753668,13.747625077498723,-0.15887878675353662
1403636682863555584,47.264576,590.3975833474802,9.9047165,0.3268883333333333,-2.827584083333333,0.0111701072127637,0.0656243798749867,-0.0041887902047863,2.1729647982535134,14.362453947662573,0.11823542527018205
1403636683363555584,34.204483,457.18781345194543,8.302963666666667,0.196133,-2.312734958333333,0.0705113017805709,-0.0628318530717958,0.179419847105017,2.601775422841826,15.936978764628073,0.13810392970651364
1403636683863555584,49.67618,528.7957390957397,12.715956166666665,1.005181625,-4.184170666666667,0.1012290966156711,0.0097738438111682,0.140324471860344,6.118628384701495,20.23658498167666,0.5311105239407539
1403636684363555584,39.800882,479.14759388177015,7.322298666666667,0.024516625,-2.672312125,0.0216420827247296,0.1082104136236484,0.0663225115757845,2.8422745994763474,17.640021585436404,-0.44174864940625014
1403636684863555584,51.115274,474.77050231463113,8.319308083333333,0.73549875,-3.391466458333333,0.025830872929516,0.0425860337486616,0.0370009801422797,2.721216083857145,17.024363208035762,0.08118119586390193
1403636685363555584,50.287008,595.3161610112579,8.556302125,0.1634441666666666,-2.8602729166666667,-0.075398223686155,0.0006981317007977,0.0174532925199432,5.6100667365992924,12.42953391816528,-1.5923704818526012
1403636685863555584,46.932221,543.0717111576992,8.172208333333334,0.8499096666666667,-1.9695022083333331,-0.0495673507566389,0.054454272662223,-0.0041887902047863,1.6310996958843016,13.189786830918521,0.15631663309060606
1403636686363555584,60.975551,584.9012654962477,7.044443583333333,0.7028099166666667,-2.1166019583333333,-0.0328121899374933,-0.0425860337486616,0.064926248174189,0.974929239984104,13.569358325249011,-1.0276441495075925
1403636686863555584,50.230265,587.0650448928143,10.019127416666668,0.0,-4.110620791666666,0.0516617458590321,0.093549647906896,0.1445132620651305,2.4884455306141775,11.826497826532515,0.11338970391042302
1403636687363555584,43.719291,625.5362400508413,8.311135875,0.0572054583333333,-3.113611375,-0.0397935069454707,0.0558505360638185,0.0432841654494593,8.067294310495402,7.6911681591950956,0.01626645976559704
1403636687863555584,50.698519,587.7392236733291,7.935214291666666,0.392266,-1.985846625,-0.0314159265358979,0.0663225115757845,0.0321140582366956,3.550275962264573,9.232342795908576,0.5872740347629914
1403636688363555584,49.589396,589.9209882687488,8.539957708333333,-0.661948875,-4.184170666666667,0.0027925268031909,0.0565486677646162,0.1696460032938488,3.7590019296267694,10.83595744166858,-0.1591323676742391
1403636688863555584,49.992323,445.7108399117128,10.1008495,0.0572054583333333,-4.274064958333334,0.0893608577021096,-0.0879645943005142,0.0509636141582344,2.064926220098686,9.115900223711623,-0.2019870831968209
1403636689363555584,49.702406,610.2300549393696,9.716755708333332,0.465815875,-2.7376897916666665,0.0509636141582344,-0.0237364778271228,0.0111701072127637,2.9458378807520145,6.967776925390629,-0.07025892827148272
1403636689863555584,49.228192,585.1262427792948,9.667722458333332,0.4903325,-2.59876225,0.0097738438111682,0.1473057888683213,0.1801179788058148,2.41888936395547,8.181750207452644,-0.006143296091337902
1403636690363555584,46.675682,670.31706828699,8.989429166666666,0.8008764166666666,-3.5222217916666665,-0.046774823953448,0.0251327412287183,-0.0390953752446729,1.874759906131281,8.632057789655406,-0.05109502387744769
1403636690863555584,59.356212,537.1393716554461,11.163236583333331,-0.5965712083333333,-3.505877375,0.0760963553869527,0.361632221013225,0.2247984076568696,3.590620497649609,8.154470964262282,0.041007743543316266
1403636691363555584,53.122759,469.1170378311193,10.844520458333331,-0.8989429166666666,-3.293399958333333,-0.0656243798749867,-0.1759291886010284,-0.2422517001768129,2.5882314242814686,9.32074180351451,0.30432101288155167
1403636691863555584,52.13356,556.2175734624847,7.134337875,-0.63743225,-3.530394,0.0432841654494593,-0.0998328332140756,0.1542871058762987,2.219299544243759,9.027765082556849,0.08068059358212665
1403636692363555584,49.330235,600.6038790957565,10.166227166666664,0.2533384583333333,-3.661149333333333,0.0356047167406843,0.0244346095279206,0.1891936909161853,1.2541395357378127,9.89914709306785,0.08488623218671165
1403636692863555584,42.664289,660.9951351635983,7.886181041666666,0.2941994999999999,-2.476179125,-0.1082104136236484,-0.1438151303643327,-0.1270599695451872,3.477730452712316,10.337780123924082,-0.023358281379895374
1403636693363555584,50.509453,766.900937502694,8.703401874999999,0.1552719583333333,-3.211677875,0.0537561409614253,-0.1780235837034216,0.2178170906488923,1.5538240682032467,8.754678799468154,0.0439007420643609
1403636693863555584,59.872866,486.3056082291931,7.183371125,1.1686257916666667,-3.2361945,0.0593411945678072,0.4202752838802345,0.0747000919853573,1.2525377462493386,8.301109828713836,0.00018714341219094877
1403636694363555584,49.930811,767.4796491722108,8.5317855,0.3023717083333333,-3.930832208333333,-0.0614355896702004,-0.0558505360638185,0.0879645943005142,0.4908938212065441,8.274167379815353,-0.040951360527705205
1403636694863555584,50.332785,662.5726967656576,7.9433865,0.0980665,-1.7161637499999998,0.1110029404268393,-0.0146607657167523,0.3113667385557884,0.3031800171106651,8.002661271157628,0.14269744988998312
1403636695363555584,60.176373,702.2123546745901,11.048825666666666,-0.1634441666666666,-3.546738416666667,-0.0048869219055841,0.028623399732707,0.0642281164733913,1.1499081883409514,8.860154885690303,0.05903920997478984
1403636695863555584,52.81353,756.0086733182108,8.621679791666667,1.201314625,-1.9449855833333327,0.0090757121103705,0.0502654824574366,0.122173047639603,1.088505572077351,9.821674928969843,0.1782594047811461
1403636696363555584,58.771372,421.5437007214946,10.656559666666666,0.0735498749999999,-3.2443667083333327,0.0307177948351002,0.478918346747244,0.2227040125544764,1.6238658187252655,11.197391461644873,-0.009376473967769527
1403636696863555584,49.761534,734.6644402117404,9.553311541666666,0.5066769166666666,-3.366949833333333,-0.0474729556542457,0.0851720674973232,-0.0223402144255274,1.3359566130684797,12.378459195557689,0.1879456464097462
1403636697363555584,52.202701,540.589703318209,9.80665,0.93163175,-3.652977125,0.0670206432765822,-0.1354375499547599,0.3651228795172137,0.9377038909347765,12.140906522732037,-0.05843034441572037
1403636697863555584,50.055027,596.1041982175459,9.716755708333332,0.0326888333333333,-3.195333458333333,-0.3735004599267865,-0.0118682389135614,0.2192133540504878,0.8570591056548185,11.331630510567656,0.03371311643539343
1403636698363555584,39.03985,637.4104713936518,9.896544291666666,-0.1552719583333333,-2.5660734166666663,-0.2932153143350474,0.0677187749773799,0.2527236756887789,0.7044451397829441,10.637915431359303,-0.057594074851113675
1403636698863555584,50.225735,565.8227629443713,9.847511041666666,-0.3023717083333333,-3.260711125,-0.4642575810304917,0.1759291886010284,0.5054473513775578,1.82076418778803,9.75345964018381,-0.15040694347379358
1403636699363555584,57.80363,544.6303371807171,9.332661916666666,0.0653776666666666,-4.241376125,-0.546637121724624,0.0837758040957278,0.4167846253762458,0.9210950844284537,10.58903210631022,0.2964256706894819
1403636699863555584,39.250612,648.5793492778306,7.216059958333333,0.269682875,-3.669321541666666,-0.3413864016900908,0.2687807048071267,0.0642281164733913,1.346851847342056,10.15495335278128,-0.1399211287062947
1403636700363555584,49.866677,804.798909285387,9.1201845,-0.3514049583333333,-4.069759749999999,-0.1019272283164688,-0.0523598775598298,0.2673844414055313,2.4745274415604457,9.548101978492543,0.011910645910926831
1403636700863555584,60.08172,795.4379021123484,9.471589458333332,-0.0572054583333333,-3.268883333333333,-0.0907571211037051,-0.1954768762233649,0.1703441349946465,5.546226147829614,13.182897414630638,0.5568590268490059
1403636701363555584,49.302101,1014.5951920594948,8.229413791666666,0.3514049583333333,-2.6477955,0.0027925268031909,0.0411897703470661,0.036302848441482,1.3135230615451827,12.534109966023498,-0.11817969093080372
1403636701863555584,53.556681,746.311938699784,7.289609833333333,-0.2941994999999999,-3.1054391666666663,-0.2666863097047335,-0.0621337213709981,0.1368338133563554,1.000989421991129,12.704990443321176,0.033402429779481935
1403636702363555584,49.442053,545.5296651916597,8.793296166666666,-0.0081722083333333,-2.2963905416666663,-0.260403124397554,0.0139626340159546,0.0998328332140756,0.6947554758392331,12.441437603086717,0.06100244525249998
1403636702863555584,50.741672,626.7847395142504,9.618689208333333,0.6782932916666666,-4.045243125,-0.0418879020478639,-0.0349065850398865,0.036302848441482,4.821717187108638,14.872000430381934,0.2960531128975852
1403636703363555584,46.865941,739.2718514471945,8.221241583333333,0.612915625,-2.280046125,-0.007679448708775,0.0495673507566389,-0.0055850536063818,2.4382750642089204,15.92986772956014,0.15461180702417998
1403636703863555584,40.296077,585.2768293848321,9.684066875,-0.8825985,-3.391466458333333,0.0418879020478639,0.0705113017805709,0.1864011641129944,1.2419866971828424,15.012737481657728,-0.04721824856937573
1403636704363555584,49.718141,628.9417086656375,10.256121458333332,0.4004382083333333,-3.0073726666666665,0.0160570291183478,-0.0886627260013119,0.0607374579694026,1.338721487876658,15.153460217988354,0.03525289927203801
1403636704863555584,42.705774,561.8788409837285,8.074141833333334,0.0163444166666666,-2.59876225,0.0132645023151569,-0.0607374579694026,0.0446804288510548,2.6215615717155574,15.450027441375521,0.06448101917699489
1403636705363555584,40.180445,550.482332702141,8.638024208333333,0.1307553333333333,-2.50069575,-0.0146607657167523,0.2038544566329376,0.0628318530717958,1.2621793474671195,16.276517917618207,0.15039528520276946
1403636705863555584,48.123837,378.1693767289072,9.504278291666663,0.4821602916666666,-3.734699208333333,0.064926248174189,0.1850049007113989,0.2527236756887789,1.3038712009081477,17.354890769664067,0.08891756515396665
1403636706363555584,50.373078,546.3682640441016,9.013945791666666,-0.0081722083333333,-2.582417833333333,-0.0558505360638185,-0.0118682389135614,-0.1319468914507713,0.5795452604510763,17.63721967433032,-0.13285448537888556
1403636706863555584,50.40288,598.2537127268256,10.215260416666666,0.24516625,-5.418174124999999,-0.0586430628670094,-0.0565486677646162,0.1165879940332212,1.3130916410822417,17.844713604444003,0.25600047888351796
1403636707363555584,50.037384,648.8710640810073,11.03248125,0.0898942916666666,-3.178989041666666,-0.0446804288510548,0.036302848441482,0.0907571211037051,6.056285013794343,22.743887755588506,0.323146792343902
1403636707863555584,48.700333,576.1263211212841,6.505077833333333,0.9234595416666666,-2.3372515833333334,0.0425860337486616,0.1054178868204575,0.0774926187885482,4.566640074152635,27.17065835014682,0.6586416632347856
1403636708363555584,38.658142,478.5983021818489,8.7279185,0.024516625,-3.2035056666666666,0.1333431548523667,0.0740019602845595,0.3860668305411457,2.044252539524709,28.85008349854002,0.1572401610227594
1403636708863555584,49.993992,543.3273084090756,9.7085835,-0.0817220833333333,-3.2035056666666666,-0.122173047639603,0.1277581012459849,-0.0062831853071795,2.378025744969525,30.52404840918631,-0.32334752018337554
1403636709363555584,59.625626,585.9303130403244,7.681875833333333,0.1062387083333333,-2.9583394166666666,-0.0146607657167523,-0.0349065850398865,0.0356047167406843,1.8069703938396071,31.428779586586096,0.5394135011445123
1403636709863555584,39.623499,582.8178432617601,9.741272333333333,0.7191543333333333,-3.92266,0.0558505360638185,-0.0055850536063818,0.1061160185212552,3.5846516236197625,35.00290457775346,0.23430677921455612
1403636710363555584,38.726568,385.6458592276389,9.487933875,0.4576436666666666,-3.857282333333333,0.2213077491528809,0.0949459113084915,0.3602359576116296,2.5857838986007886,37.381706229064804,-0.07266645470945576
1403636710863555584,50.106287,408.9962821346752,9.308145291666667,-0.3023717083333333,-3.08909475,0.257610597594363,-0.0223402144255274,-0.2520255439879811,3.8745014156093474,34.50937369393756,-0.5133888082251872
1403636711363555584,60.403824,500.48070232332446,9.65955025,0.3595771666666666,-4.56009225,0.0411897703470661,0.1773254520026238,0.210835773640915,2.0492617109166598,36.416903536266545,0.4192423535457621
1403636711863555584,60.862303,530.8254159622495,10.313326916666666,0.73549875,-4.404820291666666,0.046774823953448,-0.1305506280491758,0.3022910264454179,1.5578290488638484,35.408700956426514,-0.4659394972302735
1403636712363555584,54.803371,497.5528753640006,8.760607333333333,0.1552719583333333,-2.01036325,0.2666863097047335,0.0509636141582344,-0.1996656664281513,0.9002275734383857,34.7295160184001,-1.104937130981675
1403636712863555584,60.984135,615.249711704779,8.703401874999999,0.171616375,-3.685665958333333,0.0223402144255274,-0.0719075651821663,0.1110029404268393,1.3418719012339322,33.772541041147655,0.015102287593279584
1403636713363555584,50.762653,662.2559956429399,11.007964625,0.34323275,-2.745862,-0.0195476876223364,-0.1061160185212552,0.2017600615305445,3.7025358013959586,32.70289401529995,-0.20311997468573395
1403636713863555584,49.746513,687.813389561376,9.716755708333332,0.220649625,-2.982856041666666,-0.0691150383789754,0.0069813170079773,0.0460766922526503,6.348545853558804,32.399113246940416,0.0478204141805989
1403636714363555584,46.763182,673.8614608677536,10.599354208333333,0.6047434166666666,-3.849110125,-0.0216420827247296,-0.0516617458590321,0.1410226035611418,3.5306211504978027,32.73732911492996,0.05342657993552535
1403636714863555584,39.78467,482.6709641470448,10.828176041666667,0.4903325,-4.519231208333333,0.4565781323217166,0.0530580092606276,-0.1947787445225671,0.6757945730651558,33.275594160999745,0.14650903575836338
1403636715363555584,42.808294,599.2095148862477,7.976075333333333,-0.1879607916666666,-2.3209071666666663,0.1103048087260416,0.0991347015132779,0.0607374579694026,0.7556170128254065,33.57550917330441,0.09309666099470348
1403636715863555584,47.240257,624.8083910392016,11.898735333333333,-0.9152873333333332,-4.429336916666666,-0.064926248174189,0.1877974275145898,0.0432841654494593,1.5846864305238164,32.52597822420032,-0.18951522296693923
1403636716363555584,49.71075,697.3468991622515,9.283628666666663,0.5720545833333333,-4.26589275,-0.0747000919853573,-0.036302848441482,0.0949459113084915,3.7613834098372685,30.554509077703358,-0.1980034534434516
1403636716863555584,49.962759,613.2573137590538,9.724927916666667,1.3075533333333331,-3.18716125,0.289026524130261,-0.0307177948351002,-0.0551524043630208,3.2257094373820676,31.905878019913292,0.18983715023098569
1403636717363555584,39.561987,649.2770692621758,9.831166624999998,-0.44129925,-4.233203916666667,0.0488692190558412,0.0006981317007977,-0.293913446035845,1.1506310140482339,31.06760185478012,-0.17607060667965158
1403636717863555584,49.927712,617.7515791222177,11.351197375,-1.1195925416666666,-4.0125542916666666,0.1305506280491758,0.0139626340159546,-0.0733038285837618,1.3016571082648785,30.00647022248664,-0.13746012943137131
1403636718363555584,41.59069,468.2346079939724,9.978266375,-0.5802267916666666,-3.7837324583333327,0.3344050846821135,0.0293215314335047,0.0747000919853573,4.456819897298437,27.06442541327033,-0.2848030162569586
1403636718863555584,47.11175,687.3807990230392,10.501287708333331,0.8825985,-2.8847895416666667,0.0335103216382911,0.0760963553869527,-0.124965574442794,1.9744541490822398,27.674735410825246,0.3325384610341544
1403636719363555584,57.379007,707.5581656642853,9.430728416666666,0.0980665,-4.143309625,-0.0265290046303138,0.0733038285837618,0.1110029404268393,12.468785136041255,20.90712423471399,-0.2941789098530485
1403636719863555584,49.106359,729.799865442601,8.28661925,0.83356525,-2.8602729166666667,-0.0642281164733913,0.0705113017805709,0.0851720674973232,2.2088676834514196,19.08224798021303,-0.7368167112609498
1403636720363555584,50.646782,721.2108013901509,9.594172583333334,0.0653776666666666,-3.57942725,0.0272271363311115,0.0251327412287183,0.1165879940332212,1.9830109934193163,17.256561180939674,-0.14439515128115943
1403636720863555584,50.185918,674.6907747501978,7.853492208333332,0.367749375,-2.525212375,-0.2590068609959585,0.0397935069454707,0.1843067690106012,3.2548112794012707,17.84235193519693,-0.6020601600339859
1403636721363555584,53.355456,649.2601401087632,11.13054775,-0.53936575,-3.742871416666666,-0.257610597594363,0.0125663706143591,0.1494001839707146,1.6884742804789663,16.273761158155622,-0.1845563360093685
1403636721863555584,62.042713,807.0805872017896,10.1008495,-0.0408610416666666,-4.028898708333333,-0.0914552528045028,-0.0160570291183478,0.0279252680319092,1.3444752535553015,15.074548861936382,-0.09284885988943259
1403636722363555584,64.90922,849.0815647641969,10.272465875,-0.196133,-2.8602729166666667,0.0146607657167523,-0.054454272662223,0.1137954672300302,1.8024315472406511,15.100241431553071,0.1615631437568794
1403636722863555584,50.277233,879.7767531300678,8.9240515,0.0898942916666666,-2.9583394166666666,-0.0411897703470661,0.0188495559215387,0.0300196631343024,1.356673319934201,15.072887052585845,-0.09000592257960705
1403636723363555584,60.981989,801.9009398216446,10.34601575,-0.7191543333333333,-3.8164212916666655,-0.1926843494201739,0.0886627260013119,0.0202458193231342,6.554744664988197,18.126881293811206,-0.026423215040253467
1403636723863555584,66.920996,694.7585920590228,9.438900625,-0.1552719583333333,-2.8602729166666667,-0.0670206432765822,-0.1005309649148733,0.1801179788058148,2.280614775941921,18.476490744971752,0.01869884632890262
1403636724363555584,60.67872,675.1609020117374,11.367541791666666,-0.024516625,-3.669321541666666,-0.3707079331235955,0.1647590813882647,0.1731366617978375,2.4039420437785948,16.286749971929765,-0.27136552384649093
1403636724863555584,56.336641,994.3073144295164,9.087495666666666,-0.3759215833333333,-2.778550833333333,0.0293215314335047,-0.0335103216382911,0.122173047639603,3.8745293218338244,19.269240944276397,0.9890105245855061
1403636725363555584,49.835444,957.3653929891568,9.291800875,-0.5883989999999999,-2.3372515833333334,-0.0020943951023931,-0.0153588974175501,0.1019272283164688,8.090474121001126,26.034914156631906,0.21758099435422196
1403636725863555584,60.290575,1006.2304158055172,8.580818749999999,0.24516625,-2.0757409166666667,0.0125663706143591,-0.0006981317007977,0.1263618378443894,1.5517513145133295,24.62290473699842,-0.2687525003379214
1403636726363555584,38.742542,1016.0718819602369,9.822994416666669,0.196133,-2.1411185833333333,0.0160570291183478,0.1207767842380075,0.0614355896702004,4.122449358999533,21.27985461068774,-0.14077460553254895
1403636726863555584,39.657355,923.923996980152,8.458235625,-0.024516625,-3.138128,0.0013962634015954,0.0481710873550434,-0.2443460952792061,2.4936988218131266,19.02772289792667,-0.10936602342924573
1403636727363555584,52.930116,1044.0751827627312,8.196724958333332,-0.2124774166666666,-2.533384583333333,-0.0397935069454707,-0.0733038285837618,0.0293215314335047,2.0432422804126205,19.90101437903381,0.005722282707608883
1403636727863555584,57.893991,853.3073749221612,8.458235625,-0.7191543333333333,-2.018535458333333,-0.0712094334813686,0.0349065850398865,-0.0614355896702004,1.0212924786932245,19.767905012066144,-0.13289951090435537
1403636728363555584,38.803815,1055.5190570979162,7.526603874999999,0.3759215833333333,-2.4189736666666666,-0.0195476876223364,-0.0726056968829641,0.1242674427419962,1.406114198538826,20.118221243129764,-0.08110671153155735
1403636728863555584,61.353922,824.2748282278258,8.401030166666667,-0.0898942916666666,-1.9286411666666663,0.2324778563656447,0.0816814089933346,-0.0991347015132779,3.1168941685980465,17.896401394491836,-0.2582661061316216
1403636729363555584,40.047884,1077.6049044721285,8.392857958333332,-1.0296982499999998,-2.288218333333333,0.025830872929516,-0.0034906585039886,0.0558505360638185,1.991246329393458,17.347136293138053,0.17747931141431295
1403636729863555584,60.370922,1029.7199487565952,8.065969625,1.0950759166666666,-3.415983083333333,0.0090757121103705,0.0342084533390888,0.1500983156715123,2.0720601102657232,18.596688199761225,0.30013209129834806
1403636730363555584,50.823688,1148.1674123325963,8.098658458333333,0.4331270416666666,-3.734699208333333,0.0132645023151569,0.0055850536063818,0.0488692190558412,3.208268794838393,16.167706369920605,-0.7700790619838074
1403636730863555584,39.681911,1092.3534064377077,8.262102624999999,0.5148491249999999,-2.69682875,0.0300196631343024,-0.0251327412287183,0.1808161105066125,4.620805391692114,12.844769742375323,-0.1614979145066684
1403636731363555584,50.565481,1086.520806204602,7.330470875,-0.5230213333333333,-2.623278875,-0.0586430628670094,0.0509636141582344,-0.0628318530717958,1.9774455406598792,14.710775252790121,0.44080356068482196
1403636731863555584,41.517496,1185.7872830758706,9.896544291666666,-0.0408610416666666,-3.4241552916666667,-0.0551524043630208,-0.0188495559215387,-0.0188495559215387,4.4337059019411,17.512036001980412,0.1572820220904596
1403636732363555584,60.617447,1181.6924712196185,9.161045541666669,0.0980665,-3.18716125,-0.0872664625997164,0.1494001839707146,-0.124965574442794,2.541504640158125,19.397111414461843,-0.09695976530183614
1403636732863555584,60.256719,1199.424849903772,9.112012291666666,-0.3514049583333333,-3.3260887916666664,0.0230383461263251,-0.0314159265358979,0.1068141502220529,1.8437315588256058,20.257567178256732,0.24391907451657602
1403636733363555584,42.004823,1086.29511312585,7.976075333333333,-0.6456044583333332,-1.7488525833333333,-0.0041887902047863,-0.0767944870877505,0.1186823891356144,1.9276739643891923,21.323377709381784,0.560878723718055
1403636733863555584,46.974898,1169.4202760231976,9.046634625,-0.7600153749999999,-2.5415567916666664,0.0125663706143591,0.0684169066781777,0.1521927107739055,2.29771092206953,22.843772665826975,-0.008213039346085083
1403636734363555584,39.224386,1179.6941585024813,10.019127416666668,0.6701210833333332,-3.2443667083333327,0.0237364778271228,-0.0314159265358979,0.0914552528045028,0.8334999586794971,23.23995618208685,-0.03741489986447988
1403636734863555584,43.393612,1171.462678623356,9.594172583333334,0.1552719583333333,-3.309744375,0.025830872929516,0.0265290046303138,0.0823795406941323,2.6348345284314374,24.573539174459714,0.18069022409300572
1403636735363555584,35.500765,1211.4102428039362,10.73828175,0.3759215833333333,-2.868445125,-0.0034906585039886,0.0300196631343024,0.1410226035611418,1.4083619958845135,24.379666382367056,-0.7767070799069131
1403636735863555584,49.949646,1251.3009350156674,8.074141833333334,-0.563882375,-2.0021910416666664,-0.0523598775598298,0.0823795406941323,0.0523598775598298,11.932647999994044,13.124938075539285,-0.6086228136015794
1403636736363555584,60.656309,992.8126246007498,7.984247541666667,0.8172208333333333,-3.702010375,0.1347394182539622,-0.0104719755119659,-0.0300196631343024,3.154889525677064,11.26854406125019,0.17848730391055234
1403636736863555584,39.806843,1129.319916304717,8.793296166666666,1.0705592916666666,-2.1983240416666665,0.0411897703470661,0.0453785605518525,0.046774823953448,2.9689724342408663,10.109027114285523,-0.12475849745992917
1403636737363555584,60.45413,944.438335315518,10.362360166666663,-0.2778550833333333,-4.077931958333333,0.0460766922526503,-0.1054178868204575,0.0593411945678072,3.605071824756947,8.379106831818756,-0.3271809291137906
1403636737863555584,41.224956,1129.963211687352,9.716755708333332,0.465815875,-3.734699208333333,0.0174532925199432,0.0349065850398865,0.1340412865531645,4.774221082927158,11.200594452993327,0.4791202873263849
1403636738363555584,60.292721,1044.2869657409583,8.752435125,-0.8580818749999999,-3.309744375,-0.0488692190558412,-0.0851720674973232,0.08307767239493,8.512382941148976,16.538771475142067,0.309179580242418
1403636738863555584,38.584471,624.5294538362631,7.093476833333334,-0.2043052083333333,-2.435318083333333,-0.4014257279586957,0.1738347934986352,0.3344050846821135,0.6367472671883325,16.043511988681473,-0.0063651258693333546
1403636739363555584,40.908337,626.888653347249,11.138719958333333,0.2615106666666666,-4.094276375,-0.6422811647339132,0.0370009801422797,0.0726056968829641,4.0133343447449255,16.90391663664702,0.1345550526872259
1403636739863555584,43.028116,1081.4434091727535,8.360169125,-0.3105439166666667,-3.4486719166666666,-0.1284562329467826,-0.1103048087260416,0.0942477796076938,2.7721082082291746,18.059441296398436,0.14282177745751312
1403636740363555584,50.723552,1115.1034420659555,8.915879291666666,-0.2778550833333333,-3.023717083333333,0.1640609496874669,0.1054178868204575,0.1710422666954443,5.501017812947526,19.182287335299403,0.22677026817446588
1403636740863555584,49.833298,1209.1574606282174,6.513250041666667,0.1879607916666666,-2.0593965,-0.0411897703470661,0.1158898623324234,-0.0390953752446729,3.1128584380680193,20.656052938272822,0.07676925255088562
1403636741363555584,46.871424,575.6437694661346,9.765788958333331,0.5965712083333333,-4.323098208333334,-0.0621337213709981,-0.3183480555637657,0.2555162024919699,1.4353858011699574,21.66061339451968,-0.2694051853339552
1403636741863555584,39.72888,999.842682930109,10.215260416666666,-0.563882375,-2.89296175,-0.0265290046303138,0.0921533845053006,-0.0635299847725936,0.5285140738639057,21.96493097101486,0.11516679602902258
1403636742363555584,49.042463,821.3718883066833,9.275456458333332,0.0980665,-2.3944570416666666,0.0446804288510548,0.2122320370425104,0.1466076571675237,1.3104628525864481,22.803655348910702,0.8237020914458419
1403636742863555584,60.563803,1105.1017281173745,8.392857958333332,0.2533384583333333,-3.048233708333333,0.036302848441482,0.0628318530717958,0.1361356816555577,1.739560079263043,23.615558092628714,0.069186195504777
1403636743363555584,51.077127,859.3218785363916,10.435910041666666,-0.7681875833333334,-3.92266,0.0034906585039886,-0.0328121899374933,0.1975712713257581,1.9426980458300542,22.20350518043791,0.10397985163029233
1403636743863555584,60.647726,815.9550113762521,7.167026708333333,0.5557101666666666,-2.1983240416666665,-0.1207767842380075,0.1277581012459849,0.0272271363311115,1.430945626513744,22.756867613054876,0.0460498437358865
1403636744363555584,49.89624,814.8080311962316,8.262102624999999,0.6864655000000001,-4.135137416666667,-0.0523598775598298,0.0097738438111682,0.210835773640915,1.7545336626863448,22.89510149428003,-0.08892391325819204
1403636744863555584,49.712419,614.567481391108,9.324489708333331,0.5883989999999999,-2.476179125,-0.0293215314335047,-0.0523598775598298,-0.0600393262686049,0.9971216015143015,23.232948494991057,0.051131630242185366
1403636745363555584,49.608946,630.7429243800955,9.291800875,0.4086104166666666,-3.113611375,0.0663225115757845,0.1647590813882647,-0.1061160185212552,4.823642632140696,25.76618717298152,-0.03853308536150735
1403636745863555584,50.668717,570.6368095931828,9.36535075,0.3023717083333333,-3.652977125,-0.1410226035611418,0.0949459113084915,0.1026253600172665,5.998845548292777,25.3113033225635,-0.07903663397889105
1403636746363555584,49.43204,578.9921398643876,7.657359208333333,-0.2043052083333333,-2.8766173333333334,-0.0027925268031909,0.260403124397554,0.1165879940332212,3.5586046930916106,28.377402300716316,0.297682775600002
1403636746863555584,47.115088,558.9765490227076,7.510259458333333,0.392266,-2.9174783749999995,0.1438151303643327,0.0160570291183478,0.2359685148696333,1.1897968268191945,28.290254472560424,0.04146275991785586
1403636747363555584,38.871765,743.8185293806744,9.822994416666669,-0.3105439166666667,-3.669321541666666,-0.0642281164733913,0.0726056968829641,0.0774926187885482,3.5581144112890817,29.063619413068498,0.18581079015208601
1403636747863555584,60.621023,704.0950913180541,10.83634825,0.1634441666666666,-2.729517583333333,0.0481710873550434,0.0823795406941323,0.4153883619746504,3.8072418729878392,31.37965112027007,0.2918333502792336
1403636748363555584,41.112423,736.9740813301714,8.09048625,-0.83356525,-2.30456275,-0.1103048087260416,0.0767944870877505,-0.1843067690106012,2.966169813433738,32.96602483035483,-0.5025594777535076
1403636748863555584,60.435772,847.4856478684891,9.65955025,-0.416782625,-3.5957716666666664,-0.0314159265358979,0.1054178868204575,0.1766273203018261,3.6334871095364827,33.917669527323426,0.2493176630111975
1403636749363555584,39.154053,814.8043723288024,8.97308475,-0.1062387083333333,-4.437509125,-0.1123992038284348,-0.0390953752446729,-0.1151917306316257,3.6512064346354958,36.568692244595454,0.03187305957235509
1403636749863555584,49.247265,702.2767543819318,9.536967125,-0.3759215833333333,-3.023717083333333,0.0774926187885482,0.1626646862858715,0.1968731396249603,2.6048090437011084,36.904665053561246,0.2374401073447885
1403636750363555584,39.196491,927.7407440933406,11.408402833333332,0.1552719583333333,-3.7837324583333327,0.0670206432765822,-0.0565486677646162,0.0041887902047863,1.2569332252493064,37.866492534063624,-0.006948294832625379
1403636750863555584,49.99423,1043.998590072165,8.97308475,0.0408610416666666,-4.086104166666667,0.054454272662223,0.0579449311662117,0.0837758040957278,1.4832165992020068,38.477053123886904,-0.02582727145925645
1403636751363555584,34.218311,935.587326401714,9.741272333333333,-0.1062387083333333,-2.7867230416666664,0.0146607657167523,-0.0474729556542457,0.2234021442552742,2.5964310333658114,38.87377793442618,0.03331559438709775
1403636751863555584,61.293602,1046.4791920600592,9.07115125,0.122583125,-3.546738416666667,-0.0439822971502571,-0.0279252680319092,-0.1766273203018261,4.250377957041358,39.20536183482596,0.113657240740352
1403636752363555584,50.565958,651.0557497839609,10.2969825,-0.3595771666666666,-3.8899711666666654,0.2834414705238791,0.124965574442794,0.0,3.730484296486657,39.19542344517345,0.08207912317910626
1403636752863555584,49.906016,812.5386612993489,9.749444541666666,0.53936575,-2.7867230416666664,0.3797836452339661,-0.0230383461263251,-0.2143264321449036,3.140179863554214,41.20699990069468,-0.03629803578491675
1403636753363555584,39.093732,818.0836932526779,9.56148375,1.2830367083333332,-3.1544724166666662,0.4223696789826278,0.0698131700797731,-0.1514945790731078,1.0325166187296932,40.4661101566088,-0.2784453309111896
1403636753863555584,49.629927,1270.093954848541,7.542948291666666,0.1552719583333333,-3.342433208333333,-0.0432841654494593,0.0712094334813686,0.122173047639603,4.0157567149003075,37.95915353676272,0.06364635510829686
1403636754363555584,50.678492,1198.5261039354814,10.8853815,0.0081722083333333,-3.6202882916666654,0.0020943951023931,0.0230383461263251,0.0307177948351002,2.6150026256581733,36.35544521049424,-0.2037341408102975
1403636754863555584,60.137749,820.3170301738257,8.989429166666666,0.2288218333333333,-3.6284605,0.228987197861656,0.0160570291183478,-0.0041887902047863,2.6390817706454595,34.80996747102243,-0.06517120462932269
1403636755363555584,50.194025,641.5019626887324,8.87501825,-0.34323275,-4.118792999999999,-0.0439822971502571,-0.2143264321449036,0.1089085453244461,3.2076622273378743,35.011461941729344,-0.12287472845775937
1403636755863555584,50.373554,847.4387834516924,8.9240515,-0.2124774166666666,-2.0512242916666668,-0.0293215314335047,-0.0335103216382911,0.1312487597499735,3.4558086290653316,34.662348567054984,-0.15460171768350506
1403636756363555584,47.925949,840.1290706171983,7.265093208333333,-0.1389275416666666,-2.288218333333333,-0.0055850536063818,0.0195476876223364,0.0600393262686049,9.637105058996847,34.034129250305675,-0.10221906389340063
1403636756863555584,60.582876,838.167856253551,11.204097625,-0.1062387083333333,-4.143309625,-0.0216420827247296,-0.0314159265358979,0.093549647906896,4.782778712786545,32.77689832026899,0.10670473101072986
1403636757363555584,43.576479,744.4702424739701,9.471589458333332,0.1634441666666666,-2.557901208333333,0.0174532925199432,0.0041887902047863,0.0998328332140756,4.813281724632883,32.7387458750696,0.05197639526567599
1403636757863555584,46.081543,833.1854840397045,11.343025166666669,0.6782932916666666,-4.568264458333333,0.1521927107739055,-0.0691150383789754,0.1256637061435917,8.397536456763802,35.63643903429231,0.7883968122685516
1403636758363555584,49.897194,670.3706000443544,9.112012291666666,0.220649625,-2.034879875,0.0425860337486616,-0.0062831853071795,0.1298524963483781,11.253391552705146,42.63434355786151,0.850002846563406
1403636758863555584,50.728321,438.0030666609084,8.09048625,0.8989429166666666,-3.0073726666666665,-0.0223402144255274,0.361632221013225,-0.1130973355292325,5.9748519451322135,46.2721465870302,3.708513716967282
1403636759363555584,60.667277,661.4942740158438,7.984247541666667,0.2778550833333333,-3.178989041666666,-0.0781907504893459,-0.0104719755119659,-0.2876302607286655,17.949283006123025,61.54525524656036,-1.0667396923640027
1403636759863555584,50.465584,568.8969030315873,7.649186999999999,0.5475379583333333,-3.317916583333333,-0.007679448708775,-0.0600393262686049,0.1228711793404008,12.672478040398522,54.37969428615693,0.7535959632683742
1403636760363555584,64.166308,789.0133410152716,8.793296166666666,0.1144109166666666,-2.982856041666666,-0.0006981317007977,0.1996656664281513,-0.0041887902047863,7.2631800706945135,55.363385497214324,-0.3574326537917685
1403636760863555584,46.691656,688.0478177393572,7.191543333333333,0.5883989999999999,-2.1738074166666665,-0.0460766922526503,0.1891936909161853,-0.0314159265358979,6.7783826001210565,49.98350422341859,-0.31437163016757097
1403636761363555584,49.836159,421.645326533573,10.378704583333333,-0.63743225,-4.077931958333333,0.0272271363311115,0.1710422666954443,0.1082104136236484,9.767235591866742,51.026840722214274,-0.344373110709725
1403636761863555584,59.623719,727.7883522574476,10.329671333333332,0.0408610416666666,-4.26589275,-0.0307177948351002,-0.0614355896702004,0.0460766922526503,8.806964798852745,45.14747390794452,-0.3828109900002872
1403636762363555584,46.199083,497.88435880795424,7.199715541666666,0.122583125,-1.9776744166666664,0.0425860337486616,-0.2143264321449036,0.2178170906488923,4.303483411732395,44.07355188856308,0.07122678018399142
