stamp,img_delta,blur,lin_acc.x,lin_acc.y,lin_acc.z,ang_vel.x,ang_vel.y,ang_vel.z,rpe,ate,drift
1403638520027829504,50.429821,310.39798959199703,9.062979041666669,-0.0572054583333333,-3.832765708333333,0.0,0.0244346095279206,0.0740019602845595,0.0777510840653084,246.70999787782063,-0.0052130321915058175
1403638520527829504,51.083327,310.7887182679509,8.989429166666666,-0.0326888333333333,-3.8245935,-0.0048869219055841,0.018151424220741,0.0781907504893459,0.02000921993556622,246.70128296876945,-0.0024491187060675657
1403638521027829504,49.046278,311.26984878235345,9.103840083333331,0.0163444166666666,-3.857282333333333,0.0041887902047863,0.0188495559215387,0.0767944870877505,0.020538592715523298,246.71299902630105,-0.0023313313619723885
1403638521527829504,50.014496,313.850329457211,9.152873333333332,-0.3105439166666667,-3.759215833333333,0.0104719755119659,0.0342084533390888,0.1277581012459849,0.048851273269151,246.7345471077977,-0.0002414249723017292
1403638522027829504,55.339575,302.833192179012,9.577828166666666,0.0326888333333333,-4.274064958333334,-0.0300196631343024,-0.0509636141582344,0.0013962634015954,0.07524558676794507,246.86768623791306,0.04434334893068126
1403638522527829504,48.987388,184.74801981205127,9.144701125,-0.5720545833333333,-3.4813607499999994,0.1591740277818828,-0.0998328332140756,0.2520255439879811,18.051011853009655,243.6180046538396,-0.12163851955986615
1403638523027829504,39.200782,345.7369985065237,7.436709583333332,-0.7109821249999999,-2.778550833333333,-0.0216420827247296,0.1047197551196597,0.0621337213709981,25.502988915080138,240.80469710614145,-0.0027663931740562475
1403638523527829504,42.320728,138.0429960205361,8.907707083333333,-0.5066769166666666,-3.178989041666666,-0.0621337213709981,-0.3274237676741362,-0.0621337213709981,6.004854346450058,244.45181025940457,0.6787567023881707
1403638524027829504,33.395529,156.41829245453778,11.506469333333332,0.0,-4.527403416666666,-0.0062831853071795,-0.124965574442794,-0.1207767842380075,21.500742323618336,250.406238449952,0.32165537830374547
1403638524527829504,49.596548,116.5173524229112,8.621679791666667,-0.196133,-3.38329425,0.0013962634015954,0.3448770601940795,0.0984365698124801,18.880715042389248,248.4469331523181,-0.4030466866733491
1403638525027829504,37.953377,951.3977832528516,6.946377083333333,0.0980665,-2.190151833333333,-0.0439822971502571,0.0914552528045028,-0.046774823953448,17.921791589520513,244.74156316684565,-0.08788834438192339
1403638525527829504,48.692704,117.35809710941112,9.749444541666666,-0.1879607916666666,-4.208687291666666,0.0767944870877505,-0.2764601535159017,0.1647590813882647,20.67572795432107,247.4844316179793,1.110960179823195
1403638526027829504,37.775994,288.98112845770106,9.586000375,1.1359369583333332,-4.339442625,-0.0928515162060983,-0.054454272662223,0.0872664625997164,16.99421672986465,249.23135779587065,0.44371362772361067
1403638526527829504,50.027132,191.36122497214757,8.785123958333333,0.5230213333333333,-3.505877375,-0.1368338133563554,0.210835773640915,0.2408554367752175,19.351724629824947,265.4217650745506,2.352250715998423
1403638527027829504,60.212373,188.93369260981476,9.504278291666663,-0.6292600416666666,-3.293399958333333,-0.3183480555637657,-0.153588974175501,0.1989675347273535,31.956527028615273,294.1714861723971,2.7435423398688954
1403638527527829504,60.977459,602.6385062747416,8.842329416666665,-2.01036325,-3.293399958333333,-0.0523598775598298,0.028623399732707,0.0593411945678072,16.85635884839544,308.2749181323,-0.41537531786968884
1403638528027829504,39.150477,299.8829778037477,8.548129916666667,-0.0735498749999999,-3.391466458333333,0.2073451151369263,0.0844739357965255,0.0474729556542457,24.511991136464957,289.75054650551766,-2.7239643491812444
1403638528527829504,34.374475,319.9799534234847,9.455245041666666,0.34323275,-3.162644625,-0.0907571211037051,-0.0593411945678072,0.1570796326794896,25.748650268567964,269.0288683633691,-1.2690599990437477
1403638529027829504,49.185037,554.494570674264,8.458235625,-1.1359369583333332,-4.380303666666666,-0.0712094334813686,0.0013962634015954,0.0719075651821663,9.59184275017226,262.9169747187749,-0.3810892900060594
1403638529527829504,50.230741,114.63859308785712,9.185562166666664,0.7109821249999999,-3.366949833333333,0.0502654824574366,-0.3413864016900908,0.0237364778271228,15.500777993989756,261.2401042205023,0.8966616461680132
1403638530027829504,49.031019,258.57024567216814,9.283628666666663,0.4739880833333333,-3.7919046666666665,0.0027925268031909,-0.0502654824574366,0.0872664625997164,41.926030061000525,276.84189418482714,1.3382196523635912
1403638530527829504,37.855387,223.72993738989055,8.825985,0.1470997499999999,-4.388475875,-0.0530580092606276,0.0062831853071795,0.1158898623324234,10.676373109622473,274.23927085014657,-1.6505885275358878
1403638531027829504,50.734759,203.09157247155463,10.068160666666666,-0.0653776666666666,-4.944186041666666,-0.0062831853071795,0.1256637061435917,0.0069813170079773,2.120873277902613,276.40830107588755,0.15258730007207078
1403638531527829504,50.230741,225.9756593786173,8.981256958333333,0.2124774166666666,-4.094276375,0.0006981317007977,0.018151424220741,0.0376991118430775,4.495592151278373,279.2919526191603,0.07526072257036276
1403638532027829504,37.434816,228.4066198905153,9.013945791666666,0.0898942916666666,-3.8899711666666654,0.0,0.018151424220741,0.0370009801422797,0.4519578086426558,278.94690451744316,0.0246089990033056
1403638532527829504,50.851345,230.6454595330191,8.981256958333333,0.1307553333333333,-3.930832208333333,0.0069813170079773,0.0167551608191455,0.0907571211037051,0.04296589572178412,278.9369846617458,-0.013869919152057264
1403638533027829504,48.788309,229.80130775155015,9.005773583333333,0.1389275416666666,-3.963521041666666,-0.0034906585039886,0.0223402144255274,0.0684169066781777,0.027920238567050303,278.93861408071183,-0.007903851569096787
1403638533527829504,49.546004,230.5678476925193,8.915879291666666,0.1797885833333333,-3.87362675,-0.0041887902047863,0.0237364778271228,0.0851720674973232,0.04638601274555568,278.9067722313731,-0.002466157835442573
1403638534027829504,66.259623,228.0710447824268,10.059988458333333,-0.7600153749999999,-4.519231208333333,0.0300196631343024,-0.0202458193231342,0.0844739357965255,0.6138381144833899,279.4255370193679,-0.12103155601539584
1403638534527829504,60.843944,226.2220145900517,9.553311541666666,-0.2124774166666666,-4.347614833333333,0.0823795406941323,-0.0006981317007977,0.0760963553869527,0.1411423637254518,279.5109294413926,-0.12632408186857447
1403638535027829504,61.95736,228.63426173817103,9.054806833333332,0.0163444166666666,-3.898143375,0.0307177948351002,0.0216420827247296,0.0460766922526503,0.1173886042981685,279.43130397766396,0.0010924815193789073
1403638535527829504,49.110889,229.1105371288928,8.752435125,0.196133,-3.8899711666666654,-0.0020943951023931,0.0195476876223364,0.0677187749773799,0.024908949350392905,279.44901645867094,-0.004130401091231306
1403638536027829504,48.951865,227.4465361516993,9.430728416666666,0.3023717083333333,-4.159654041666666,-0.0083775804095727,0.0376991118430775,0.1110029404268393,0.07978408217299279,279.5015966314291,0.01632628868617303
1403638536527829504,50.631761,229.91561204381367,9.16921775,-0.2124774166666666,-3.963521041666666,-0.0090757121103705,0.0223402144255274,0.08307767239493,0.014809213547894764,279.5132900021176,0.03223672476701722
1403638537027829504,66.57672,228.9929044121038,9.161045541666669,-0.4739880833333333,-3.92266,0.0083775804095727,0.0300196631343024,0.1123992038284348,0.0519016079492463,279.5248163199722,-0.001219844481624932
1403638537527829504,48.916816,226.76336898856675,9.430728416666666,0.24516625,-4.192342875,-0.0104719755119659,0.0502654824574366,0.08307767239493,0.03261614048922185,279.5496605923988,0.045200674330260426
1403638538027829504,49.95966,221.86540010904224,9.855683249999998,-0.220649625,-4.4211647083333325,0.0083775804095727,0.0851720674973232,0.0886627260013119,0.10679578886462583,279.5488405839393,0.0010368141519165874
1403638538527829504,50.049305,223.89485554367545,8.172208333333334,-0.2533384583333333,-3.391466458333333,-0.0223402144255274,0.0223402144255274,0.0886627260013119,0.14750565007836858,279.53283473847637,-0.011877957828119179
1403638539027829504,49.725055,173.55937492926668,11.42474725,0.367749375,-4.314926,-0.0349065850398865,0.3029891581462156,0.1158898623324234,9.882247282133132,279.07150814611293,0.5556687911878271
1403638539527829504,43.431044,216.29077365718484,9.75761675,-0.318716125,-3.563082833333333,0.0265290046303138,0.0097738438111682,0.0774926187885482,58.43349662334594,290.60382375436467,3.8313152033426263
1403638540027829504,50.657988,340.9150113525821,8.842329416666665,0.6946377083333333,-2.9256505833333333,0.0027925268031909,-0.1452113937659282,0.0,20.82882596905816,296.2826762458163,0.5389505307204558
1403638540527829504,46.824455,1051.0662326128245,10.354187958333334,-0.0735498749999999,-3.9390044166666662,0.239459173373622,0.0202458193231342,-0.0551524043630208,24.63305790696823,312.9129363266246,1.2515063329321947
1403638541027829504,61.003208,876.7744906175433,10.256121458333332,-0.6537766666666667,-2.8766173333333334,0.4523893421169302,0.0537561409614253,-0.0146607657167523,17.751226971750466,325.3330828927892,1.2404962607449193
1403638541527829504,52.381038,902.4445078683788,9.242767625,0.44129925,-3.5957716666666664,0.0279252680319092,0.0188495559215387,0.0523598775598298,22.88942910649224,341.424292657503,1.0989017990190746
1403638542027829504,49.962044,568.9708048532997,9.80665,0.0081722083333333,-3.849110125,0.4712388980384689,-0.0726056968829641,-0.0328121899374933,37.716433709632796,348.2981866698711,0.008914475618837514
1403638542527829504,49.881935,391.9386463224496,10.730109541666666,0.465815875,-4.257720541666666,0.1654572130890624,0.3532546406036522,-0.3120648702565861,31.645682055290553,349.90552697985277,0.21629782645072737
1403638543027829504,49.826383,307.10803076535365,9.422556208333331,0.220649625,-3.734699208333333,-0.0118682389135614,-0.0376991118430775,0.1745329251994329,33.37843427834366,343.62155807913706,-1.9700956886635481
1403638543527829504,49.982786,289.06025958971725,9.373522958333332,0.8662540833333333,-3.162644625,0.2597049926967562,0.0579449311662117,-0.0551524043630208,36.59344097363606,334.1111696100387,0.44764076053360213
1403638544027829504,58.26807,239.63810595771284,9.65955025,0.4249548333333333,-3.7837324583333327,0.3797836452339661,-0.0984365698124801,0.0893608577021096,38.80566015373044,320.9007515601029,-1.773059470902524
1403638544527829504,38.814783,574.7502101738437,10.043644041666663,0.7273265416666667,-3.6284605,-0.018151424220741,0.0230383461263251,0.0586430628670094,33.406079093447545,304.34427134861306,-1.0652477933247155
1403638545027829504,49.979687,731.3703634795904,8.687057458333333,-0.4903325,-2.9174783749999995,0.0307177948351002,0.085870199198121,0.0900589894029074,28.38052930717686,289.0517079992006,-1.0884396512199714
1403638545527829504,39.421559,816.3300763448464,9.692239083333332,-0.2860272916666666,-2.705000958333333,0.1710422666954443,-0.0397935069454707,0.0055850536063818,20.35620487587518,285.1590898979122,-0.45253963836989897
1403638546027829504,52.2995,796.7134791638849,9.814822208333332,0.3350605416666666,-3.514049583333333,0.4105014400690662,-0.0376991118430775,-0.1947787445225671,21.633266911582176,279.65259742264845,-1.0306522108085119
1403638546527829504,50.338983,1151.5031793456956,10.158054958333333,-0.318716125,-4.976874874999999,0.0607374579694026,-0.018151424220741,-0.0635299847725936,18.896076178407732,274.3106196134083,-0.25912759805373753
1403638547027829504,61.106682,1118.3039987537588,7.755425708333333,-1.2176590416666666,-3.1544724166666662,-0.0153588974175501,-0.0411897703470661,-0.0314159265358979,26.66210991177349,256.81381838240657,-0.6634033464828804
1403638547527829504,50.026893,1006.4860951878076,9.684066875,-0.5883989999999999,-3.2361945,0.0418879020478639,-0.036302848441482,0.2136283004441059,32.98201423771017,248.87658397614234,-0.04865112375028957
1403638548027829504,37.149429,943.9928800140052,10.83634825,-0.171616375,-4.0615875416666665,0.0907571211037051,-0.0090757121103705,0.1075122819228507,48.18344627188598,239.88596188219296,1.1449117942583484
1403638548527829504,56.200981,673.2493410881415,9.471589458333332,-0.1634441666666666,-3.3506054166666663,0.2548180707911721,-0.0356047167406843,0.0,45.763033185642975,254.15619086619446,2.1238636147222962
1403638549027829504,38.566589,749.4396621410989,9.961921958333331,0.3105439166666667,-3.1217835833333334,0.0020943951023931,-0.0062831853071795,0.1919862177193762,48.76778439742406,279.124745799384,3.1156937957139803
1403638549527829504,34.805536,738.8311981816635,8.458235625,-0.63743225,-3.268883333333333,-0.0104719755119659,0.0530580092606276,0.1179842574348166,56.553716428831414,312.4843344749629,3.9253764475811295
1403638550027829504,49.753427,842.6393741961372,9.724927916666667,0.367749375,-2.819411875,-0.0314159265358979,-0.0376991118430775,0.0425860337486616,59.046322664495435,354.58450587935295,4.5206592014473586
1403638550527829504,50.277472,613.1715752246298,8.605335375,0.7518431666666666,-2.778550833333333,0.0495673507566389,0.1214749159388053,0.1843067690106012,65.75400603006841,402.74337499323957,5.061804998658317
1403638551027829504,35.034657,599.1098265733898,8.866846041666665,0.6701210833333332,-3.4568441249999995,-0.0020943951023931,0.182212373908208,0.0502654824574366,61.201542026953824,450.32834672834935,4.383094742267872
1403638551527829504,49.386978,489.0524591227163,10.190743791666666,-0.196133,-3.685665958333333,-0.3567452991076409,0.057246799465414,0.3755948550291797,51.02243483674114,487.5024369313932,2.867940136881316
1403638552027829504,50.61531,495.9047885521192,11.016136833333332,-0.196133,-4.143309625,-0.2527236756887789,0.085870199198121,0.0195476876223364,38.44319473074424,504.11521007947596,0.37181019871292165
1403638552527829504,49.778224,628.3139404809876,10.73828175,-0.1144109166666666,-3.08909475,0.0174532925199432,0.122173047639603,0.0977384381116824,63.94240620922233,519.1245185219722,0.14797225612926468
1403638553027829504,39.649964,759.260379091747,8.3356525,0.8417374583333332,-2.631451083333333,0.0055850536063818,0.0698131700797731,-0.0991347015132779,50.4848416271398,512.9706478298539,-1.401154373464692
1403638553527829504,54.034949,714.9046647076395,10.051816249999998,-0.5802267916666666,-4.944186041666666,-0.0488692190558412,0.0628318530717958,-0.0474729556542457,53.15010635784708,495.94511850885465,-2.3892636428609535
1403638554027829504,49.862384,747.665305305797,10.574837583333332,-0.5066769166666666,-4.175998458333333,0.0167551608191455,-0.1061160185212552,0.0677187749773799,53.648390488477915,469.4405817241738,-3.4638308383914023
1403638554527829504,42.225599,891.9063602477713,7.518431666666666,1.569064,-1.201314625,0.0600393262686049,0.0691150383789754,0.1500983156715123,50.73572822518817,435.78209298493294,-3.6781860764119187
1403638555027829504,50.021649,751.7987067472543,10.059988458333333,0.3595771666666666,-3.0318892916666664,-0.1521927107739055,-0.0083775804095727,0.1445132620651305,47.0913785563985,406.0532309754526,-2.490548380103178
1403638555527829504,49.901009,843.8627752058262,9.161045541666669,-0.5066769166666666,-4.290409374999999,-0.1047197551196597,0.0244346095279206,-0.0439822971502571,49.50699481771289,375.0061994784256,-3.0685314391815837
1403638556027829504,50.223112,967.5456143155706,7.485742833333332,0.0817220833333333,-1.830574666666667,-0.0279252680319092,-0.0418879020478639,0.0537561409614253,50.49794601056688,348.4023188247916,-2.0953810003085778
1403638556527829504,41.419029,962.950110191152,8.907707083333333,-0.6456044583333332,-2.803067458333333,-0.0125663706143591,-0.0055850536063818,0.1054178868204575,49.371633156201156,329.58150185239623,-1.2227806938005301
1403638557027829504,57.953119,899.2017314854359,7.542948291666666,0.2124774166666666,-2.778550833333333,-0.0495673507566389,-0.0300196631343024,-0.0062831853071795,52.01121814496038,323.34432519281336,-0.029865915897801187
1403638557527829504,49.703121,775.2025711380466,9.5124505,0.2533384583333333,-4.233203916666667,-0.0153588974175501,0.0188495559215387,-0.0502654824574366,61.1474614979167,324.9881850873241,0.5925040578739527
1403638558027829504,41.055441,909.9119041417086,7.828975583333331,0.269682875,-3.1054391666666663,-0.0097738438111682,-0.1054178868204575,0.1500983156715123,63.56181121074057,337.7958833754189,1.7119775418449876
1403638558527829504,40.060758,898.5983152038568,12.192934833333334,0.0081722083333333,-2.803067458333333,0.0132645023151569,-0.057246799465414,0.1752310569002306,58.6600018520726,357.6144335240978,3.204817485550052
1403638559027829504,58.980227,584.5033597976504,8.752435125,-0.0572054583333333,-3.064578125,-0.0349065850398865,0.161268422884276,0.0474729556542457,61.639638718502695,396.673767076875,4.238240689782572
1403638559527829504,60.916663,590.3616618882044,9.496106083333332,0.4903325,-3.6448049166666654,-0.0111701072127637,0.0090757121103705,0.0020943951023931,63.27092658270903,437.1976671666712,3.8198259201515157
1403638560027829504,49.664974,456.9628102748157,7.142510083333334,-0.784532,-2.5905900416666663,-0.3183480555637657,0.0397935069454707,0.2268928027592628,58.52021279472236,477.4102564110243,3.8626546159553072
1403638560527829504,42.48333,321.0502297871554,8.646196416666667,-0.4903325,-3.08909475,-0.5703735995517468,0.1103048087260416,0.478918346747244,51.81288163553336,510.5939929862926,2.73640061485429
1403638561027829504,51.725865,359.7287838958944,11.2776475,-0.9234595416666666,-4.494714583333333,-0.4726351614400644,0.1996656664281513,0.2387610416728242,43.080361989905306,536.3628357003602,2.507420963008144
1403638561527829504,36.688805,495.39342124144974,7.681875833333333,-0.6292600416666666,-2.1166019583333333,-0.1130973355292325,-0.114493598930828,-0.0167551608191455,35.46557995919984,553.2308837455367,1.0944609614620049
1403638562027829504,49.651146,499.05426679708,10.4931155,0.0163444166666666,-4.314926,-0.2143264321449036,0.0202458193231342,0.2059488517353309,37.55768186303776,561.7375985512372,0.5845635700563889
1403638562527829504,41.79573,464.6756565160652,8.433719,0.956148375,-2.231012875,-0.3658210112180114,0.1424188669627373,0.2778564169174973,33.15007734931021,566.955991029054,0.7581853824113978
1403638563027829504,39.595842,526.0860010700676,9.569655958333334,-0.4821602916666666,-3.2035056666666666,-0.4098033083682685,0.0642281164733913,0.3518583772020568,30.634626635029665,567.6017089658299,-0.17300282438134218
1403638563527829504,42.431831,639.777869014599,8.907707083333333,-0.1879607916666666,-3.0400615,-0.0719075651821663,0.0097738438111682,-0.0314159265358979,40.434099948430514,559.9374753549384,-1.422425768000494
1403638564027829504,51.113128,648.9119295019907,10.019127416666668,-0.8662540833333333,-2.9256505833333333,0.08307767239493,0.0251327412287183,0.1096066770252439,50.77585184230232,540.5111758020604,-2.3895675025113405
1403638564527829504,49.669742,498.9268782064563,9.030290208333332,0.4576436666666666,-3.309744375,0.1151917306316257,-0.0600393262686049,0.0628318530717958,65.25029991095307,514.5025253401056,-3.0312004008270605
1403638565027829504,51.274777,380.26040231361935,6.709383041666666,-0.024516625,-1.5445473749999998,0.0,0.0390953752446729,0.0747000919853573,79.8938635619891,479.2465052385904,-4.140293955979757
1403638565527829504,41.002512,292.8894141781708,10.828176041666667,-0.0408610416666666,-3.2035056666666666,-0.0907571211037051,0.0418879020478639,-0.018151424220741,104.69844174489857,436.89685399599335,-3.7777004437130017
1403638566027829504,57.925939,299.02687134561927,9.398039583333333,-0.4086104166666666,-2.729517583333333,-0.0307177948351002,0.0914552528045028,-0.0328121899374933,111.34062356796765,399.5808698339417,-3.4023494616890275
1403638566527829504,50.542117,622.7748917263083,6.995410333333333,-0.220649625,-2.8766173333333334,0.025830872929516,-0.1891936909161853,0.0272271363311115,116.19234591815302,359.74782674652755,-4.3566158398047605
1403638567027829504,50.73595,533.7368817719138,11.91507975,0.3350605416666666,-4.895152791666666,0.0670206432765822,0.5941100773788698,0.0865683308989187,120.77680777686486,315.3975808519124,-4.055670339630353
1403638567527829504,49.512863,401.5546634186975,10.672904083333334,0.220649625,-4.396648083333333,-0.0523598775598298,-0.1319468914507713,0.0823795406941323,114.98985196810658,279.6357512230873,-3.3542483424744773
1403638568027829504,38.748503,602.3450601905847,10.117193916666666,-1.372931,-4.314926,-0.0558505360638185,0.0488692190558412,-0.0097738438111682,93.08867630338058,255.0022028793778,-1.8657114226097349
1403638568527829504,38.549662,619.3986539290797,9.430728416666666,-0.196133,-2.557901208333333,-0.0097738438111682,-0.0013962634015954,0.0300196631343024,69.45949954707635,244.9770176876311,-0.9348353002699525
1403638569027829504,50.12083,767.343078198797,8.360169125,-0.63743225,-2.378112625,-0.0216420827247296,0.0048869219055841,0.0328121899374933,50.86067688428299,238.72034398653645,-0.3215166417443527
1403638569527829504,49.970388,756.4801419826676,7.959730916666666,-0.5311935416666667,-2.312734958333333,0.0,0.0865683308989187,0.0767944870877505,28.088743109956038,237.58817697686686,-0.02404857157864626
1403638570027829504,49.875259,906.888073412652,8.572646541666666,-0.318716125,-3.4568441249999995,0.0349065850398865,0.0893608577021096,0.1137954672300302,8.990446271700769,236.86595738208715,0.016544091513424064
1403638570527829504,49.622297,636.3405460393931,7.959730916666666,1.2340034583333332,-2.770378625,-0.1954768762233649,0.1277581012459849,0.6122615015996108,9.418751556642292,233.90310499488822,-0.5152892046229454
1403638571027829504,60.598374,460.0073855914556,9.079323458333333,0.7600153749999999,-3.832765708333333,-0.5249950389998943,0.0230383461263251,0.1459095254667259,22.84095348274115,228.65746437471537,-0.4767366485805269
1403638571527829504,49.494028,614.3598746473938,9.855683249999998,-0.318716125,-2.4843513333333336,-0.1556833692778942,0.0509636141582344,0.114493598930828,45.92956207794068,227.21347557897107,0.3597511491443868
1403638572027829504,49.292803,451.15842937996194,9.831166624999998,-0.7681875833333334,-4.707191999999999,-0.3658210112180114,-0.028623399732707,0.3567452991076409,60.41779765571332,231.05983254433912,0.6845337454782339
1403638572527829504,50.440788,412.1798750889248,10.672904083333334,-0.7763597916666666,-2.999200458333333,-0.249931148885588,0.0774926187885482,0.085870199198121,75.80277605575478,240.53220185994942,1.1908419827526302
1403638573027829504,48.885107,575.33330309086,9.144701125,0.4004382083333333,-4.870636166666666,0.054454272662223,-0.0055850536063818,0.0153588974175501,78.46060346897235,256.54520014366943,1.9487344723961257
1403638573527829504,60.429096,454.2556550458305,10.648387458333334,0.6292600416666666,-2.941995,-0.0321140582366956,-0.007679448708775,0.1103048087260416,74.63068997876537,275.9161107301536,2.1695793728359263
1403638574027829504,48.851013,187.46477378279175,7.706392458333333,0.269682875,-2.8357562916666668,-0.3567452991076409,0.2143264321449036,0.5696754678509492,79.81752832701243,296.42288841295164,1.808914047587507
1403638574527829504,64.867735,215.38426138158,9.022118,-0.44129925,-3.195333458333333,-0.4049163864626844,0.1277581012459849,0.1424188669627373,66.32836451766995,311.2014503843397,1.0349553120732935
1403638575027829504,60.963393,357.53152786753765,9.447072833333332,-0.024516625,-4.355787041666666,0.0635299847725936,-0.0872664625997164,0.3050835532486088,66.64628241821087,320.53021816937695,0.561160231871952
1403638575527829504,48.987627,303.21296249377366,8.785123958333333,0.0081722083333333,-3.4404997083333333,-0.0404916386462684,-0.0907571211037051,-0.0914552528045028,59.46382898808048,322.0212490409643,0.7517364039948689
1403638576027829504,48.368216,211.0361729767013,8.474580041666666,0.5883989999999999,-4.4211647083333325,-0.0376991118430775,0.0998328332140756,0.025830872929516,78.92940656252789,313.2737310663432,-2.111305792879932
1403638576527829504,64.947366,210.72124334995863,8.065969625,-0.3105439166666667,-3.87362675,-0.0425860337486616,0.0237364778271228,0.0139626340159546,110.43505225616094,273.5496673837382,-5.889104485444591
1403638577027829504,50.521612,231.3153862355712,9.700411291666663,0.4331270416666666,-3.211677875,0.0321140582366956,0.093549647906896,0.2157226955464991,97.87779438110815,212.53760947434435,-6.911544670619293
1403638577527829504,50.098181,240.7761099808432,7.077132416666666,-0.1797885833333333,-2.729517583333333,-0.0160570291183478,-0.0139626340159546,0.0635299847725936,100.54268078028895,152.3364962983337,-5.916334968933398
1403638578027829504,35.17723,233.13991000161909,9.65955025,0.5883989999999999,-4.053415333333333,0.0488692190558412,0.0579449311662117,0.1500983156715123,94.44637246728183,125.81322628038893,0.4211038945614689
1403638578527829504,49.127102,243.8001481554199,9.103840083333331,-0.5557101666666666,-4.2822371666666665,-0.0097738438111682,0.0160570291183478,0.1438151303643327,94.19736006973633,161.36150625863667,5.181724316599684
1403638579027829504,49.517631,236.28827999730723,9.80665,-0.1552719583333333,-3.38329425,0.0335103216382911,0.0293215314335047,0.1137954672300302,67.52065644831103,221.85352089047393,6.6631191448233835
1403638579527829504,35.547734,195.68346825169044,7.755425708333333,-0.2860272916666666,-3.6284605,0.0747000919853573,0.1947787445225671,0.0656243798749867,69.59090452245322,282.1802788765334,7.797264840087166
1403638580027829504,50.60196,126.25088482940166,7.698220249999999,0.2124774166666666,-1.91229675,0.7791149780902686,0.2136283004441059,-0.2178170906488923,30.69408804671983,313.74994501856605,1.739570333852555
1403638580527829504,72.54529,140.18020231024465,9.675894666666666,-0.024516625,-3.77556025,0.4600687908257052,-0.0230383461263251,0.1312487597499735,19.414394000944327,319.6468297507111,0.2713341129966693
1403638581027829504,49.704551,197.42868449304615,10.354187958333334,0.4821602916666666,-3.1217835833333334,0.0495673507566389,-0.018151424220741,-0.0111701072127637,19.728796656455145,327.6072193083474,1.097813038185791
1403638581527829504,50.090075,194.1238883502148,8.793296166666666,0.04903325,-3.097266958333333,-0.0844739357965255,0.0565486677646162,0.0551524043630208,23.60004236007038,336.3526374207277,0.6106528949722474
1403638582027829504,63.373089,212.20226919110968,8.948568125,0.1879607916666666,-4.453853541666667,-0.0048869219055841,-0.1151917306316257,0.0404916386462684,18.32405524158989,337.9624749424297,0.15785401381873498
1403638582527829504,50.207138,215.39195967360777,11.473780499999998,0.1879607916666666,-4.184170666666667,-0.0223402144255274,0.018151424220741,0.0586430628670094,15.724768486708568,333.295897490065,-0.7883109230929222
1403638583027829504,60.097694,226.4556264057028,7.420365166666667,0.2941994999999999,-3.8409379166666655,-0.0132645023151569,-0.0495673507566389,0.1340412865531645,26.993974994266047,321.331067624606,-1.3668340810549466
1403638583527829504,50.155402,225.94869319914417,9.553311541666666,-0.122583125,-2.508867958333333,-0.0027925268031909,0.093549647906896,0.0684169066781777,19.43246472729522,308.1183678592739,-1.4803746652431755
1403638584027829504,50.004244,200.0950506642146,10.117193916666666,0.4086104166666666,-3.178989041666666,-0.0537561409614253,0.189891822616983,0.0579449311662117,23.005474860385267,290.4095764270428,-1.918352707663587
1403638584527829504,49.052,214.08056783856992,11.285819708333332,0.93163175,-5.385485291666667,0.0558505360638185,0.025830872929516,0.0942477796076938,25.553887021036687,268.1667530243298,-2.46659317423655
1403638585027829504,39.417505,201.09322888714095,8.074141833333334,0.2288218333333333,-1.8632635,-0.0621337213709981,0.0600393262686049,0.0551524043630208,31.915310055131417,243.32193590650223,-2.6482236221718836
1403638585527829504,49.681664,206.83793458983027,9.414383999999998,0.4249548333333333,-2.280046125,0.0006981317007977,-0.1305506280491758,0.0956440430092892,34.05128711536493,219.92939915320125,-2.1746507621290903
1403638586027829504,40.631294,173.7356667833322,8.041452999999999,0.465815875,-2.868445125,-0.0593411945678072,0.1759291886010284,0.0719075651821663,36.18179898071575,196.5994742162735,-2.2319505374257744
1403638586527829504,48.886776,202.28405052761065,9.36535075,0.3105439166666667,-2.378112625,0.007679448708775,0.0104719755119659,0.0788888821901436,35.642946362784336,174.2138283521507,-2.144701238022037
1403638587027829504,37.117481,203.21072647308097,9.75761675,-0.416782625,-4.175998458333333,-0.0062831853071795,-0.018151424220741,0.1151917306316257,40.26878844767483,157.35090489478046,-1.3769531186950417
1403638587527829504,50.022602,191.32120093989627,8.915879291666666,-0.2615106666666666,-2.378112625,-0.0495673507566389,-0.0293215314335047,0.1151917306316257,42.438349828677296,146.43665739947213,-0.8622597594900583
1403638588027829504,39.326668,215.0215891603073,8.164036124999999,0.3595771666666666,-3.113611375,-0.0118682389135614,-0.0223402144255274,-0.0020943951023931,42.63000052352538,144.45593172421704,0.34497846212045147
1403638588527829504,36.475181,221.7955562928219,10.525804333333332,0.5883989999999999,-3.8245935,0.0307177948351002,-0.0027925268031909,0.2024581932313422,43.771084957579845,151.19797285151998,1.0002467072896195
1403638589027829504,60.889006,237.98136860179127,8.057797416666666,0.5720545833333333,-2.10842975,-0.0090757121103705,0.0230383461263251,0.0705113017805709,46.01017320584233,162.34648050333965,1.8292213861183484
1403638589527829504,53.064347,242.6183409135614,9.7085835,-0.4331270416666666,-3.28522775,-0.0237364778271228,-0.0593411945678072,0.057246799465414,59.36804265479745,170.05685665246077,-4.895855382262283
1403638590027829504,49.129247,249.32911262870243,8.466407833333333,0.63743225,-4.274064958333334,-0.0530580092606276,-0.0663225115757845,0.0488692190558412,40.893910131394705,202.02075194932019,3.1253800641386817
1403638590527829504,49.768448,240.3462970683563,11.285819708333332,0.4004382083333333,-3.505877375,-0.0265290046303138,-0.0509636141582344,0.1193805208364121,44.285697391663604,235.94490886902736,3.390992506318696
1403638591027829504,49.812079,272.9537534855523,9.610517,-0.392266,-3.546738416666667,0.0055850536063818,-0.0719075651821663,0.0740019602845595,40.59765929030424,268.8852737060668,3.0112289703786814
1403638591527829504,50.207615,251.40573599980436,6.366150291666666,0.1307553333333333,-1.6998193333333331,-0.0167551608191455,-0.1179842574348166,0.1500983156715123,35.03084346656182,294.0038266070856,2.168901986419314
1403638592027829504,37.946701,276.8343637747319,9.978266375,0.2369940416666666,-2.966511625,0.0041887902047863,0.0949459113084915,0.0921533845053006,27.94979475156858,306.48390585710683,0.5650049435470805
1403638592527829504,50.186634,257.64406197096565,10.059988458333333,-0.4985047083333333,-4.16782625,0.2415535684760151,-0.1731366617978375,-0.1061160185212552,28.1109844980883,306.01933528133685,-0.22163658253458607
1403638593027829504,60.652733,320.34832214529695,7.50208725,0.196133,-3.0564059166666664,0.0216420827247296,-0.0342084533390888,0.0928515162060983,30.10164704870453,300.36991315442094,-0.8367525777867968
1403638593527829504,50.667047,302.9390200872361,7.534776083333333,0.7191543333333333,-2.6641399166666666,-0.0223402144255274,0.1801179788058148,0.0279252680319092,32.76748898824432,287.4260274027381,-1.2579488649159885
1403638594027829504,52.82712,350.83407295225896,9.275456458333332,0.0408610416666666,-3.742871416666666,0.1089085453244461,-0.2010619298297467,0.0767944870877505,29.799181023288718,278.12922670900974,-0.48184048369097354
1403638594527829504,48.726081,357.6165308476717,8.850501625,0.1307553333333333,-3.211677875,0.0432841654494593,0.0034906585039886,0.1319468914507713,25.16030131425659,280.4578502009216,0.7561624088324947
1403638595027829504,62.092066,447.4064863956901,9.733100125,-0.4821602916666666,-2.941995,-0.0565486677646162,-0.0537561409614253,0.0942477796076938,25.183600913010608,291.20189537616653,1.1723540736771838
1403638595527829504,39.104223,453.4146098619597,8.858673833333333,0.4903325,-2.770378625,0.0006981317007977,-0.0446804288510548,0.0851720674973232,12.714676282688034,301.72159809384607,0.9661242551911187
1403638596027829504,34.853458,377.4357596202042,8.662540833333333,-0.1552719583333333,-3.2770555416666665,-0.153588974175501,0.0628318530717958,-0.1682497398922533,12.072442409152586,311.8281611275342,0.947256933939741
1403638596527829504,44.828177,408.3413184003598,9.275456458333332,-0.2615106666666666,-2.778550833333333,-0.0474729556542457,-0.0509636141582344,-0.1165879940332212,22.78315458843086,328.57604501415636,2.7325307767812888
1403638597027829504,64.591885,421.13855733330064,7.616498166666665,0.9970094166666666,-2.165635208333333,-0.0453785605518525,0.046774823953448,0.0265290046303138,59.57227763090728,374.00232802641807,6.221737312777691
1403638597527829504,35.237074,317.12094889887027,8.523613291666665,0.2941994999999999,-3.2361945,0.0949459113084915,0.2254965393576673,0.4384267081009756,100.77471727042439,450.6590174922688,8.46403245239486
1403638598027829504,51.328898,669.8687356936167,10.207088208333332,0.1552719583333333,-3.710182583333333,0.1682497398922533,0.0656243798749867,0.1647590813882647,126.17695586510638,551.5035761832584,11.196220849685687
1403638598527829504,50.028324,699.4883308163969,9.553311541666666,0.1389275416666666,-3.2443667083333327,0.1033234917180643,-0.2024581932313422,0.08307767239493,145.26591121568094,667.8817756830961,11.582992728432487
1403638599027829504,49.791813,641.8576503823774,10.583009791666663,0.83356525,-3.963521041666666,0.3385938748868999,0.0837758040957278,-0.1857030324121966,149.20592989316518,787.3677310552235,11.966395246273692
1403638599527829504,51.145792,762.0056914185976,6.995410333333333,0.8744262916666666,-1.6589582916666663,0.2122320370425104,-0.0481710873550434,0.0223402144255274,146.91818500317376,903.8172265469601,11.269432665328736
1403638602527829504,38.983583,222.37541289212533,9.406211791666664,0.0,-4.453853541666667,0.5906194188748812,0.5612978874413763,0.3050835532486088,1036.83735134831,563.5044446200623,-440.865671991678
1403638603027829504,63.554287,412.1020932949179,8.891362666666666,-0.196133,-3.759215833333333,0.4712388980384689,-0.0719075651821663,0.0586430628670094,59.41543223740886,591.6099373340622,1.215201325082944
1403638603527829504,36.290168,680.2436881219377,9.765788958333331,-0.6047434166666666,-2.459834708333333,0.0928515162060983,0.0244346095279206,0.0272271363311115,31.33684331616807,589.983856619923,-0.5395622828887099
1403638604027829504,50.101042,683.0207003544872,8.711574083333332,0.3105439166666667,-1.5772362083333331,-0.0879645943005142,0.1410226035611418,-0.0642281164733913,32.11502825948051,575.0916137346111,-0.5203521007283598
1403638604527829504,45.827866,422.1746189803008,8.401030166666667,0.1552719583333333,-3.0073726666666665,-0.0356047167406843,-0.2059488517353309,0.0349065850398865,41.52521793079364,544.8638318615535,-3.364656686938474
1403638605027829504,50.086498,557.7672674732084,9.5124505,0.4739880833333333,-3.28522775,0.0411897703470661,-0.0635299847725936,0.124965574442794,51.166175521471516,506.6537824644361,-3.819082828327055
1403638605527829504,50.244093,753.1529648271231,8.605335375,0.9888372083333332,-3.710182583333333,-0.0446804288510548,0.2066469834361286,-0.1214749159388053,45.57862727100193,477.4466338668277,-2.2349580072977915
1403638606027829504,50.048113,790.7574941935321,8.768779541666666,0.3840937916666667,-3.5957716666666664,-0.0642281164733913,0.0628318530717958,0.0314159265358979,50.45230367828686,454.1271096127038,-1.6754265102122758
1403638606527829504,60.863495,538.4553802227747,10.64021525,-0.5311935416666667,-3.162644625,0.0963421747100869,-0.1829105056090057,0.2932153143350474,69.06065065688041,436.261952237036,-1.610324172983269
1403638607027829504,49.01886,517.6584698186311,10.44408225,1.2748645,-4.323098208333334,0.4314453910929983,0.0160570291183478,0.0537561409614253,77.99958248592472,430.8067745532032,0.8193409058495718
1403638607527829504,63.138723,749.9552949479257,8.891362666666666,0.8825985,-2.435318083333333,0.0963421747100869,-0.025830872929516,0.028623399732707,69.28970869185228,443.2940635222277,1.509140493489042
1403638608027829504,34.37233,906.6153217883513,8.866846041666665,0.8253930416666666,-3.7673880416666665,-0.0795870138909414,0.0453785605518525,0.0293215314335047,60.44718658748286,463.1582779858658,2.05755821191741
1403638608527829504,50.589562,698.0345288136288,8.278447041666666,0.7191543333333333,-2.533384583333333,-0.0342084533390888,-0.0195476876223364,0.0418879020478639,53.81302230665952,480.8620280726514,1.4517585863825389
1403638609027829504,63.990116,703.156597445106,11.416575041666665,-0.2941994999999999,-4.118792999999999,0.0090757121103705,-0.0781907504893459,0.0621337213709981,48.31088113032207,492.48108140926865,0.9705838239256082
1403638609527829504,49.74699,725.9244441240567,8.687057458333333,0.1389275416666666,-3.3506054166666663,-0.0383972435438752,-0.0949459113084915,0.0614355896702004,35.023890168369924,499.90767448069244,0.30324498820039025
1403638610027829504,38.646698,841.6533656404208,9.863855458333331,-0.5066769166666666,-4.086104166666667,0.0139626340159546,0.2094395102393195,0.0474729556542457,33.24529109201346,500.4252940783556,-0.01041675418593968
1403638610527829504,49.951076,771.194802961133,10.34601575,0.5230213333333333,-3.309744375,0.028623399732707,0.2904227875318564,0.0816814089933346,25.154283082020136,495.1710143644077,-1.0117265839717788
1403638611027829504,49.359322,801.0975019701882,11.056997875,-0.220649625,-3.530394,-0.0048869219055841,0.1556833692778942,0.0460766922526503,32.34254481999768,478.23569225859507,-2.0112803279550917
1403638611527829504,62.342405,636.2090528509667,10.623870833333331,-0.3595771666666666,-3.702010375,-0.0691150383789754,-0.0816814089933346,-0.0460766922526503,36.18250478752403,452.1259257053143,-2.9203779403098338
1403638612027829504,50.086975,772.8533314391204,10.844520458333331,0.34323275,-3.898143375,-0.0502654824574366,0.0593411945678072,0.0027925268031909,39.27297030408794,421.83060110006625,-2.9527452124705746
1403638612527829504,44.739247,819.7009441941268,7.820803375,0.2043052083333333,-3.67749375,-0.0684169066781777,0.1452113937659282,0.0027925268031909,38.04353522844956,391.6501408072783,-2.9889709123212356
1403638613027829504,38.205623,867.1153366448522,9.324489708333331,-0.2778550833333333,-4.396648083333333,0.0048869219055841,0.1291543646475804,0.153588974175501,40.3031165256483,362.2681648541699,-2.848184863235417
1403638613527829504,54.122925,901.7165551602392,8.670713041666666,0.8907707083333333,-3.260711125,-0.0788888821901436,0.0425860337486616,0.1801179788058148,36.171108789579115,335.93545915637,-2.519599547041423
1403638614027829504,49.609423,611.7949497642993,8.3356525,-0.34323275,-2.043052083333333,-0.382576172037157,-0.0062831853071795,0.2164208272472968,42.6684424689887,310.2933490952055,-2.718811317237112
1403638614527829504,50.928116,778.5579829992652,9.357178541666666,-0.2533384583333333,-2.5170401666666664,-0.1864011641129944,-0.025830872929516,0.1982694030265558,49.467055213865954,285.0126849356608,-2.3550502314470236
1403638615027829504,49.877643,504.2272992733278,8.866846041666665,0.0735498749999999,-3.3506054166666663,-0.6527531402458793,-0.0146607657167523,0.1926843494201739,49.81934746724374,259.7999436830113,-2.8912854467865827
1403638615527829504,62.022448,345.74512771126746,9.324489708333331,-1.1767979999999998,-3.268883333333333,-0.5522221753310059,0.0991347015132779,0.2666863097047335,59.19620709917569,230.45985977283942,-2.6050325520567412
1403638616027829504,50.420761,230.7975227838794,7.289609833333333,-0.0326888333333333,-2.0512242916666668,-0.3064798166502042,0.0488692190558412,0.1151917306316257,60.99048600943344,210.63025379705428,-1.4702931498998453
1403638616527829504,39.27064,168.07775299960272,8.711574083333332,-0.2860272916666666,-1.4464808749999998,-0.3043854215478111,-0.0509636141582344,0.1647590813882647,62.14786112737312,205.66445815677764,0.27673476567170496
1403638617027829504,50.353765,180.8721677948638,6.586799916666666,0.6782932916666666,-3.4650163333333333,-0.028623399732707,0.1808161105066125,-0.1193805208364121,66.1465477705871,212.95475050952106,0.607958000518579
1403638617527829504,49.900293,207.17626454840843,10.166227166666664,-1.2340034583333332,-4.094276375,0.0237364778271228,0.1033234917180643,0.0802851455917391,67.38227900161425,218.27218121742766,0.28035504254404486
1403638618027829504,51.663637,206.14694881763293,7.649186999999999,-0.3595771666666666,-3.097266958333333,0.025830872929516,0.08307767239493,0.0125663706143591,66.81411410278825,217.94611257102196,-0.3742763269304987
1403638618527829504,46.095132,211.6921570728341,9.07115125,-0.0817220833333333,-3.08909475,-0.0795870138909414,-0.0174532925199432,0.0230383461263251,62.3094121102273,216.3881797830324,-0.07449676664651861
1403638619027829504,49.510956,122.69421081285086,7.232404375,0.04903325,-2.8357562916666668,-0.3804817769347638,0.1410226035611418,0.124965574442794,58.05136204933983,217.3468127032376,0.20773695167730466
1403638619527829504,64.189911,622.1641102916849,9.569655958333334,-1.61809725,-3.113611375,-0.3211405823669566,0.0802851455917391,0.265290046303138,49.687473673555445,224.78181945158897,1.0454629440572774
1403638620027829504,50.311565,980.633899920462,9.07115125,-0.4494714583333333,-2.672312125,-0.0223402144255274,0.0174532925199432,0.1368338133563554,37.04511847394104,239.8722943933357,2.115085117222492
1403638620527829504,37.619829,1072.1248650465143,8.433719,0.171616375,-2.549729,0.0279252680319092,-0.1005309649148733,0.0614355896702004,37.301890404705084,262.95191595639983,2.4610786351657907
1403638621027829504,63.358784,932.7217853356068,9.749444541666666,-0.1470997499999999,-3.015544875,0.0132645023151569,0.1424188669627373,-0.0132645023151569,38.18516485116375,290.6580373603165,3.0479352090819134
1403638621527829504,51.162958,994.2877277864516,10.215260416666666,0.220649625,-3.5957716666666664,-0.0055850536063818,0.0726056968829641,0.0747000919853573,36.89915777728423,318.0622582107691,2.623278746192625
1403638622027829504,60.250521,988.4721250847372,7.591981541666666,-0.53936575,-3.219850083333333,-0.0188495559215387,0.0886627260013119,0.179419847105017,30.13259866539977,341.90202984287987,2.1474013793464337
1403638622527829504,49.628019,977.646218954654,8.768779541666666,-0.318716125,-4.960530458333333,0.007679448708775,-0.1026253600172665,0.0230383461263251,24.191035331158677,358.95072415517933,1.2834358904253236
1403638623027829504,35.398245,733.6760765429964,8.458235625,-0.024516625,-3.334261,-0.028623399732707,-0.2171189589480945,0.0956440430092892,19.883862202303977,365.08308767408204,0.10922781301815121
1403638623527829504,49.269676,1030.9429380657116,10.280638083333333,0.0653776666666666,-3.366949833333333,-0.054454272662223,0.1584758960810851,0.0614355896702004,25.982349378288582,366.8273861116899,0.188242417961078
1403638624027829504,62.000752,1056.20979193339,9.259112041666668,-0.367749375,-3.4404997083333333,0.0020943951023931,0.007679448708775,0.2066469834361286,30.980675520467287,368.70821008570925,0.1729381000548642
1403638624527829504,49.498797,846.1633186714412,9.716755708333332,-0.8662540833333333,-1.9531577916666665,0.0474729556542457,0.2988003679414292,0.210835773640915,34.63282530206481,373.9499861141515,0.7802456522962302
1403638625027829504,38.604737,971.8524611174574,9.046634625,1.250347875,-2.132946375,0.1389282084587486,-0.0300196631343024,0.1857030324121966,38.948536260982394,384.3104997449217,1.0452579396367696
1403638625527829504,38.667441,1198.727276392405,9.357178541666666,-0.3350605416666666,-4.56009225,-0.0146607657167523,0.0342084533390888,0.0642281164733913,40.65399862656427,398.3311531906624,1.6789782739199381
1403638626027829504,60.716629,1108.8893888629716,7.976075333333333,0.53936575,-2.3699404166666667,-0.0055850536063818,-0.0781907504893459,0.1563815009786919,39.36761625497367,417.1842175042041,2.227306629862028
1403638626527829504,60.365677,994.9723926186422,8.507268875,-0.122583125,-3.293399958333333,0.0146607657167523,-0.0307177948351002,0.1012290966156711,38.670110838905806,440.9540467347674,2.4086301819128266
1403638627027829504,63.933849,1360.3084188546898,8.482752249999999,0.1879607916666666,-2.7867230416666664,0.0062831853071795,0.0272271363311115,0.0740019602845595,32.29883113522926,461.8628547396825,1.8112338352013921
1403638627527829504,47.528505,1420.6035278810286,8.221241583333333,0.024516625,-4.4129925,-0.0453785605518525,0.1228711793404008,-0.0069813170079773,22.747965472461086,477.53982668814945,1.3615205297678585
1403638628027829504,51.47171,715.3582606375795,9.504278291666663,0.4985047083333333,-2.20649625,-0.0474729556542457,0.0411897703470661,0.0593411945678072,16.336996887021957,488.44370468235024,0.6901783913189661
