stamp,img_delta,blur,lin_acc.x,lin_acc.y,lin_acc.z,ang_vel.x,ang_vel.y,ang_vel.z,rpe,ate,drift
1403638129445096960,50.168276,297.531084944057,8.499096666666667,-1.4628252916666666,-2.950167208333333,0.0139626340159546,-0.0048869219055841,0.3623303527140228,226.15447390671824,272.73506962645297,-10.13365963713585
1403638129945096960,49.98374,162.7236040770634,10.1008495,-0.122583125,-4.56009225,0.028623399732707,-0.1130973355292325,-0.0886627260013119,384.58946193217963,405.24738700764635,-70.32220162112503
1403638130445096960,59.91745,335.3425773842339,8.817812791666666,-0.7109821249999999,-3.4813607499999994,0.1082104136236484,-0.0335103216382911,-0.0921533845053006,432.86291326192793,118.88877949674284,10.916467581960262
1403638130945096960,57.27768,577.8571249712156,8.204897166666667,-0.7927042083333332,-2.6477955,-0.0593411945678072,0.2597049926967562,0.1361356816555577,259.3806919731863,225.03089340520322,-1.9071791900369135
1403638131445096960,49.962282,658.6880199578851,9.26728425,-0.6864655000000001,-3.2361945,-0.0328121899374933,0.0726056968829641,0.1228711793404008,50.54767068185202,270.5898996828191,6.362557918949221
1403638131945096960,50.620794,220.0081355792352,10.648387458333334,-1.0133538333333332,-3.4650163333333333,-0.0691150383789754,0.0167551608191455,-0.0118682389135614,70.48816464219382,343.7277028429663,23.061812234707702
1403638132445096960,50.593376,136.40003399545532,9.643205833333331,0.5557101666666666,-3.366949833333333,0.179419847105017,0.2066469834361286,0.3700098014227978,153.12432316775536,217.18106901180104,-27.74833817999098
1403638132945096960,50.115823,804.6171170539602,7.84532,-0.0817220833333333,-2.0512242916666668,0.0837758040957278,0.3099704751541929,0.2715732316103177,121.4193002678096,165.0072336070199,-0.1928306260394379
1403638133445096960,60.152054,593.768912736808,9.283628666666663,-0.318716125,-3.5957716666666664,-0.4649557127312894,-0.0139626340159546,0.1556833692778942,23.739233323568268,175.08776844712563,-3.1444144958218203
1403638133945096960,50.101996,481.0074360818145,10.223432625,-2.803067458333333,-2.353596,-0.1270599695451872,0.0781907504893459,0.1026253600172665,22.337776112758124,199.84504646022538,1.2970884108827079
1403638134445096960,49.636126,1231.2842584471357,9.422556208333331,-0.6864655000000001,-3.587599458333333,0.0851720674973232,-0.1319468914507713,0.1933824811209717,19.814721079334042,190.55496420008356,-1.7863022681585505
1403638134945096960,61.122894,768.0327958015154,8.033280791666666,-0.5311935416666667,-3.4731885416666666,-0.0153588974175501,0.189891822616983,0.1214749159388053,22.833468782274736,169.37227400660672,-2.295965679596577
1403638135445096960,54.128885,437.2644287307085,8.77695175,0.661948875,-3.92266,-0.182212373908208,-0.0125663706143591,-0.0293215314335047,8.967104963732025,162.9877978549228,0.8419773353682274
1403638135945096960,40.190459,271.50096678063454,10.329671333333332,-0.1797885833333333,-4.347614833333333,-0.1242674427419962,-0.2492330171847902,-0.1801179788058148,9.595149202981567,183.10815243152663,1.3603723517421145
1403638136445096960,59.795141,467.52034429482336,10.084505083333331,-2.6477955,-3.4486719166666666,-0.1284562329467826,-0.036302848441482,0.0628318530717958,27.92714414294581,191.8118584586283,2.906528927881965
1403638136945096960,40.157795,260.4909747721768,7.256920999999999,-1.005181625,-2.778550833333333,0.3385938748868999,0.3783873818323706,0.4426154983057619,14.34686983926243,173.5829596579244,-1.5514217860167605
1403638137445096960,40.314913,137.3639546485365,9.594172583333334,-0.7518431666666666,-3.603943875,-0.0914552528045028,-0.2101376419401172,-0.153588974175501,134.8301134630953,274.4623577215419,13.188143163108691
1403638148295097088,39.85858,196.895154582969,8.817812791666666,0.8662540833333333,-3.9144877916666654,0.0670206432765822,0.0013962634015954,0.0237364778271228,90.91502856039352,227.97753025790598,-55.483679979172734
1403638148795097088,40.716887,421.32871648368354,10.288810291666666,-0.2533384583333333,-3.930832208333333,0.0656243798749867,-0.0628318530717958,0.0446804288510548,35.56994082560089,247.21765697454538,1.6737514014843384
1403638149295097088,49.699545,1213.644483067125,7.632842583333333,-0.8253930416666666,-3.7673880416666665,0.0614355896702004,-0.0111701072127637,0.1654572130890624,34.30705522547158,273.62865464400005,4.618784309866896
1403638149795097088,39.805174,1081.9467099379783,9.438900625,0.269682875,-3.898143375,0.1487020522699168,-0.0251327412287183,0.0376991118430775,49.736933875512776,282.8553336438831,1.459487035658583
1403638150295097088,60.084343,977.172127017625,7.79628675,0.7681875833333334,-3.726527,0.0209439510239319,0.0055850536063818,0.0167551608191455,10.292870777224383,274.2730320999941,-0.12405465629706214
1403638150795097088,50.279855,847.3356515363088,10.484943291666664,-0.0326888333333333,-2.574245625,0.1333431548523667,0.1375319450571531,-0.0342084533390888,27.1130087012043,278.78836352413157,1.5197995229793833
1403638151295097088,40.333271,613.7163457685533,11.686257916666666,-0.3595771666666666,-3.955348833333333,0.5096361415823442,0.0230383461263251,-0.0642281164733913,21.673533103080423,270.126771653571,1.0509304243633437
1403638151795097088,50.157785,623.3713227669479,9.07115125,-0.2124774166666666,-4.26589275,0.1975712713257581,0.0411897703470661,-0.046774823953448,28.39102751167193,269.8534664931028,1.8564093269825435
1403638152295097088,38.354159,557.2467538691072,9.994610791666668,-0.0081722083333333,-3.023717083333333,-0.0684169066781777,0.0663225115757845,-0.0153588974175501,37.41585982776552,275.8421078737571,0.6212331542676566
1403638152795097088,57.542324,234.76492044998668,9.872027666666666,0.6292600416666666,-3.3260887916666664,0.2059488517353309,0.104021623418862,0.0397935069454707,57.953362638217776,287.5111167766407,-2.267075651426751
1403638153295097088,50.043821,288.2107614525098,8.825985,-0.0163444166666666,-3.669321541666666,0.1528908424747032,0.0321140582366956,-0.1075122819228507,48.52865097753826,257.8488227536707,-0.5629161131852243
1403638153795097088,49.201727,197.9490531815472,6.382494708333334,0.6537766666666667,-2.1492907916666666,0.3755948550291797,0.0216420827247296,-0.0279252680319092,55.843653577979225,254.81452829730696,-0.9253548147679567
1403638154295097088,43.51449,401.98917723337627,8.564474333333333,-0.9888372083333332,-3.170816833333333,-0.0188495559215387,0.0949459113084915,0.0698131700797731,65.48138977468852,254.37303063827113,-2.2314390784496254
1403638154795097088,50.32897,602.5308036753543,10.092677291666664,0.0735498749999999,-4.404820291666666,0.1263618378443894,-0.0809832772925368,-0.0160570291183478,54.05254342674196,224.06682732070138,-1.8277484379075304
1403638155295097088,49.975872,749.0969464706302,7.837147791666666,-0.0980665,-3.28522775,0.1298524963483781,0.2136283004441059,0.0265290046303138,58.625129352211204,194.72490674259726,0.1975723109373746
1403638155795097088,50.326348,605.8036193456227,9.872027666666666,-0.612915625,-4.36395925,0.4153883619746504,0.0104719755119659,-0.0216420827247296,63.03168978150783,189.22425714984064,0.44410036598213765
1403638156295097088,40.517807,718.0378018487264,9.545139333333331,-0.171616375,-3.612116083333333,0.4482005519121438,-0.1731366617978375,0.0118682389135614,56.66058362064626,206.59596127915063,2.7947773036968044
1403638156795097088,60.00328,1056.5230518140552,9.75761675,0.7191543333333333,-3.702010375,0.0174532925199432,0.0223402144255274,0.0488692190558412,43.27762911013307,235.19490743800299,2.4982790659550744
1403638157295097088,50.051451,880.4038655353049,10.525804333333332,0.2860272916666666,-5.24655775,-0.0307177948351002,0.0488692190558412,0.1158898623324234,40.19130181423868,267.481381593037,4.092328245542433
1403638157795097088,50.540686,528.186263592157,9.16921775,0.2615106666666666,-2.533384583333333,0.3490658503988659,0.1333431548523667,-0.208043246837724,38.022665982137475,312.7280662775926,4.863195244158703
1403638158295097088,48.295021,853.4294508317836,8.744262916666667,-0.3840937916666667,-3.162644625,0.0816814089933346,0.0139626340159546,-0.007679448708775,44.44929119968254,370.559014415908,4.300146149581735
1403638158795097088,50.388575,780.7603330517185,8.38468575,0.122583125,-4.143309625,0.0013962634015954,-0.1563815009786919,0.2247984076568696,36.4023911966503,420.60648426742245,5.1282647305338855
1403638159295097088,49.314261,430.19139354596257,8.580818749999999,-0.0326888333333333,-3.2443667083333327,-0.0265290046303138,0.1514945790731078,0.1103048087260416,39.63994878459955,473.99318997009294,5.7224411439447636
1403638159795097088,50.227404,732.3340816608824,10.435910041666666,-0.2778550833333333,-4.453853541666667,-0.0383972435438752,0.1633628179866692,-0.0006981317007977,39.74455199163364,531.0275815025312,5.082970262662343
1403638160295097088,50.660372,657.0291292013088,9.332661916666666,0.0572054583333333,-3.7837324583333327,0.0356047167406843,-0.3679154063204046,0.0404916386462684,29.580863642455668,565.2316628375064,3.1654651725477834
1403638160795097088,40.440559,455.99877353099305,10.427737833333332,-0.3268883333333333,-2.909306166666666,-0.0097738438111682,0.1584758960810851,0.2569124658935653,29.556013418452093,595.7424081803782,2.431027700951063
1403638161295097088,49.898624,482.3869992806611,9.095667875,-0.1552719583333333,-2.4680069166666665,-0.5619960191421741,-0.0083775804095727,0.2464404903815993,30.197613601217572,622.4854715512373,2.056183443077998
1403638161795097088,50.076485,619.9907421078941,8.548129916666667,0.3759215833333333,-3.260711125,-0.1019272283164688,0.0900589894029074,0.1438151303643327,28.757375299329308,640.7168030663439,1.8654174910482197
1403638162295097088,39.112568,781.3598043846038,9.896544291666666,-0.024516625,-2.459834708333333,-0.0635299847725936,-0.0209439510239319,0.0823795406941323,30.66731787631393,659.1635693609537,1.7234317432624948
1403638162795097088,50.169229,765.5261781544203,9.7085835,-0.6701210833333332,-3.015544875,-0.0872664625997164,-0.0635299847725936,0.1473057888683213,36.58053873578992,676.063162916652,1.5665813252905991
1403638163295097088,50.729752,569.1410871353175,7.79628675,-0.7763597916666666,-3.309744375,-0.3316125578789226,-0.0558505360638185,0.0349065850398865,46.764729665882285,689.4862120896654,0.9689767147958719
1403638163795097088,62.821388,739.8902423875719,8.564474333333333,-0.2615106666666666,-3.0564059166666664,-0.0523598775598298,0.0621337213709981,0.1570796326794896,45.5757933989012,695.8124548185384,0.33637540039751457
1403638164295097088,50.363302,704.1720033807785,8.499096666666667,0.2941994999999999,-3.1299557916666663,0.0642281164733913,0.0439822971502571,0.0865683308989187,52.67254414828362,694.3820684979369,-0.5587176801683427
1403638164795097088,50.267458,554.1566644182344,7.641014791666667,0.5557101666666666,-3.800076875,-0.2331759880664424,0.0712094334813686,-0.1857030324121966,54.933329829979826,684.3288612291481,-1.5891609381667422
1403638165295097088,50.364971,360.8132897811067,7.641014791666667,-0.0898942916666666,-2.9583394166666666,-0.1158898623324234,-0.3574434308084387,0.1905899543177807,60.329815701175974,662.210471148009,-2.6661233607679833
1403638165795097088,60.208082,329.1511715016851,9.316317499999998,-0.0898942916666666,-3.930832208333333,-0.0342084533390888,-0.1445132620651305,0.0209439510239319,65.45459888699956,630.1227258384118,-4.185846590768051
1403638166295097088,38.975715,477.0418592027593,11.45743608333333,-0.1144109166666666,-3.1299557916666663,0.0132645023151569,0.0279252680319092,-0.0125663706143591,63.39334370211168,582.0813637938138,-4.606954799079972
1403638166795097088,50.024032,478.9656637260252,9.144701125,-0.4331270416666666,-4.829775124999999,0.1068141502220529,-0.0663225115757845,0.3420845333908886,58.552196664001066,536.9931010857154,-3.7232916052665814
1403638167295097088,38.097858,444.4530389089544,10.501287708333331,0.1062387083333333,-3.138128,-0.0342084533390888,0.0404916386462684,-0.0356047167406843,58.3487365270648,512.2719868985176,-1.4043403015325566
1403638167795097088,39.106846,422.0053781621053,8.97308475,0.5802267916666666,-3.391466458333333,-0.1263618378443894,0.1130973355292325,0.3302162944773272,67.06508890279956,511.88605335504144,0.21608958280091883
1403638168295097088,50.094843,369.0297037066591,8.948568125,0.3023717083333333,-4.290409374999999,-0.3399901382884954,0.0551524043630208,0.1047197551196597,84.67440113173944,515.6909564078691,0.6306597100201543
1403638168795097088,49.957275,429.7377876488889,8.221241583333333,0.2533384583333333,-3.603943875,-0.0537561409614253,0.0335103216382911,0.1130973355292325,85.81784719498053,531.0853125563928,1.8363050898738038
1403638169295097088,50.101042,389.2741958009533,8.866846041666665,-0.5230213333333333,-3.415983083333333,0.0677187749773799,0.1926843494201739,0.3944444109507184,62.613992762310936,566.5264144905345,3.9421533094021015
1403638169795097088,48.30718,317.2832496962809,11.187753208333334,-0.2860272916666666,-4.903325,-0.546637121724624,-0.0370009801422797,-0.1542871058762987,55.402685027078235,583.8600687395636,2.632594766289685
1403638170295097088,60.989141,367.192699469858,7.84532,1.005181625,-3.0318892916666664,-0.4237659423842232,-0.1123992038284348,0.3560471674068432,56.60341424485065,604.5499401996973,1.85907457439464
1403638170795097088,59.664249,462.8026504218346,10.770970583333334,-0.2369940416666666,-5.728718041666665,-0.3951425426515162,0.0125663706143591,0.2317797246648469,46.013713273723944,610.2179741350103,-1.0727799438043348
1403638171295097088,50.148964,608.1506378804643,9.242767625,-1.0869037083333333,-3.4977051666666665,-0.1870992958137921,0.1354375499547599,0.0984365698124801,48.878995989999154,604.3278719323831,-1.2965153257283646
1403638171795097088,49.13497,626.3798649434534,10.035471833333334,-0.5720545833333333,-3.211677875,-0.2220058808536787,0.0118682389135614,0.2241002759560719,52.57747677215854,579.8301987834041,-3.5149950117612434
1403638172295097088,50.093889,672.3187830382525,8.907707083333333,-0.2860272916666666,-3.8245935,-0.0523598775598298,0.0684169066781777,0.0188495559215387,70.14194164777633,531.3684503793696,-5.924502982923855
1403638172795097088,50.386667,728.6750876307783,9.422556208333331,0.3105439166666667,-2.811239666666667,0.0579449311662117,0.0677187749773799,0.0984365698124801,86.94002686703244,457.6180556080007,-8.79186462572892
1403638173295097088,50.097466,277.35908927496496,10.149882749999998,-0.7600153749999999,-3.3996386666666667,-0.0027925268031909,0.0411897703470661,-0.0705113017805709,109.9517232793522,358.4360122774816,-10.372012428391201
1403638173795097088,50.364971,323.09079936999046,8.360169125,-0.465815875,-2.999200458333333,0.0090757121103705,-0.036302848441482,0.1256637061435917,124.83450802946537,260.87758087772113,-9.141658544861286
1403638174295097088,57.287216,308.6006445267984,9.553311541666666,-0.5965712083333333,-2.2963905416666663,0.0705113017805709,-0.1263618378443894,0.1563815009786919,129.45483195018122,193.92863384369087,-2.1225507643491426
1403638174795097088,50.423146,438.5032273819311,10.934414749999998,0.0326888333333333,-2.7376897916666665,0.0006981317007977,-0.0439822971502571,-0.0335103216382911,110.65374887183799,224.77150479546074,6.6428684485692315
1403638175295097088,49.982547,414.2192902884158,8.87501825,-0.318716125,-2.974683833333333,-0.0041887902047863,0.0,0.1054178868204575,84.23036224099377,313.2719569329689,9.871582126978524
1403638175795097088,49.297094,518.059075576063,9.250939833333334,0.8499096666666667,-2.034879875,0.0390953752446729,-0.1298524963483781,0.0628318530717958,77.81938955394415,397.25095856215876,7.1177721699324366
1403638176295097088,60.473919,566.0509882524702,8.482752249999999,0.0735498749999999,-3.260711125,-0.0132645023151569,0.2317797246648469,0.1277581012459849,67.50429064701235,456.17193794807747,5.060671515490242
1403638176795097088,40.686846,745.7968859396022,8.809640583333332,0.44129925,-3.2525389166666665,0.0160570291183478,0.0342084533390888,0.1005309649148733,51.09305036831109,493.4554437890921,2.778674453608403
1403638177295097088,40.598154,730.3725652903867,8.38468575,0.465815875,-2.941995,0.018151424220741,0.0537561409614253,0.0795870138909414,32.0468308624548,516.5520931801948,1.8449631410161373
1403638177795097088,38.727045,555.1023626667231,8.703401874999999,-0.1470997499999999,-2.6641399166666666,0.0202458193231342,0.1864011641129944,0.3302162944773272,20.85031674044015,536.028334358261,0.7712317605836461
1403638178295097088,50.022363,528.5173315356927,12.20927925,-0.1470997499999999,-5.115802416666666,-0.3274237676741362,-0.0321140582366956,0.1780235837034216,11.878739840092615,553.3156366788319,1.5351992764796023
1403638178795097088,60.464143,438.5185378086285,10.918070333333333,0.1879607916666666,-3.048233708333333,-0.4349360495969869,-0.0530580092606276,0.1598721594826805,29.612163878650673,574.7662205187362,3.5936197181825946
1403638179295097088,49.64137,446.8351151070596,8.825985,-0.171616375,-2.9338227916666666,-0.2666863097047335,-0.104021623418862,0.0300196631343024,30.63754110875453,606.1235041310581,3.861079636171098
1403638179795097088,50.075531,256.02852280792854,9.610517,-0.8580818749999999,-3.8409379166666655,-0.4649557127312894,-0.0013962634015954,0.2359685148696333,37.709990690554704,652.4081279307408,8.726500960334192
1403638180295097088,49.681663,380.3165014882296,6.815621749999999,-0.8499096666666667,-2.3617682083333333,-0.1019272283164688,-0.093549647906896,0.0663225115757845,39.59137891671733,696.4233086927978,4.3030506578356835
1403638180795097088,49.494028,405.70560146493926,9.545139333333331,-0.7191543333333333,-4.609125499999999,0.0705113017805709,-0.1591740277818828,0.0314159265358979,44.33194580875403,748.6806474754994,8.093701773781731
1403638181295097088,49.368381,231.2022495530228,10.084505083333331,-0.2615106666666666,-2.89296175,0.0062831853071795,0.2254965393576673,0.2241002759560719,47.51014928963734,801.2924719284064,5.8987202779184145
1403638181795097088,61.127186,181.31009485895885,8.164036124999999,-0.0735498749999999,-2.999200458333333,-0.4949753758655918,-0.1277581012459849,-0.0495673507566389,52.824657011775955,863.811531838176,5.802082689657823
1403638182295097088,40.256023,281.6997063251137,8.752435125,0.269682875,-3.391466458333333,-0.0698131700797731,-0.0425860337486616,0.1905899543177807,39.50952411139298,911.3310791804408,4.931372963393869
1403638182795097088,49.437046,249.43995422713252,10.174399375,0.0,-4.502886791666667,0.0537561409614253,0.0111701072127637,0.0041887902047863,45.002193854031056,957.9443759171978,4.4730215958418285
1403638209145096960,61.88941,658.2547123806372,9.414383999999998,1.0215260416666667,-2.9174783749999995,0.0342084533390888,-0.0202458193231342,0.0048869219055841,1740.0762407069956,656.3809548635434,-360.7368730037048
1403638209645096960,50.11344,694.6087698658748,8.131347291666666,0.63743225,-3.2035056666666666,0.0041887902047863,0.0600393262686049,0.1298524963483781,47.36106126933877,642.3319366684265,-1.8956114487831428
1403638210145096960,59.842587,789.7314962625952,9.602344791666663,0.0817220833333333,-3.996209875,-0.0321140582366956,0.1410226035611418,0.0404916386462684,61.35300786380118,620.3411680109568,-2.487908922833867
1403638210645096960,63.034535,656.6936222825309,7.902525458333333,0.1389275416666666,-2.966511625,-0.0153588974175501,0.0139626340159546,0.1500983156715123,60.693586985933734,587.3641057187518,-3.728451670077334
1403638211145096960,38.808108,632.4297120980721,8.278447041666666,0.8744262916666666,-1.81423025,0.0307177948351002,-0.0153588974175501,0.0991347015132779,74.19580460168159,542.7156757514001,-5.315434855970921
1403638211645096960,61.62095,574.8678193218092,9.520622708333333,0.8907707083333333,-2.574245625,-0.4363323129985824,0.0984365698124801,0.3183480555637657,68.52735619057341,491.6369103450715,-5.3930924528369815
1403638212145096960,40.074825,526.2067669646113,9.5124505,-0.5066769166666666,-3.4568441249999995,-0.5382595413150513,0.0509636141582344,0.1933824811209717,63.877295342431474,430.8801855758811,-6.226263072564848
1403638212645096960,50.240517,592.3355131292221,8.041452999999999,-0.196133,-2.966511625,-0.4488986836129415,-0.0977384381116824,0.3483677186980682,70.34930406213384,370.6259932599115,-7.670272511681105
1403638213145096960,60.794592,398.18541765248216,8.3356525,0.0,-3.2770555416666665,-0.5759586531581287,-0.0726056968829641,0.4021238596594935,78.64626190415902,310.47441388587384,-5.397805632065797
1403638220695097088,50.380946,1131.133356831907,7.886181041666666,-0.2369940416666666,-2.7376897916666665,-0.0335103216382911,0.0439822971502571,0.1033234917180643,879.3190920893373,324.5022886873301,54.166101264174074
1403638221195097088,50.082445,1120.3434509633776,9.520622708333333,-0.171616375,-2.7376897916666665,-0.0083775804095727,-0.0027925268031909,0.1019272283164688,10.907941225178714,298.8462740421274,-2.6467156748186085
1403638221695097088,56.179523,1171.6245250162465,10.558493166666668,-0.122583125,-2.8439285,0.0642281164733913,0.0705113017805709,0.0795870138909414,11.106943352979924,278.2675025290364,-1.4910308623901187
1403638222195097088,49.969912,1057.5519031221304,8.817812791666666,-0.2124774166666666,-3.268883333333333,-0.0383972435438752,-0.1061160185212552,0.0621337213709981,7.620185571330433,263.64230333809616,-1.2165590173656824
1403638222695097088,49.938917,1304.961663445344,8.87501825,0.2533384583333333,-2.778550833333333,0.0125663706143591,0.2031563249321399,0.0921533845053006,12.28966700611452,255.37102773067585,-0.2751015825604952
1403638223195097088,49.72887,682.1688587193595,8.5317855,0.53936575,-2.50069575,0.0244346095279206,-0.3595378259108319,0.2066469834361286,49.537383241470046,219.7759951106337,-0.3026876381836985
1403638223695097088,39.340734,401.2833676323757,9.577828166666666,0.9234595416666666,-3.2770555416666665,-0.0781907504893459,0.0083775804095727,-0.1305506280491758,51.9435692714076,187.62525940807896,4.801582036788432
1403638224195097088,51.617861,240.85886399611744,11.089686708333334,-0.171616375,-3.8082490833333327,0.0216420827247296,-0.0621337213709981,0.0733038285837618,50.440295367222966,237.48933851154212,4.649564859928262
1403638224695097088,38.485288,158.7461991291728,10.051816249999998,0.7191543333333333,-3.726527,0.0062831853071795,-0.2624975194999471,0.0439822971502571,42.994620394819826,264.62527906459627,2.6528885452979694
1403638225195097088,50.372362,285.60320998901443,9.013945791666666,0.4494714583333333,-3.930832208333333,-0.0328121899374933,-0.1117010721276371,-0.104021623418862,6.12739040335641,259.9872576946799,-0.6738173967708576
1403638225695097088,39.749384,256.0738176279033,7.616498166666665,-1.0787315,-2.2963905416666663,-0.025830872929516,-0.0335103216382911,0.0349065850398865,4.207825417865227,262.9850074423508,3.494170258556778
