stamp,img_delta,blur,lin_acc.x,lin_acc.y,lin_acc.z,ang_vel.x,ang_vel.y,ang_vel.z,rpe,ate,drift
1403637133388318976,49.863815,514.8504848180705,9.136528916666666,-0.6456044583333332,-2.4843513333333336,-0.1528908424747032,-0.075398223686155,0.0844739357965255,3.582459099984707,3.582459099984714,0.09814594019332468
1403637133888318976,41.855097,380.9937969481648,11.310336333333332,-0.8744262916666666,-3.759215833333333,-0.1382300767579508,-0.0900589894029074,0.1926843494201739,2.089347930337183,4.334133213069901,-0.059666782875499536
1403637134388318976,49.722194,353.5186705167905,6.668522,0.0408610416666666,-1.6753027083333332,-0.0851720674973232,0.3316125578789226,0.1368338133563554,3.490359259322689,6.932771648105525,-0.0520331759788375
1403637134888318976,50.188303,190.48364122128936,9.80665,-0.04903325,-4.26589275,0.0781907504893459,-0.4565781323217166,0.2911209192326541,3.750926596023399,3.322697011025467,-0.2728445695588073
1403637135388318976,51.401853,199.0774915648546,11.195925416666665,-0.3023717083333333,-5.115802416666666,-0.104021623418862,0.3469714552964727,-0.0251327412287183,0.8138639580601511,3.2157817243732287,0.5609937237332931
1403637135888318976,49.48163,775.7703960080731,5.287418791666666,0.3105439166666667,-1.184970208333333,-0.0565486677646162,0.0677187749773799,0.1305506280491758,0.6718519094994114,3.454294717312354,0.003944842452657138
1403637136388318976,50.675393,206.3642013740836,10.019127416666668,-0.1144109166666666,-4.993219291666667,0.0383972435438752,-0.4858996637552213,0.1096066770252439,0.8591361534405835,3.4325151262627105,-0.0806372573464067
1403637136888318976,63.745021,181.9327672065785,9.234595416666666,-0.0653776666666666,-4.4701979583333324,-0.0481710873550434,0.5242969072990966,0.0907571211037051,1.2667456259282956,4.064212129317546,0.08053446439931067
1403637137388318976,49.132824,804.4514204025364,6.210878333333333,-0.2615106666666666,-1.372931,0.0809832772925368,0.046774823953448,0.0509636141582344,0.4225709451198566,3.9471211378696545,-0.08794602592071499
1403637137888318976,50.138473,197.67527491884812,12.184762625,0.2043052083333333,-5.655168166666666,0.0726056968829641,-0.28623399732707,0.0132645023151569,1.6816391460466664,3.949230262144676,0.019803237622362246
1403637138388318976,49.804449,190.42830562424427,7.216059958333333,0.44129925,-3.015544875,-0.2178170906488923,0.7379252077432026,0.0698131700797731,1.114938965498517,4.930642831291292,0.027717113690078676
1403637138888318976,49.830675,276.6115630813092,7.730909083333333,-0.1144109166666666,-3.1463002083333333,0.0460766922526503,-0.3155555287605747,0.0446804288510548,1.6654121476393489,4.2877773719133145,-0.024662601473694146
1403637139388318976,41.774988,299.1144060059882,10.117193916666666,-0.5802267916666666,-4.5519200416666665,0.15079644737231,0.0,-0.0607374579694026,1.4214227257755019,4.098536841047116,-0.028693693640836848
1403637139888318976,50.780057,355.6990097442622,9.259112041666668,-0.9479761666666666,-3.391466458333333,-0.0432841654494593,0.2541199390903744,0.1494001839707146,0.842841853698712,3.5201785932656153,-0.08281965319561291
1403637140388318976,49.706697,566.6644439981552,9.986438583333332,0.024516625,-3.195333458333333,0.0055850536063818,0.093549647906896,0.0376991118430775,1.039359726944149,3.268412476801318,0.008241934106960613
1403637140888318976,50.085068,578.2237129280962,9.65955025,-0.9398039583333332,-2.533384583333333,-0.0202458193231342,0.0230383461263251,0.0767944870877505,0.2129965604774791,3.447162826432357,0.006429253831658155
1403637141388318976,51.135778,581.7317730948363,9.406211791666664,-0.6292600416666666,-2.6477955,-0.0020943951023931,0.0195476876223364,0.0795870138909414,0.05008683413995423,3.4274951304694836,-0.005279857561548695
1403637141888318976,44.375658,580.6582609743841,9.332661916666666,-0.7273265416666667,-2.606934458333333,-0.0006981317007977,0.0230383461263251,0.0816814089933346,0.041719358617678684,3.3884009305907443,-0.006066327860466902
1403637142388318976,48.960925,580.7406857930847,9.340834125,-0.7681875833333334,-2.5660734166666663,-0.0027925268031909,0.0195476876223364,0.0795870138909414,0.061171432524831405,3.3656996865942084,-0.014042628441916616
1403637142888318976,48.682212,581.4973497911864,9.414383999999998,-0.7191543333333333,-2.557901208333333,0.0,0.0174532925199432,0.0781907504893459,0.027076464748401884,3.363001571019316,-0.0008518158636179329
1403637143388318976,38.612127,582.0661315831318,9.422556208333331,-0.6701210833333332,-2.4843513333333336,-0.0006981317007977,0.0223402144255274,0.0872664625997164,0.04456692759169363,3.3704737522008483,-0.0031063853420452148
1403637143888318976,60.761214,581.6475362149909,9.422556208333331,-0.6456044583333332,-2.5415567916666664,0.0006981317007977,0.0111701072127637,0.0767944870877505,0.0255672221886423,3.3531978661345683,-0.004783054894055727
1403637144388318976,45.442104,531.9235100274782,9.128356708333332,0.0653776666666666,-2.557901208333333,0.0970403064108847,0.0237364778271228,0.0495673507566389,0.04097511927799102,3.3806611619844107,0.005554921720380079
1403637144888318976,46.056271,573.0680686369219,9.26728425,0.1307553333333333,-2.79489525,0.0041887902047863,0.0027925268031909,0.0628318530717958,0.047513844318095536,3.346271453807468,0.012310047301642424
1403637145388318976,60.239553,582.017980692119,9.414383999999998,-1.0215260416666667,-2.476179125,0.0118682389135614,0.0376991118430775,0.0712094334813686,0.05952973211927271,3.2926982339361572,0.003923179660317633
1403637145888318976,39.356709,582.7662442337496,9.291800875,-0.8907707083333333,-2.50069575,-0.0020943951023931,0.0174532925199432,0.0851720674973232,0.01435535151232252,3.2953260014525156,-0.003187931228188834
1403637146388318976,50.076008,574.1928835958414,9.218251,-1.438308666666667,-2.231012875,-0.0390953752446729,0.0614355896702004,0.0747000919853573,0.0665543438481956,3.293018418680507,-0.002699296807933127
1403637146888318976,51.237344,579.1013657905161,9.700411291666663,-0.6456044583333332,-2.6641399166666666,-0.0006981317007977,-0.0090757121103705,0.114493598930828,0.05141038452788982,3.336197564789107,0.004431132359512979
1403637147388318976,50.157785,576.9571893773734,9.242767625,-0.612915625,-2.623278875,-0.0104719755119659,0.0607374579694026,0.0628318530717958,0.05458907262208278,3.3103632932442255,0.0023271284708474838
1403637147888318976,60.436011,580.3284220678464,9.471589458333332,-0.7028099166666667,-2.549729,-0.0097738438111682,0.0349065850398865,0.0600393262686049,0.09966517855882565,3.2308273131234486,-0.012883053371021802
1403637148388318976,39.521456,580.0540047646211,10.386876791666666,-0.5066769166666666,-2.655967708333333,0.0307177948351002,0.0034906585039886,0.1165879940332212,0.029310938436930233,3.2277550490104314,0.004069380352831331
1403637148888318976,48.357249,570.9562992991895,8.77695175,-0.563882375,-2.1738074166666665,0.0356047167406843,-0.0670206432765822,0.0628318530717958,0.09990144263262075,3.233073708597414,-0.002971629359707073
1403637149388318976,60.622692,569.0782581519878,9.594172583333334,-0.8499096666666667,-2.8766173333333334,0.0062831853071795,-0.0390953752446729,0.0802851455917391,0.5299111711341117,3.210017222594512,0.01199671990751705
1403637149888318976,38.648367,260.5512889564,11.179581,0.1144109166666666,-2.378112625,-0.0809832772925368,-0.278554548618295,-0.122173047639603,1.5313484118749738,3.770295929854286,0.13453298544827685
1403637150388318976,55.540085,227.48368137436177,8.768779541666666,0.6047434166666666,-3.072750333333333,-0.007679448708775,0.3874630939427411,0.1480039205691191,1.983071585815938,3.533184213243765,0.034443211908568916
1403637150888318976,34.724713,390.568622488307,7.028099166666666,-0.5802267916666666,-2.018535458333333,-0.0230383461263251,0.2192133540504878,0.0551524043630208,1.2600486235804853,3.1252070501211158,-0.009075182401878656
1403637151388318976,49.876451,689.1846598865346,10.558493166666668,0.2778550833333333,-4.028898708333333,0.1096066770252439,-0.104021623418862,0.3427826650916863,1.2146628718447687,4.1008856186006355,0.16181310870729915
1403637151888318976,50.238609,1180.5396179571917,9.422556208333331,0.0408610416666666,-2.655967708333333,-0.0111701072127637,0.0719075651821663,-0.0321140582366956,2.0717812897340138,5.848893641906188,0.14760548142559582
1403637152388318976,50.231695,1319.6513439131534,9.308145291666667,-0.0572054583333333,-3.67749375,-0.0174532925199432,-0.0139626340159546,0.0872664625997164,0.8820675363276002,6.474465469820137,0.03916801454791763
1403637152888318976,39.41226,1038.2507152461626,8.490924458333334,0.6537766666666667,-4.502886791666667,0.0167551608191455,0.0928515162060983,-0.0118682389135614,0.8254079968153925,6.0456693161973,0.027452954284490794
1403637153388318976,49.023628,1297.1944407245262,10.223432625,0.0,-4.053415333333333,0.0048869219055841,-0.0321140582366956,0.0446804288510548,1.0439317771508614,6.719705193936315,0.11756369356946283
1403637153888318976,34.429073,1088.8525978577586,8.000591958333333,-0.5883989999999999,-2.9583394166666666,-0.0565486677646162,0.0621337213709981,0.1137954672300302,2.2297298017676073,7.858048426325342,0.047442456177335224
1403637154388318976,61.919451,891.3646418163092,8.572646541666666,-0.3350605416666666,-2.557901208333333,-0.0677187749773799,0.1850049007113989,-0.1019272283164688,3.2578786906809225,6.233401625320514,-0.036715171459173135
1403637154888318976,50.004483,724.6921314485988,9.618689208333333,0.5883989999999999,-4.36395925,-0.2478367537831947,-0.1200786525372098,0.0537561409614253,2.392402770579429,7.003927497876308,0.1386254425111515
1403637155388318976,49.925089,597.0057702701191,11.343025166666669,0.0653776666666666,-4.0125542916666666,-0.1752310569002306,0.1382300767579508,0.210835773640915,2.6663760021774183,8.784341964216123,0.25500138720388676
1403637155888318976,50.048351,579.8426710361894,9.831166624999998,0.4004382083333333,-2.79489525,-0.4314453910929983,0.0069813170079773,0.1591740277818828,2.902217394986685,10.975882503201394,0.736507319292329
1403637156388318976,38.314104,697.6169764719758,8.67888525,-0.34323275,-2.745862,-0.5592034923389831,0.0328121899374933,0.2611012560983517,4.08661675893741,14.25247420763367,0.4180986482018252
1403637156888318976,50.02594,694.6615355191516,9.863855458333331,-0.1797885833333333,-4.233203916666667,-0.2820452071222836,-0.1110029404268393,0.018151424220741,1.7340623827507542,14.606077169570183,-0.025326529507621487
1403637157388318976,38.234949,1003.481647393667,10.713765125,-0.0735498749999999,-3.857282333333333,0.1494001839707146,0.0083775804095727,0.3134611336581816,4.808936304161584,17.01878550778725,-0.03659498687080642
1403637157888318976,49.916029,743.677623246554,8.368341333333333,0.0898942916666666,-2.40262925,-0.028623399732707,0.2261946710584651,-0.0907571211037051,2.502998507592119,14.483497660663414,-0.2936693101187515
1403637158388318976,60.836315,332.18816129060565,10.329671333333332,0.6701210833333332,-4.225031708333333,-0.2031563249321399,0.0432841654494593,0.2687807048071267,1.5985045187740492,11.703965119729713,0.04228726284583573
1403637158888318976,60.529709,247.92778441099549,10.550320958333334,-0.5148491249999999,-3.505877375,-0.249931148885588,0.0062831853071795,0.057246799465414,6.085027604229089,13.811683994025412,0.6502785003111136
1403637159388318976,65.577746,317.6524538375158,8.237585999999999,-0.4985047083333333,-2.0675687083333334,0.0586430628670094,0.075398223686155,0.0453785605518525,1.1223957011140147,12.559000133124576,-0.09085064612138538
1403637159888318976,50.086499,202.92989343613544,7.853492208333332,-0.2778550833333333,-3.530394,-0.1996656664281513,-0.0747000919853573,0.1473057888683213,5.3987799006742865,13.358941729019175,-0.06828760265541156
1403637160388318976,49.528838,168.11567431929822,9.896544291666666,-0.8253930416666666,-3.178989041666666,-0.6164502918043971,-0.0307177948351002,0.3127630019573839,4.2245628323338025,8.512620091957846,-0.4832489067088872
1403637160888318976,50.633907,475.3704861046564,9.471589458333332,-0.367749375,-3.3506054166666663,-0.2352703831688356,-0.0342084533390888,0.114493598930828,3.9123338584197995,6.266688152450913,-0.6386295017837744
1403637161388318976,47.348499,669.7598601857367,10.460426666666669,0.0081722083333333,-3.505877375,-0.0376991118430775,-0.0174532925199432,-0.0230383461263251,2.9893703504698457,8.50839852033566,-0.36682079240663157
1403637161888318976,50.093651,309.8387098454846,7.861664416666666,-0.2369940416666666,-2.6641399166666666,-0.1996656664281513,0.382576172037157,0.0523598775598298,3.8940781307141696,11.649687874336768,0.16159502115615787
1403637162388318976,39.1078,475.1575177564613,8.711574083333332,-0.1879607916666666,-3.4813607499999994,0.1123992038284348,-0.1773254520026238,0.2848377339254746,4.771237196751655,12.981616047648117,0.331495386655444
1403637162888318976,49.093485,370.2103675632756,8.18855275,0.1307553333333333,-2.6886565416666666,-0.486597795456019,0.1598721594826805,0.1061160185212552,1.076337067266155,13.763921714473367,0.27773986183573207
1403637163388318976,49.056768,344.78046304709187,7.518431666666666,-1.5363751666666667,-3.702010375,-0.635299847725936,0.007679448708775,0.3790855135331683,5.030920584877677,17.375048459897382,0.5677061133913348
1403637163888318976,39.910316,426.0847677517901,10.403221208333331,0.2615106666666666,-4.192342875,-0.0335103216382911,0.0006981317007977,0.1857030324121966,7.039495113264752,23.556772752797634,0.5257486160706613
1403637164388318976,60.101986,351.78577332361897,6.7502440833333335,-0.7191543333333333,-1.1686257916666667,0.0069813170079773,-0.0488692190558412,-0.0886627260013119,6.047540623092795,28.63481407435084,0.4729635044140821
1403637164888318976,36.386252,257.72229522691265,10.288810291666666,-1.5527195833333332,-3.023717083333333,-0.2387610416728242,0.0370009801422797,-0.0383972435438752,10.003915429991958,37.17602223943738,1.2427432670696845
1403637165388318976,38.964748,178.53711356484655,10.149882749999998,-1.0705592916666666,-3.4486719166666666,-0.4237659423842232,-0.2303834612632515,0.1682497398922533,11.04788448700242,48.32358016301069,0.9897726432179681
1403637165888318976,49.287081,195.57648679650472,7.224232166666667,0.2778550833333333,-2.745862,-0.007679448708775,0.0607374579694026,-0.1787217154042193,12.798934419205816,61.01424649449169,0.9760928404240587
1403637166388318976,49.986363,160.6208859883973,8.278447041666666,-0.1062387083333333,-3.8164212916666655,0.2743657584135086,0.7609635538695276,0.171740398396242,19.02884857712335,52.341660087220674,-2.401978826887685
1403637166888318976,50.104379,179.68612162259856,10.002783,-0.8580818749999999,-2.745862,-0.025830872929516,0.0488692190558412,-0.2631956512007449,12.089284762145315,52.149361749699054,0.306523554891605
1403637167388318976,49.415111,162.56248846149734,7.453054,-0.3105439166666667,-1.7570247916666666,0.0788888821901436,-0.2436479635784084,0.3134611336581816,17.407990795169663,53.20050158024099,0.3346954285470858
1403637167888318976,49.893141,163.06519746562324,10.583009791666663,0.4249548333333333,-3.113611375,0.2101376419401172,-0.1487020522699168,-0.0684169066781777,5.29011867086979,46.494919982985934,-0.7374813241805853
1403637168388318976,39.43491,266.9969766430989,8.629852,0.9479761666666666,-1.9776744166666664,0.0328121899374933,0.4091051766674708,-0.0767944870877505,8.714593536036663,35.37699411425653,-0.6495425399673422
1403637168888318976,49.970865,321.7276832688478,8.302963666666667,1.046042666666667,-2.999200458333333,-0.0998328332140756,-0.0774926187885482,-0.0977384381116824,3.3961455405118106,29.251514907276537,-0.6597554861971027
1403637169388318976,44.429303,280.10003633898924,11.056997875,0.1470997499999999,-4.2168595,0.4921828490624009,0.1333431548523667,-0.0684169066781777,6.028595811146458,24.709621753217963,-0.18812365238125395
1403637169888318976,39.16049,331.07977892280337,7.093476833333334,-0.8662540833333333,-2.79489525,0.5305800926062761,0.1975712713257581,-0.1989675347273535,3.252357038390146,19.008083328423655,-0.34582524766544864
1403637170388318976,45.11261,242.04143800142091,8.409202375,0.8417374583333332,-2.280046125,0.6855653301833726,0.0921533845053006,0.2708750999095199,4.178885241671768,19.46587144125596,0.984725865970919
1403637170888318976,39.327383,405.7701405059015,10.24794925,0.956148375,-2.9256505833333333,0.8063421144213804,-0.0202458193231342,-0.0397935069454707,2.4733340234527734,18.71744169395487,-1.627622260140999
1403637171388318976,38.971662,180.57451241058004,11.089686708333334,1.9041245416666663,-4.143309625,0.1410226035611418,0.0719075651821663,-0.1514945790731078,7.790454238089482,13.609886609187722,-0.4234095304860599
1403637171888318976,50.164938,307.5900985224575,8.572646541666666,0.6701210833333332,-2.557901208333333,-0.0893608577021096,0.0293215314335047,0.1410226035611418,13.035423622892193,15.042258873689796,0.9339623675837476
1403637172388318976,38.798094,142.11117752479674,11.040653458333331,0.5475379583333333,-3.415983083333333,0.0537561409614253,-0.208043246837724,0.4572762640225143,6.487402091484541,17.183910323277154,0.508968870613657
1403637172888318976,60.538769,87.116924056412,7.665531416666666,0.9234595416666666,-1.1195925416666666,-0.2659881780039358,-0.4970697709679851,0.1494001839707146,8.086451553604881,15.18136672239396,-0.31791154524339404
1403637173388318976,35.371542,113.96385493588434,9.054806833333332,0.661948875,-1.9531577916666665,-0.4440117617073574,0.3546509040052477,0.3225368457685521,8.87043415089598,21.60235100218214,1.2023098613450003
1403637173888318976,49.932242,82.54021335447347,11.293991916666666,0.2288218333333333,-4.16782625,-0.4000294645571003,-0.3085742117525974,0.0788888821901436,6.286199463409817,27.986956342075718,0.31924031813453624
1403637174388318976,49.767971,166.89854198984813,10.166227166666664,-1.0705592916666666,-3.571255041666667,0.0670206432765822,0.2150245638457014,0.2722713633111154,4.270166059791594,23.7777387722032,-0.35191371992672416
1403637174888318976,61.781883,159.45540948501218,10.370532375,-0.44129925,-3.538566208333333,-0.5857324969692971,-0.189891822616983,0.268082573106329,1.7451364591939744,22.162446545354157,-0.40659088872876836
1403637175388318976,49.232244,197.81288266761177,8.319308083333333,-0.7927042083333332,-2.30456275,-0.0607374579694026,0.1075122819228507,0.1850049007113989,3.6571951502305993,19.937991764808764,-0.24058149417806973
1403637175888318976,39.773226,180.6838891266009,9.299973083333333,-1.1767979999999998,-3.571255041666667,-0.08307767239493,0.0048869219055841,-0.2631956512007449,6.919079069414706,17.760219107085582,0.14136178797416932
1403637176388318976,49.89171,468.4749495746563,7.453054,-0.4331270416666666,-2.288218333333333,-0.0872664625997164,-0.0865683308989187,0.0314159265358979,6.399204758836087,21.129120631244092,0.6180136382156718
1403637176888318976,51.621437,436.3474315665683,7.690048041666667,0.416782625,-2.2555295,-0.1207767842380075,-0.1172861257340189,0.0635299847725936,5.166979973165762,26.821636755566598,0.5218815203605232
1403637177388318976,65.113306,478.52435281302536,9.782133375,-0.318716125,-2.745862,-0.0663225115757845,-0.0404916386462684,-0.0300196631343024,9.220977789046083,34.56771166229122,1.0201434293906857
1403637177888318976,45.802117,404.96654194624006,8.38468575,0.3840937916666667,-1.7488525833333333,-0.296705972839036,0.1549852375770964,0.2534218073895766,3.131456213238489,40.78748475956972,0.4765930516299619
1403637178388318976,49.837589,368.4472781089476,10.002783,-0.0408610416666666,-4.4211647083333325,-0.2555162024919699,0.1787217154042193,-0.0621337213709981,13.50045380251055,40.77210166039683,-0.622106969661246
1403637178888318976,39.074182,290.22828174328384,8.253930416666666,-0.0572054583333333,-2.7213453750000003,0.1577777643802873,0.1870992958137921,0.4733332931408622,8.314146559562234,34.43889518258463,-0.9815255421252829
1403637179388318976,49.989938,585.4857377850159,10.378704583333333,0.367749375,-4.584608875,0.0167551608191455,0.0139626340159546,-0.064926248174189,2.679234600355034,34.6074876068169,-0.3801088956845504
1403637179888318976,60.520172,551.3895004767425,7.951558708333333,-0.8253930416666666,-2.811239666666667,-0.1654572130890624,0.0788888821901436,-0.2541199390903744,3.366876767207947,30.402598122894386,-0.7770149938632791
1403637180388318976,49.849272,300.41330523422846,9.978266375,0.196133,-3.718354791666666,0.0537561409614253,-0.3351032163829112,0.210835773640915,9.049694084892934,21.934414189161835,-0.4104748327522465
1403637180888318976,48.411608,503.0171364908987,6.905516041666667,0.4331270416666666,-3.6284605,-0.1542871058762987,0.122173047639603,-0.268082573106329,9.206067830486862,17.705463197541498,-0.3190945411799895
1403637181388318976,49.84212,303.188435864997,10.256121458333332,0.220649625,-3.195333458333333,-0.0509636141582344,0.0844739357965255,0.0251327412287183,8.079946450571814,18.4552839007904,0.11861953294229721
1403637181888318976,39.135933,331.6408284821728,8.253930416666666,0.5148491249999999,-2.2555295,0.0,0.0349065850398865,0.1549852375770964,3.526252938675693,19.80460189219368,0.19024084372887273
1403637182388318976,59.995175,274.6269784765789,8.981256958333333,0.93163175,-2.549729,0.161268422884276,0.2778564169174973,0.2317797246648469,6.6932001281599875,26.40408012438839,0.2262315702954325
1403637182888318976,60.982466,416.33579336596665,8.932223708333334,0.6701210833333332,-2.623278875,0.0397935069454707,-0.028623399732707,0.2345722514680378,4.817055604745776,32.56273733561933,1.0604967178973759
1403637183388318976,51.698208,556.9810211841695,9.896544291666666,0.809048625,-3.4731885416666666,-0.0300196631343024,0.0907571211037051,0.046774823953448,3.289086861418168,38.63910795552727,0.11808608102818141
1403637183888318976,49.052477,494.2962626956256,9.814822208333332,0.7600153749999999,-2.745862,0.0083775804095727,-0.1570796326794896,0.2415535684760151,8.469412681687439,36.202139010189676,0.23849859450801603
1403637184388318976,39.255142,438.3759830718038,8.360169125,-0.5475379583333333,-2.1983240416666665,-0.1417207352619395,-0.0356047167406843,-0.3197443189653611,3.5231224939242556,38.48251680636573,0.23850648299540467
1403637184888318976,65.39321,113.13686165484926,9.765788958333331,0.1144109166666666,-2.165635208333333,0.0006981317007977,-0.1361356816555577,-0.0111701072127637,5.7467144909624395,40.73334215943448,-0.38778254267216994
1403637185388318976,54.435015,147.65796186869372,7.681875833333333,0.0980665,-2.8847895416666667,-0.0991347015132779,-0.143116998663535,-0.1382300767579508,27.291576677963754,47.29208304507812,0.4468950308108859
1403637185888318976,61.725616,141.2508153077385,8.866846041666665,0.5720545833333333,-3.97169325,-0.075398223686155,0.2268928027592628,0.0048869219055841,9.974279495505717,50.80313239761518,0.2680098410792269
1403637186388318976,38.610935,204.81681775948613,11.310336333333332,0.1797885833333333,-4.453853541666667,-0.0111701072127637,0.0684169066781777,0.1389282084587486,7.175321324526954,56.05505046477678,0.2504442905178692
1403637186888318976,50.360203,355.72825756951977,7.698220249999999,-0.4576436666666666,-3.636632708333333,0.0788888821901436,0.0439822971502571,0.3351032163829112,5.477038674104599,55.99679175609562,-0.11396923682295323
1403637187388318976,49.834966,278.1240154129165,9.888372083333332,0.6701210833333332,-2.8602729166666667,-0.1982694030265558,-0.1172861257340189,-0.1382300767579508,4.854656285610476,56.44462111777491,-0.03259145281464271
1403637187888318976,49.919605,694.2111721763229,9.398039583333333,-0.53936575,-3.3260887916666664,-0.0767944870877505,-0.0174532925199432,-0.0300196631343024,5.880567108624994,55.401128132534936,0.31811221655002697
1403637188388318976,49.660921,753.6301341188614,10.574837583333332,-0.34323275,-3.268883333333333,0.0244346095279206,0.2275909344600605,0.2199114857512855,4.383233066574198,55.240970395785396,-0.06005329552019134
1403637188888318976,49.657822,657.1994465798844,9.863855458333331,-0.5475379583333333,-2.50069575,-0.2813470754214859,-0.0300196631343024,0.2122320370425104,4.125082587265045,53.63672767609192,-0.7762833793901649
1403637189388318976,48.994303,501.1531939645383,9.724927916666667,-0.7109821249999999,-3.8164212916666655,0.0481710873550434,0.3804817769347638,0.1214749159388053,7.13096398147507,51.099763477214644,0.6319282412273068
1403637189888318976,60.699225,607.034143736892,10.533976541666666,0.44129925,-4.862463958333334,0.0104719755119659,0.0872664625997164,0.0670206432765822,6.740591052130688,51.42356788552851,0.09364998166622485
1403637190388318976,39.186239,487.87316372190384,10.166227166666664,-0.73549875,-3.28522775,0.0802851455917391,0.0188495559215387,0.293913446035845,1.9824872649827785,55.037502815506514,0.11697147897561422
1403637190888318976,39.493322,575.127760128545,8.376513541666666,-0.8499096666666667,-3.0073726666666665,0.2338741197672401,0.0202458193231342,0.0837758040957278,1.871736256836529,57.927019651315526,0.4417086638600267
1403637191388318976,49.922943,483.4887503558465,10.648387458333334,-1.0705592916666666,-4.633642125,-0.0488692190558412,0.0223402144255274,-0.0174532925199432,3.935711120112786,62.08551873238603,0.3091006340012754
1403637191888318976,49.79229,345.8977354298528,10.468598874999998,-0.2288218333333333,-3.2443667083333327,-0.1361356816555577,0.1033234917180643,-0.143116998663535,5.26494064411388,65.62219409020543,0.3782462828264812
1403637192388318976,47.04094,436.0421744751066,8.825985,-0.1062387083333333,-3.546738416666667,-0.036302848441482,0.0879645943005142,0.0307177948351002,6.163046980123942,68.68112536346844,-0.026237611122169824
1403637192888318976,49.76201,412.79474272725327,10.092677291666664,-0.44129925,-4.274064958333334,0.0586430628670094,0.1577777643802873,0.1061160185212552,2.70536709041822,67.90605836643171,-0.465543728126093
1403637193388318976,62.134981,337.0756076279595,9.577828166666666,0.5311935416666667,-3.309744375,-0.1137954672300302,0.3029891581462156,-0.2129301687433081,2.0394989344753727,67.28628545375787,0.023288903268351646
1403637193888318976,49.768209,407.0662497357862,8.580818749999999,0.2288218333333333,-2.974683833333333,0.0509636141582344,0.0837758040957278,0.1563815009786919,1.8798743507014568,66.34118578409422,-0.14514976607182462
1403637194388318976,33.398628,412.9163463691652,8.629852,0.4903325,-2.705000958333333,-0.0069813170079773,-0.0048869219055841,0.0551524043630208,1.5324593280605492,64.88570153862067,-0.11392701814486372
1403637194888318976,50.175667,339.6891002347451,10.059988458333333,0.220649625,-3.4241552916666667,0.0153588974175501,-0.0886627260013119,0.122173047639603,1.9451901460550238,63.56940788070141,-0.17430175610507348
1403637195388318976,50.025225,322.1695360048538,7.84532,-0.3759215833333333,-3.358777625,0.0349065850398865,-0.0244346095279206,0.1186823891356144,1.4999002921678055,61.71729279497554,-0.03576793678090695
1403637195888318976,49.975156,278.76889727974924,6.799277333333333,0.024516625,-3.211677875,-0.0139626340159546,-0.0055850536063818,-0.1654572130890624,0.7676766521371393,61.65287144232687,-0.04047592124362609
1403637196388318976,49.79682,312.4665557585871,5.941195458333333,0.0898942916666666,-2.69682875,-0.0474729556542457,0.0949459113084915,0.007679448708775,2.7747303313109444,62.700286341333744,0.4991206036830036
1403637196888318976,61.988593,283.6242578209656,9.005773583333333,-0.3350605416666666,-3.023717083333333,-0.0321140582366956,0.1075122819228507,0.1500983156715123,1.1244570943480046,60.1424018857158,-0.026264968350169227
1403637197388318976,50.40145,207.8485286189322,10.83634825,-0.4086104166666666,-5.213868916666666,0.6569419304506656,-0.1996656664281513,-0.0418879020478639,18.418623589526256,41.833181855923144,-0.8710676909072674
1403637197888318976,50.933599,346.9388851025586,11.007964625,0.4739880833333333,-4.16782625,0.7518878417591571,0.1354375499547599,-0.1745329251994329,4.565283066958897,40.90345919580409,0.0940563537413226
1403637198388318976,37.933588,373.2153250992575,8.850501625,0.4249548333333333,-3.9880376666666666,0.382576172037157,0.0928515162060983,-0.2415535684760151,7.530562318004138,37.73374267458539,-2.1834846550353504
1403637198888318976,49.845457,464.7943255742946,10.109021708333332,0.5475379583333333,-4.094276375,-0.0111701072127637,0.2282890661608583,0.249931148885588,6.831918122459111,29.083649151336882,-1.0971076332771155
1403637199388318976,51.839113,489.4349454174212,10.419565625,-0.2615106666666666,-3.636632708333333,0.5410520681182421,0.0656243798749867,0.0125663706143591,5.20860173545706,24.180142825054265,-0.4074899301594641
1403637199888318976,50.292969,482.83773138706033,9.7085835,-0.2369940416666666,-3.67749375,0.8649851772883896,0.3735004599267865,0.333008821280518,5.18311793667808,21.774101376757326,0.19606754742463295
1403637200388318976,49.559832,478.1312902217412,9.56148375,0.2533384583333333,-4.976874874999999,0.3295181627765294,-0.6723008278682158,-0.2115339053417127,12.60869126558222,29.79915944561271,-0.6459836326458692
1403637200888318976,49.834967,1184.2817773580484,9.487933875,0.24516625,-3.57942725,-0.2052507200345331,0.0635299847725936,0.0886627260013119,6.918040419024769,39.85594676804973,1.1104968326039355
1403637201388318976,70.758343,795.3014428205919,7.714564666666666,-0.24516625,-2.655967708333333,-0.1933824811209717,-0.2401573050744197,0.5654866776461628,8.523736688637417,51.632242057240994,1.5659111878553844
1403637201888318976,59.797525,1140.8540298150997,10.811831625,0.2369940416666666,-3.693838166666666,-0.0942477796076938,0.0670206432765822,0.007679448708775,7.001023082233073,59.20145617706927,0.3206681742575199
1403637202388318976,38.778067,705.6743025026927,7.763597916666666,0.1634441666666666,-2.9011339583333333,-0.1417207352619395,-0.0977384381116824,-0.2485348854839925,3.069422333862441,56.85818318806001,-0.45188923696266414
1403637202888318976,65.415144,955.9508897802074,9.210078791666666,-0.3759215833333333,-3.3506054166666663,-0.0642281164733913,0.0586430628670094,-0.0998328332140756,1.6982059627292903,54.85612604918172,-0.41400554139854506
1403637203388318976,49.809933,937.2522121411135,7.918869874999999,0.4086104166666666,-2.982856041666666,-0.0523598775598298,0.0593411945678072,0.0272271363311115,3.6662056278054522,49.66568991554985,-0.43394035194263125
1403637203888318976,50.007582,709.401490479406,7.79628675,0.318716125,-4.004382083333333,-0.0418879020478639,-0.0265290046303138,0.093549647906896,2.5139612830611826,45.861726938708436,-0.32662534651777264
1403637204388318976,55.827141,445.1461205666638,10.117193916666666,-1.005181625,-3.718354791666666,0.0055850536063818,0.1424188669627373,0.1117010721276371,2.5617637697420372,42.864315789770124,-0.26537874181941135
1403637204888318976,49.197436,417.71188596364055,10.027299625,-1.054214875,-3.751043625,-0.0370009801422797,-0.1347394182539622,0.1382300767579508,1.8462575531009082,41.41107468954024,-0.21969981376788894
1403637205388318976,49.751997,367.6149909692162,9.283628666666663,0.2124774166666666,-4.208687291666666,0.1242674427419962,0.0349065850398865,-0.0418879020478639,1.2046640773823472,40.51471424886781,0.014239141626397611
1403637205888318976,65.067768,505.5550192743503,8.564474333333333,-0.2288218333333333,-1.5363751666666667,0.0034906585039886,0.057246799465414,0.0425860337486616,0.7817190696480627,41.719949956202065,0.0926471970828402
1403637206388318976,49.57819,525.9977184216717,10.141710541666669,-0.2369940416666666,-3.0564059166666664,-0.0279252680319092,0.0614355896702004,0.1207767842380075,0.9155949102684701,43.358874804427494,0.2677406958851378
1403637206888318976,49.936056,582.9064796471624,8.9240515,-0.5965712083333333,-4.192342875,0.0006981317007977,0.0118682389135614,0.0237364778271228,1.9156499822135111,43.06305066327092,-0.004426683213935689
1403637207388318976,49.857617,596.6389373466998,6.9300326666666665,0.0572054583333333,-2.0675687083333334,-0.0446804288510548,0.0195476876223364,0.0733038285837618,1.4546990373528526,43.689248513615134,0.03489103932354709
1403637207888318976,60.919284,400.7441573338459,11.71894675,0.024516625,-3.407810875,-0.0460766922526503,0.1103048087260416,-0.0251327412287183,0.7192982833047097,44.188132592154474,0.20885092315992893
1403637208388318976,49.821138,506.7359379945117,9.406211791666664,0.0980665,-1.9776744166666664,-0.0328121899374933,0.0293215314335047,0.0949459113084915,1.9331635071186788,45.34631800149438,-0.027829033996830788
1403637208888318976,53.570509,487.9938162231831,8.7279185,-0.220649625,-3.857282333333333,-0.0509636141582344,-0.0809832772925368,-0.0481710873550434,1.407892453519396,47.146637032803156,0.15543218218087418
1403637209388318976,60.604334,292.6512026715742,10.501287708333331,0.6292600416666666,-3.0564059166666664,0.2841396022246769,-0.1815142422074102,0.0809832772925368,0.9139921793304011,47.874453858639306,0.06999775819063103
1403637209888318976,39.372682,565.7276623005268,7.837147791666666,-0.0163444166666666,-3.636632708333333,0.0279252680319092,-0.1277581012459849,0.1082104136236484,1.0754691066100215,49.32210275841139,-0.1515024742057065
1403637210388318976,50.869227,762.6337541839522,11.056997875,0.0735498749999999,-3.718354791666666,-0.0111701072127637,-0.0621337213709981,0.0823795406941323,1.5063967665487699,49.07590214059617,-0.1077485340172828
1403637210888318976,61.478615,561.6550019323657,10.256121458333332,0.4331270416666666,-2.1002575416666667,0.140324471860344,0.3218387140677544,0.3651228795172137,1.3004778558485734,48.74599792228486,-0.14517543419643886
1403637211388318976,62.762976,796.6621831813045,9.389867375,0.392266,-2.5905900416666663,-0.0886627260013119,0.2422517001768129,-0.0188495559215387,1.2672420848114188,47.78568099156607,0.5505603168172541
1403637211888318976,49.998998,777.1792747007967,11.612708041666664,-0.5475379583333333,-4.797086291666667,-0.0244346095279206,-0.0740019602845595,0.0216420827247296,1.128197609602675,46.04152027511958,0.15634319558171939
1403637212388318976,49.824476,726.2443565934768,9.234595416666666,-0.220649625,-5.401829708333333,-0.0879645943005142,0.1284562329467826,0.0474729556542457,2.906489915169904,45.5670974670488,0.12110098360011534
1403637212888318976,37.647724,733.2085613009466,9.880199875,0.0980665,-3.832765708333333,0.0069813170079773,0.0342084533390888,0.0844739357965255,6.57916809673072,40.86271059634047,0.18497677374146804
1403637213388318976,65.066576,728.0867951692869,9.291800875,0.2124774166666666,-3.963521041666666,0.0349065850398865,0.0586430628670094,0.124965574442794,7.970599786686543,36.75128819105476,-0.6845479038820415
1403637213888318976,49.484253,754.2082926478262,9.152873333333332,-0.1797885833333333,-4.960530458333333,0.0146607657167523,-0.054454272662223,0.0516617458590321,3.2393853172158122,42.66525606227049,0.09018273637266105
1403637214388318976,50.040722,424.7722823170605,9.112012291666666,-0.3840937916666667,-4.339442625,0.3979350694547071,0.1480039205691191,-0.3008947630438224,3.078991583542506,46.18851557044466,0.9454682967596142
1403637214888318976,50.441981,604.3783346094503,9.945577541666664,1.0950759166666666,-2.827584083333333,0.1347394182539622,0.1235693110411985,0.0216420827247296,3.1977157050069094,50.17925607951052,-0.798772872370229
1403637215388318976,50.651551,457.9763304849816,10.288810291666666,-0.4903325,-4.045243125,0.3204424506661589,0.1689478715930511,0.364424747816416,1.36044939683749,53.844623300519466,0.39664525195593825
1403637215888318976,50.216913,359.4069480199177,9.635033625,0.5720545833333333,-3.7673880416666665,0.5201081170943103,-0.0921533845053006,0.025830872929516,1.287541971611919,56.782614048663824,0.2698335896984929
1403637216388318976,42.27829,414.2561042714648,9.978266375,0.4004382083333333,-2.868445125,0.0900589894029074,0.1333431548523667,0.0963421747100869,5.402279013361526,58.39521900256132,-0.03904183640248249
1403637216888318976,57.40714,624.7141856361943,10.599354208333333,0.0326888333333333,-3.5957716666666664,-0.0949459113084915,0.0844739357965255,0.0132645023151569,4.508601344319424,57.2662224069167,-0.28341110092732436
1403637217388318976,48.692703,626.5587509512088,9.226423208333332,0.6701210833333332,-2.4189736666666666,-0.0404916386462684,-0.0146607657167523,0.1919862177193762,2.9575367147920275,54.839630650277485,-0.032785720045154676
1403637217888318976,41.903496,360.7301317570916,8.866846041666665,0.0408610416666666,-4.208687291666666,0.403520123061089,-0.143116998663535,-0.2345722514680378,4.018885944690163,53.50699657849416,-0.40865019294020755
1403637218388318976,57.038068,447.4288324533584,8.082314041666667,0.8907707083333333,-3.546738416666667,0.0356047167406843,0.0293215314335047,0.0530580092606276,3.796635774842252,44.44290665621869,-0.6934797841376295
1403637218888318976,42.640209,435.24162271232063,8.588990958333333,0.416782625,-3.2035056666666666,-0.0823795406941323,0.0376991118430775,-0.1110029404268393,1.9803943334267204,39.61150012052572,-0.7931049513429187
1403637219388318976,55.272818,615.2596797834243,11.089686708333334,-0.5066769166666666,-2.4189736666666666,0.0342084533390888,-0.064926248174189,0.1689478715930511,4.465153381361306,32.75216308413739,-0.9254964570029998
1403637219888318976,60.115099,783.5218396440941,11.833357666666666,0.8662540833333333,-2.018535458333333,0.0013962634015954,0.0516617458590321,0.1836086373098034,10.614889422361024,38.30748476427479,1.7624906038131343
1403637220388318976,60.858965,719.6660698330049,9.095667875,1.3402421666666664,-2.8357562916666668,0.0621337213709981,0.2541199390903744,0.317649923862968,5.924227870566245,48.49576068136142,2.5097531269421367
1403637220888318976,38.851261,1139.470633268896,9.308145291666667,-0.0653776666666666,-2.1983240416666665,-0.0502654824574366,0.0279252680319092,0.0307177948351002,6.2909407118194105,57.37255814795943,-3.728771888628131
1403637221388318976,48.946142,1780.8481621981275,11.408402833333332,-0.0735498749999999,-3.751043625,-0.2031563249321399,0.0663225115757845,0.2324778563656447,2.678176832484242,60.78119136116405,0.3244983743060956
1403637221888318976,48.785687,1433.5143592357856,9.046634625,0.0653776666666666,-4.208687291666666,-0.2094395102393195,-0.0404916386462684,0.1870992958137921,9.777238833314923,58.54374648289318,-0.2722471989459194
1403637222388318976,62.931538,2268.43634603748,10.550320958333334,-0.0653776666666666,-2.181979625,-0.2562143341927675,0.3427826650916863,0.1696460032938488,2.6823981548115565,58.94682149139605,-0.1530560646930894
1403637222888318976,49.320221,1156.1480855447517,9.610517,0.024516625,-3.857282333333333,0.0146607657167523,-0.2485348854839925,0.0216420827247296,2.688084857249806,59.3172693750257,0.5003778854531475
1403637223388318976,50.350666,1352.0225849578612,10.509459916666668,0.0081722083333333,-4.486542375,0.0628318530717958,0.1619665545850737,0.0516617458590321,2.815960784641671,59.22447290473395,-0.07904928348948204
1403637223888318976,69.994688,2165.0561126317552,8.817812791666666,0.465815875,-4.429336916666666,0.036302848441482,0.0760963553869527,0.1054178868204575,6.057991951795288,62.62767435088139,0.13174572370326842
1403637224388318976,44.553042,2105.2354414959186,7.036271375,0.5475379583333333,-1.8796079166666664,-0.075398223686155,0.0223402144255274,-0.0614355896702004,1.087430089711134,62.955883647231445,0.1253592600977882
1403637224888318976,50.490856,2547.8668486783167,8.703401874999999,1.201314625,-2.827584083333333,-0.057246799465414,0.1591740277818828,-0.1096066770252439,0.9229750154775941,63.09823398719596,-0.03773868331054331
1403637225388318976,64.931154,2660.2025627342223,8.597163166666666,0.4331270416666666,-3.97169325,0.0530580092606276,0.1082104136236484,0.036302848441482,1.9094144950762657,62.76877138032396,0.23869276687302943
1403637225888318976,61.744213,1935.864416583082,9.36535075,0.4086104166666666,-3.4731885416666666,0.0439822971502571,0.1340412865531645,0.0642281164733913,1.6007527280002338,62.63679102885737,-0.243779450971509
1403637226388318976,54.312468,1961.1029074063676,9.700411291666663,0.3350605416666666,-3.530394,-0.0167551608191455,-0.2555162024919699,0.0439822971502571,1.9497404122387703,64.96804130595913,0.45874425760071347
1403637226888318976,39.836645,1631.9208358924357,8.368341333333333,0.4249548333333333,-2.3699404166666667,0.0446804288510548,0.1158898623324234,0.1940806128217694,1.397079511300244,67.84151929393202,0.5240734823503885
1403637227388318976,44.737339,2875.094310959405,8.597163166666666,0.171616375,-4.715364208333333,-0.0816814089933346,-0.0844739357965255,-0.0760963553869527,1.0408293461191997,69.46794709160788,-0.0765664364429881
1403637227888318976,49.703359,2145.206591970017,8.294791458333332,1.005181625,-3.7919046666666665,-0.0781907504893459,0.1954768762233649,-0.0698131700797731,1.8577398517833936,69.18114280867921,0.1462347182631163
1403637228388318976,49.669265,2738.723817862646,8.638024208333333,-0.0653776666666666,-3.2443667083333327,-0.0055850536063818,-0.0279252680319092,0.0865683308989187,0.4066086076971891,68.86660326633263,0.04396420730438422
1403637228888318976,60.178518,2559.3542612116307,7.50208725,0.6047434166666666,-2.582417833333333,0.0013962634015954,-0.064926248174189,0.1026253600172665,1.2073206011005935,70.46868348306425,0.2744015391119632
1403637229388318976,51.398992,1396.6912295221996,8.858673833333333,-0.0735498749999999,-3.661149333333333,-0.1494001839707146,-0.2457423586808016,0.4454080251089529,1.1026139714699352,70.50967510052183,-0.1859142867978676
1403637229888318976,50.27914,627.8393571222579,8.572646541666666,-0.171616375,-3.0400615,-0.728849495632832,0.2757620218151041,0.0516617458590321,2.7023789222622145,71.02822144729359,-0.12186663309240942
1403637230388318976,50.037146,2121.485807882578,10.370532375,0.3268883333333333,-4.617297708333333,-0.208043246837724,0.1640609496874669,0.1884955592153876,0.5462696554864948,70.46670739074004,0.02506069194510019
1403637230888318976,62.078714,838.7144958059461,8.139519499999999,0.5230213333333333,-2.3372515833333334,-0.5431464632206354,-0.2352703831688356,0.3686135380212024,3.31199060821114,70.60421402428861,-0.06818995233622616
1403637231388318976,39.237977,666.2148454288123,9.152873333333332,-0.784532,-2.705000958333333,-0.814719694830953,0.1075122819228507,0.4635594493296939,1.9881662026609372,68.50726803115447,0.015351573797403262
1403637231888318976,34.484148,491.99241547114406,11.416575041666665,-0.0817220833333333,-4.225031708333333,-0.7030186227033159,-0.1110029404268393,0.2988003679414292,6.68430350494998,61.32889021371495,-1.643165888306207
1403637232388318976,36.849499,483.7928325293232,8.613507583333332,0.4331270416666666,-3.571255041666667,-0.5550147021341968,0.1968731396249603,0.1605702911834783,7.931117706474694,53.43692751952075,-0.5407682472203774
1403637232888318976,38.640737,449.4611369404549,9.07115125,0.0653776666666666,-4.208687291666666,-0.4300491276914028,-0.2911209192326541,0.1179842574348166,7.518606042095098,50.13967476725435,-0.3910093557113825
1403637233388318976,48.715591,702.4933198164379,8.164036124999999,0.122583125,-3.097266958333333,0.0097738438111682,-0.0774926187885482,-0.0300196631343024,7.439680709650657,51.72934559482159,0.3980424700240093
1403637233888318976,39.652825,416.4458456379837,7.3549875,-0.2860272916666666,-3.048233708333333,-0.1633628179866692,0.2534218073895766,-0.2429498318776106,7.235713886306453,62.36307151530377,1.273946081479771
1403637234388318976,38.802624,329.5749317403394,10.501287708333331,-0.9724927916666666,-4.4129925,0.1661553447898601,0.0167551608191455,0.4558800006209189,5.5118058880675775,65.69884925718635,0.20223279465932364
1403637234888318976,34.578323,289.4622911982347,8.343824708333333,0.4086104166666666,-2.1983240416666665,0.5787511799613196,0.0216420827247296,0.4244640740850209,4.451480897408104,65.35239757097332,-0.44885285685714393
1403637235388318976,50.697565,338.48370210681264,11.155064374999998,-0.4249548333333333,-4.184170666666667,0.1947787445225671,-0.4042182547618868,-0.054454272662223,1.3469425521153156,61.80674708330562,-0.321471225255479
1403637235888318976,48.191547,388.93655117326,10.991620208333332,-0.5230213333333333,-3.505877375,0.249931148885588,0.268082573106329,-0.4775220833456485,3.86988185845799,59.559379402284186,-0.648506374177046
1403637236388318976,57.936669,359.7685815052688,11.187753208333334,0.5557101666666666,-3.407810875,0.4537856055185256,0.0593411945678072,0.1075122819228507,5.176746185321168,58.03745087818697,-0.31475508579433864
1403637236888318976,49.809933,269.1705017702008,10.476771083333333,0.7436709583333333,-4.1024485833333335,0.3881612256435388,0.4028219913602912,0.2296853295624537,4.412610058832183,53.16694855833774,-0.416257964195367
1403637237388318976,40.520429,630.7032625269569,8.932223708333334,0.0898942916666666,-4.037070916666667,0.3190461872645634,-0.0481710873550434,0.1731366617978375,4.268774504442124,45.25725214326508,-0.3583693995556132
1403637237888318976,49.405336,981.7777993828902,7.771770125,-0.024516625,-3.955348833333333,-0.1200786525372098,-0.2254965393576673,0.3295181627765294,5.066318122245968,35.73009109356719,-1.3219522206585879
1403637238388318976,41.773319,503.9086907132765,9.16921775,0.1062387083333333,-3.268883333333333,-0.6199409503083859,0.0055850536063818,0.6583381938522611,5.149664011328486,28.10391878016787,-0.23693651826132012
1403637238888318976,42.533874,94.73618155127964,10.607526416666667,-0.3350605416666666,-3.930832208333333,-0.3378957431861022,-0.5731661263549379,0.278554548618295,11.456820473989625,23.82999236361342,-0.27721997644150775
1403637239388318976,50.192833,102.07042804070817,8.588990958333333,-0.8172208333333333,-3.8245935,-0.3735004599267865,0.2617993877991494,0.1668534764906579,4.061582867754721,31.290637457753657,1.2600101728832769
1403637239888318976,52.114248,128.73870787238758,8.981256958333333,0.2860272916666666,-4.16782625,-0.6555456670490701,0.5424483315198376,0.1354375499547599,4.91742932372466,46.30257457711367,0.9427045302987977
1403637240388318976,49.721002,356.9260886592164,11.334852958333332,-0.5883989999999999,-5.058596958333333,-0.4468042885105484,-0.418879020478639,0.0642281164733913,4.486846557313038,57.70146369801778,1.011253837349713
1403637240888318976,35.446167,317.6454354814651,9.929233125,-0.2124774166666666,-3.072750333333333,-0.0041887902047863,0.4928809807631986,-0.0670206432765822,8.500446884813433,64.87929882935144,0.6129518270746814
1403637241388318976,38.724185,387.3344081519584,10.533976541666666,-0.367749375,-3.6448049166666654,-0.0027925268031909,0.0949459113084915,-0.0663225115757845,3.613504725816968,73.32182279771551,1.0419457823200418
1403637241888318976,39.04295,290.28570134189914,9.144701125,-0.4739880833333333,-4.429336916666666,0.1186823891356144,0.3239331091701475,0.3714060648243933,3.400171633616362,79.90882165747695,0.5718264335861107
1403637242388318976,23.204803,255.89854696172205,8.057797416666666,-0.2124774166666666,-3.1054391666666663,-0.1242674427419962,0.0816814089933346,-0.1563815009786919,1.9702608173029255,82.5338588555314,0.1927348318572939
1403637242888318976,39.023161,197.2543683119825,8.956740333333332,0.661948875,-3.178989041666666,0.3134611336581816,0.1968731396249603,0.132645023151569,1.4879447342719267,83.10600354492496,-0.06764089120281369
1403637243388318976,39.243221,274.5212841000818,8.311135875,0.83356525,-3.57942725,-0.0006981317007977,-0.124965574442794,0.2115339053417127,5.87245940152083,81.75798479896197,-0.33356069707195957
1403637243888318976,60.314179,286.79330106233385,9.577828166666666,0.2533384583333333,-3.710182583333333,0.0425860337486616,-0.1584758960810851,0.2799508120198904,2.1569791878159337,75.78276221925782,-0.5693923446036422
1403637244388318976,50.167083,434.2047939979128,11.473780499999998,0.3759215833333333,-3.8082490833333327,0.085870199198121,-0.1228711793404008,0.0209439510239319,3.230796856120021,71.30704129294035,-0.3805348433660356
1403637244888318976,38.2514,380.7077843060927,6.815621749999999,0.3023717083333333,-1.838746875,0.1577777643802873,0.0342084533390888,0.0055850536063818,2.180260073357887,67.81515888191679,-0.40953430090897314
1403637245388318976,49.806118,530.8950199512218,9.635033625,0.3514049583333333,-3.4650163333333333,-0.0397935069454707,0.1382300767579508,-0.1417207352619395,2.4617639405744165,63.02176225998145,-0.1414880759073256
1403637245888318976,39.051295,286.600131690664,10.83634825,-0.2369940416666666,-4.290409374999999,0.6087708430956222,0.3371976114853044,-0.1137954672300302,3.227002298260729,64.28998915843927,-0.15431221072891788
1403637246388318976,50.817013,323.3802310535943,9.929233125,0.3595771666666666,-3.048233708333333,0.8852309966115239,0.260403124397554,-0.4852015320544235,1.71848074886508,61.691157852193044,0.48928176314820604
1403637246888318976,33.789635,469.59667049854073,9.9047165,-0.4903325,-4.682675375,0.7120943348136864,-0.0083775804095727,-0.0914552528045028,3.168102669594771,62.468238131478984,0.19757043590929868
1403637247388318976,50.223112,325.18291662832195,8.425546791666665,-0.2533384583333333,-2.99102825,0.0,0.6646213791594406,0.0760963553869527,5.69548042801081,64.54005215031395,0.1735903578775151
1403637247888318976,51.252842,586.5185600162566,9.831166624999998,-0.4494714583333333,-2.7622064166666664,0.3909537524467298,0.1891936909161853,0.0907571211037051,9.174355702593513,52.481215619777565,-0.29215714598112186
1403637248388318976,49.02649,436.1760440833593,7.624670374999999,-0.4004382083333333,-2.4516625,0.15079644737231,0.028623399732707,0.1410226035611418,4.3390673140496645,49.35948570795784,-0.564189724279565
1403637248888318976,38.746595,251.2126274003355,11.310336333333332,0.0735498749999999,-4.862463958333334,-0.0013962634015954,0.0,0.2261946710584651,4.442674101447893,44.39650825046667,-0.5826158057117468
1403637249388318976,38.308859,247.8970993691686,8.38468575,0.5230213333333333,-3.849110125,0.0097738438111682,0.0376991118430775,0.1682497398922533,11.119109090985328,36.205910228052154,-0.8171203943468868
1403637249888318976,49.946785,273.5375239056588,9.299973083333333,0.0081722083333333,-2.132946375,0.1605702911834783,0.0279252680319092,-0.0265290046303138,5.845052034901798,23.75522670365401,-1.2359273130252006
1403637250388318976,50.506115,270.68338683243144,9.152873333333332,-0.1307553333333333,-3.849110125,0.1731366617978375,-0.0565486677646162,0.1668534764906579,3.9090878920164593,12.836141609038041,-0.8520852828951568
1403637250888318976,54.273605,876.4704664492549,7.763597916666666,0.9398039583333332,-3.317916583333333,0.0551524043630208,-0.0474729556542457,0.1382300767579508,2.4552604605869215,8.119703366335468,-0.7081206372910547
1403637251388318976,50.471783,770.8835083969035,7.755425708333333,-0.4086104166666666,-3.4486719166666666,0.1438151303643327,0.0453785605518525,-0.1473057888683213,7.674287314696302,4.429976400577669,1.1671049574438142
1403637251888318976,50.004959,930.9153170703996,8.016936375,0.0081722083333333,-3.08909475,0.0551524043630208,0.1277581012459849,-0.1668534764906579,1.9797216393405925,8.074616629514193,0.11225081553394123
1403637252388318976,50.499201,932.4538722639004,7.469398416666666,0.563882375,-2.754034208333333,0.025830872929516,-0.1514945790731078,0.1368338133563554,3.2573373580466884,7.776747696732,0.33635955925975214
1403637252888318976,50.041437,1105.754942512188,10.484943291666664,0.0326888333333333,-2.778550833333333,-0.0733038285837618,0.1752310569002306,-0.0565486677646162,3.4366275788035106,10.600997618691496,0.31897458845508453
1403637253388318976,61.156273,1183.5932787681618,7.436709583333332,0.2369940416666666,-3.710182583333333,-0.0502654824574366,0.0062831853071795,0.0202458193231342,1.2469860031884632,11.858390543258936,0.09835559354960388
1403637253888318976,51.046372,1198.9660777022457,8.458235625,0.8825985,-2.8766173333333334,-0.0230383461263251,0.0998328332140756,0.025830872929516,0.9416738170102347,11.401879020106952,0.16302773078819754
1403637254388318976,46.282529,923.1671742534276,7.0689602083333325,0.024516625,-2.6886565416666666,0.1836086373098034,-0.0502654824574366,0.0376991118430775,1.3883439994034181,12.694072335796628,0.18748098734583962
1403637254888318976,49.818755,1212.509910321393,9.062979041666669,-0.4821602916666666,-2.7867230416666664,-0.0027925268031909,0.0041887902047863,0.1054178868204575,1.1401613316790464,14.301247341540208,0.059596806866149876
1403637255388318976,65.525055,887.4683753913097,8.237585999999999,-0.0326888333333333,-3.317916583333333,0.2213077491528809,-0.1103048087260416,0.0244346095279206,1.2451876307157768,15.858849119929339,0.18165015348153268
1403637255888318976,45.544863,693.975275737616,10.403221208333331,0.3595771666666666,-3.1217835833333334,0.411199571769864,-0.0048869219055841,-0.1256637061435917,1.9999649817086673,18.982087969086013,0.3946687473003081
1403637256388318976,50.299168,885.5202380873966,7.510259458333333,-0.4903325,-1.397447625,0.0027925268031909,0.0593411945678072,0.0788888821901436,2.093316354811018,23.107109399426005,0.24280051608150188
1403637256888318976,50.136089,889.9852438374218,7.493915041666666,0.6701210833333332,-3.1217835833333334,0.0321140582366956,0.0328121899374933,0.0104719755119659,1.2268627443323434,27.810905797811447,0.46040504896818746
1403637257388318976,51.47314,921.1581762608664,9.790305583333332,0.3759215833333333,-3.612116083333333,0.0607374579694026,-0.0593411945678072,0.007679448708775,0.8264990903136432,32.737343095788916,0.12018624090554653
1403637257888318976,50.252438,678.2451277508096,8.507268875,-0.3759215833333333,-4.184170666666667,0.2143264321449036,-0.132645023151569,0.0963421747100869,0.7627661503055857,36.38135723185652,0.0705682106468899
1403637258388318976,47.752142,408.8436417621125,9.201906583333331,0.1307553333333333,-2.4108014583333333,0.2317797246648469,0.0781907504893459,0.046774823953448,11.216657310251739,40.98178574069253,0.15547426300592093
1403637258888318976,50.447464,574.4466293832766,9.152873333333332,0.0572054583333333,-2.312734958333333,-0.0055850536063818,0.0684169066781777,0.1480039205691191,28.63495198623365,56.90658830135851,4.418066486142784
1403637259388318976,38.378001,655.0749443661757,8.025108583333333,0.7109821249999999,-2.132946375,-0.0244346095279206,0.0837758040957278,0.1368338133563554,6.209515807269836,57.531076819988925,0.628005359757978
1403637259888318976,50.231695,817.7928752122186,7.428537374999999,0.7028099166666667,-2.7867230416666664,0.0488692190558412,0.1368338133563554,0.1661553447898601,8.681999075440174,59.81306334007248,0.025419086649300482
1403637260388318976,50.157547,660.2534257813483,8.433719,0.0898942916666666,-3.0809225416666663,-0.0760963553869527,0.0691150383789754,-0.2122320370425104,5.084302635953069,56.10803359743068,-0.6607560652834437
1403637260888318976,42.378902,660.1252823027173,10.967103583333332,-0.5802267916666666,-3.9390044166666662,0.0125663706143591,0.124965574442794,0.1242674427419962,8.28138380411909,48.6429300430127,-0.1788930141694891
1403637261388318976,50.461531,508.0384834617583,8.572646541666666,0.4576436666666666,-2.59876225,0.0328121899374933,0.2771582852166995,0.1647590813882647,4.716894281537627,48.336184783708816,-0.07958721998450358
1403637261888318976,59.688568,562.0641261334715,7.297782041666666,0.318716125,-3.2035056666666666,0.0216420827247296,0.1591740277818828,0.1312487597499735,4.548943796617499,47.82148696288099,0.4835510686914972
1403637262388318976,50.749779,199.51460722665055,18.493707458333333,1.4301364583333334,-4.339442625,-0.796568270610212,-0.973893722612836,-0.7044148861049113,6.275838068732956,48.54189101405675,1.3765302195764448
1403637262888318976,50.672531,709.1216568244063,9.030290208333332,0.8744262916666666,-3.317916583333333,-0.1117010721276371,-0.0425860337486616,0.0788888821901436,1.7420640213301146,47.8815889828858,-0.050084838326498016
1403637263388318976,58.671237,742.6963527317296,8.97308475,-0.416782625,-2.680484333333333,0.0104719755119659,0.0251327412287183,0.0740019602845595,0.3670685815800158,48.17003804640519,-0.0018994791672639622
1403637263888318976,41.944504,744.9574325041613,9.1201845,-0.1634441666666666,-2.7213453750000003,-0.0013962634015954,0.0069813170079773,0.0921533845053006,0.09112939452664276,48.14299561844686,0.0032566178777315713
1403637264388318976,50.384998,745.7144284793042,9.520622708333333,-0.4576436666666666,-2.606934458333333,-0.0055850536063818,0.0132645023151569,0.085870199198121,0.1341322928472912,48.1987436023597,0.01281271318343613
