stamp,img_delta,blur,lin_acc.x,lin_acc.y,lin_acc.z,ang_vel.x,ang_vel.y,ang_vel.z,rpe,ate,drift
1403636581363555584,60.877085,706.9276681740287,5.810440125,-0.0653776666666666,-1.6834749166666665,-0.0928515162060983,0.0293215314335047,-0.0209439510239319,48.77755321372893,25.296602170546862,0.47718785365265504
1403636581863555584,50.074101,373.80182120812896,9.128356708333332,-0.392266,-3.415983083333333,-0.028623399732707,-0.0837758040957278,0.0823795406941323,45.232591967981854,14.12452943445949,-0.42598603206021934
1403636582363555584,53.645372,279.69500766314184,10.419565625,0.0735498749999999,-4.748053041666666,-0.0097738438111682,0.3134611336581816,0.0600393262686049,21.36627903890986,13.890461512886121,0.6818254373751174
1403636582863555584,50.086022,291.991663156984,7.878008833333333,-0.3268883333333333,-3.554910625,-0.1591740277818828,0.3169517921621702,0.200363798128949,45.810964667483304,15.269296821213171,0.35465105167445365
1403636583363555584,44.081211,437.2350852445632,7.861664416666666,-0.0653776666666666,-2.6477955,-0.0111701072127637,-0.0802851455917391,0.0104719755119659,2.247181096656799,16.924164922796752,-0.745897507871998
1403636583863555584,45.168638,257.31447149648693,9.880199875,0.1307553333333333,-4.731708625,-0.0251327412287183,-0.2478367537831947,0.0733038285837618,42.850503898085556,12.364865534452175,-0.1335830853189517
1403636584363555584,39.397478,338.7114125333576,10.476771083333333,0.4494714583333333,-4.225031708333333,-0.08307767239493,0.0809832772925368,-0.0677187749773799,6.820412889058799,12.93286003079101,0.13435579618214
1403636584863555584,44.300556,460.5136350139532,7.346815291666666,0.220649625,-2.557901208333333,-0.0272271363311115,0.2715732316103177,0.1850049007113989,46.75697116301128,17.333799302620083,1.0980443461044764
1403636585363555584,49.831629,439.73543734926784,9.586000375,0.0163444166666666,-3.4486719166666666,-0.0027925268031909,-0.132645023151569,-0.0383972435438752,11.856832512148536,14.757280181952368,-0.7789811508882476
1403636585863555584,50.305605,369.899934685107,10.043644041666663,-0.269682875,-4.404820291666666,0.143116998663535,-0.3581415625092364,0.1850049007113989,25.0964827920132,11.769582326576451,-1.3006242782310036
1403636586363555584,59.718609,312.6568976799208,7.126165666666666,-0.0817220833333333,-6.145500666666667,-0.018151424220741,-0.3937462792499207,0.2247984076568696,1.1973244465527118,10.598990860210815,-0.02707630246075965
1403636586863555584,39.34598,767.0270325810396,7.142510083333334,-1.12776475,-6.129156249999999,0.0530580092606276,0.1570796326794896,0.0230383461263251,4.2904948060048,9.398569690861587,-0.0709739643629188
1403636587363555584,49.941301,526.9613084370557,7.469398416666666,0.2043052083333333,-6.366150291666666,-0.0370009801422797,-0.0020943951023931,0.1445132620651305,5.360328256953429,8.833529745486757,-0.3125077702213268
1403636587863555584,49.581289,338.7355826577008,6.938204874999999,-0.6456044583333332,-6.03108975,-0.1158898623324234,0.0404916386462684,0.200363798128949,26.44098706393526,5.903710074768064,-0.2482957611066796
1403636588363555584,50.017357,589.3927631649217,7.175198916666666,-1.3157255416666664,-6.856482791666667,0.0677187749773799,0.0977384381116824,0.1172861257340189,21.345400441435768,9.180494153273125,0.10943314817466643
1403636588863555584,60.079575,285.3374380638223,7.093476833333334,-0.83356525,-6.791105125,0.0907571211037051,0.0307177948351002,0.0244346095279206,14.449403900047967,6.066825092065126,-0.3990480097048721
1403636589363555584,50.179005,308.9838426426469,7.657359208333333,-0.2533384583333333,-6.145500666666667,0.0851720674973232,-0.075398223686155,0.0125663706143591,34.26275195163808,8.859003065345632,1.0134394882881352
1403636589863555584,50.134182,332.82971180457787,7.542948291666666,0.1879607916666666,-6.22722275,0.1382300767579508,-0.1277581012459849,-0.0013962634015954,31.19988562309837,14.492756120611727,0.2777639433463168
1403636590363555584,49.32189,659.4345540438189,7.428537374999999,0.465815875,-6.415183541666666,-0.1193805208364121,0.0048869219055841,0.0872664625997164,10.12392756995733,15.740050114822418,-0.032144724957259285
1403636590863555584,60.407876,388.8183998998678,7.444881791666666,-0.1144109166666666,-6.300772625,-0.0677187749773799,-0.0656243798749867,0.1284562329467826,22.547482755770098,13.414255976142305,-0.3794730878822161
1403636591363555584,43.767691,388.4021559534647,7.044443583333333,-1.454653083333333,-6.357978083333332,-0.0970403064108847,-0.0279252680319092,0.1263618378443894,29.180331109550732,9.315365910807076,-0.32699626093938505
1403636591863555584,36.091089,362.8029241112304,8.18855275,0.04903325,-5.483551791666667,-0.1815142422074102,0.3518583772020568,0.1396263401595463,11.198387022713439,6.614273392541044,0.02816242957277737
1403636592363555584,49.610138,451.9098552968455,7.853492208333332,-0.9479761666666666,-5.990228708333333,0.0984365698124801,-0.124965574442794,0.1165879940332212,12.204189812112823,5.752776070602652,0.0002721681782560381
1403636592863555584,61.14626,208.03481229179707,6.954549291666666,-1.454653083333333,-7.0689602083333325,0.5110324049839398,-0.1193805208364121,-0.1912880860185785,20.692717693497958,6.033921886587657,-0.35223871181849553
1403636593363555584,50.295353,301.35237041451325,6.774760708333333,0.1062387083333333,-6.456044583333333,0.1228711793404008,-0.0886627260013119,-0.0195476876223364,37.23617604576686,10.627238070732552,0.6781462866619652
1403636593863555584,41.407109,226.46490368544283,7.984247541666667,-0.2860272916666666,-6.137328458333333,-0.6695083010650248,0.1919862177193762,0.5082398781807488,21.17393515016184,13.199321980211053,0.12017941408156396
1403636594363555584,43.691158,197.76315076582503,8.433719,-1.2176590416666666,-5.140319041666666,-0.3406882699892931,0.0747000919853573,0.0977384381116824,34.31242653063276,9.866638643618025,-0.15710067363778535
1403636594863555584,39.211035,233.95213571531863,7.1588545,-2.909306166666666,-6.742071875,0.4447098934081551,0.0942477796076938,-0.2282890661608583,19.81921676718763,5.223568296035422,-0.10317357861931864
1403636595363555584,42.762995,239.5373666763288,7.428537374999999,1.6017528333333333,-6.586799916666666,0.3637266161156182,-0.0740019602845595,-0.104021623418862,44.89273237179229,9.568539967573212,0.6225790281610752
1403636595863555584,59.607029,235.68365097033623,7.673703624999999,-0.7518431666666666,-5.93302325,-0.6387905062299246,0.0216420827247296,0.374896723328382,16.71960166335664,9.844539349329674,-0.5306302246993422
1403636596363555584,49.242497,364.1367602940621,7.583809333333333,-0.83356525,-6.063778583333333,-0.0328121899374933,0.1354375499547599,0.0132645023151569,17.033843657004223,11.32347767006429,0.42399927462664344
1403636596863555584,49.96562,473.1290245428854,9.07115125,0.8499096666666667,-3.8164212916666655,-0.0321140582366956,0.1528908424747032,-0.0816814089933346,16.471708467358283,14.447316377114294,0.024807005335972576
1403636597363555584,57.192564,259.2754003847229,7.273265416666667,-0.9152873333333332,-6.42335575,0.2624975194999471,0.0998328332140756,-0.1731366617978375,21.368920775368235,11.248243157277006,-0.46633412448354505
1403636597863555584,60.730457,345.7785576715561,7.10982125,0.0326888333333333,-6.586799916666666,0.1500983156715123,0.0537561409614253,-0.1068141502220529,15.476989533799582,8.958674479962134,0.16603527825659015
1403636598363555584,42.971373,367.3427858071734,8.817812791666666,0.5066769166666666,-4.682675375,-0.1668534764906579,-0.0397935069454707,0.0921533845053006,18.677750599110293,10.751025486970022,0.007934167394932246
1403636598863555584,39.525032,284.0942667915771,7.461226208333334,-0.44129925,-5.271074375,0.104021623418862,0.5249950389998943,0.1151917306316257,9.01483905631992,9.350990821062766,-0.21812049231096609
1403636599363555584,50.90332,432.70267836642535,9.005773583333333,-0.44129925,-3.211677875,-0.0851720674973232,0.3469714552964727,0.046774823953448,5.536929979242163,8.345322438222436,-0.04509946488479599
1403636599863555584,59.617043,480.7781277774819,9.863855458333331,-0.6456044583333332,-1.871435708333333,-0.018151424220741,0.0747000919853573,0.1549852375770964,3.56233593457796,8.221414577567105,0.012689237431388278
1403636600363555584,62.081814,635.5850970206319,9.46341725,-0.269682875,-2.6477955,0.0048869219055841,0.0174532925199432,0.0809832772925368,0.6580110474901146,8.287463602018251,0.0036511367971492348
1403636600863555584,50.263882,642.9933418653533,9.398039583333333,-0.2778550833333333,-2.4680069166666665,-0.0069813170079773,0.0132645023151569,0.0684169066781777,0.035307050277446995,8.269334436764787,0.003835227420090348
1403636601363555584,50.305844,646.053478360667,9.536967125,-0.5230213333333333,-2.606934458333333,0.0,0.0216420827247296,0.1033234917180643,0.024961637684850223,8.259614403619379,-0.005839472432844772
1403636601863555584,50.023317,646.8871149051884,9.438900625,-0.5475379583333333,-2.655967708333333,-0.0041887902047863,0.0209439510239319,0.0781907504893459,0.048419886266692344,8.2473796120965,0.0008800481310764496
1403636602363555584,49.657107,646.1289143504133,9.430728416666666,-0.5557101666666666,-2.50069575,-0.0090757121103705,0.0223402144255274,0.0698131700797731,0.023536611412811635,8.223345126170795,0.0043799501336909685
1403636602863555584,50.236464,647.5051093574333,9.414383999999998,-0.4494714583333333,-2.582417833333333,-0.0041887902047863,0.0195476876223364,0.0767944870877505,0.01863205094323902,8.235168076527035,0.0021897201333214156
1403636603363555584,50.433636,646.360193502874,9.496106083333332,-0.5230213333333333,-2.582417833333333,-0.0041887902047863,0.0251327412287183,0.0837758040957278,0.012158435408003248,8.229062635382077,-0.004110027745296563
1403636603863555584,50.714492,646.915242894617,9.414383999999998,-0.5883989999999999,-2.623278875,-0.0055850536063818,0.0272271363311115,0.0802851455917391,0.00694710746623899,8.22553101120252,0.004247215608636168
1403636604363555584,43.461323,645.2598010343859,9.389867375,-0.5230213333333333,-2.533384583333333,-0.0090757121103705,0.0223402144255274,0.0733038285837618,0.010711542235336756,8.226924557500354,-0.0011727379812818128
1403636604863555584,53.574324,643.6379015002237,9.389867375,-0.5066769166666666,-2.606934458333333,-0.0041887902047863,0.0153588974175501,0.0781907504893459,0.010080960729067999,8.219336558158341,0.0030873889895719486
1403636605363555584,57.163954,644.2739064754318,9.471589458333332,-0.5148491249999999,-2.5905900416666663,-0.0013962634015954,0.0230383461263251,0.0816814089933346,0.007987991704387652,8.2180226590298,0.00012788465250679337
1403636605863555584,49.718619,630.630856471793,9.545139333333331,-0.5883989999999999,-2.623278875,-0.0062831853071795,0.0188495559215387,0.0823795406941323,0.017726651892015107,8.213350357128574,-0.0009397852714894128
1403636606363555584,62.800408,630.2166995329285,9.398039583333333,-0.5557101666666666,-2.582417833333333,-0.0020943951023931,0.0237364778271228,0.075398223686155,0.02716713333676697,8.221268749357609,0.0011444987566626708
1403636606863555584,49.761772,631.4892573900339,9.357178541666666,-0.5475379583333333,-2.525212375,0.0,0.0146607657167523,0.0788888821901436,0.013198736877591027,8.226660638341862,0.000543474898304197
1403636607363555584,41.246175,630.4896467477278,9.381695166666669,-0.5148491249999999,-2.574245625,-0.0020943951023931,0.0216420827247296,0.0788888821901436,0.042798551257420624,8.202533588384066,-0.0031456314845321742
1403636607863555584,50.205707,631.6851546205461,9.455245041666666,-0.5230213333333333,-2.5905900416666663,-0.0055850536063818,0.0195476876223364,0.0809832772925368,0.007934986145713793,8.200444482887763,0.0017582323336000627
1403636608363555584,40.251017,631.2090435669135,9.36535075,-0.5148491249999999,-2.557901208333333,-0.0020943951023931,0.0209439510239319,0.0802851455917391,0.037858227748606706,8.218799029447856,-0.001939780359993648
1403636608863555584,43.076038,629.9793202749647,9.406211791666664,-0.5230213333333333,-2.606934458333333,-0.0006981317007977,0.0216420827247296,0.08307767239493,0.02584188523528813,8.213659024261046,-0.0007369290613610247
1403636609363555584,42.189837,630.840469441093,9.373522958333332,-0.5720545833333333,-2.5415567916666664,-0.0020943951023931,0.018151424220741,0.08307767239493,0.02115995616652608,8.208944785539758,4.387735174127272e-05
1403636609863555584,36.423683,629.9418460263295,9.218251,-0.53936575,-2.7131731666666665,-0.0006981317007977,0.0223402144255274,0.0740019602845595,0.018944683972955886,8.223596048753164,0.0023806580683505274
1403636610363555584,50.14944,629.6005739901622,9.479761666666668,-0.4985047083333333,-2.508867958333333,-0.0097738438111682,0.025830872929516,0.0816814089933346,0.01719091475856656,8.210832222037915,-0.003687710616242512
1403636610863555584,59.807539,618.2563995660582,9.316317499999998,-0.7109821249999999,-2.6151066666666667,-0.0097738438111682,0.0314159265358979,0.0635299847725936,0.07250750300112081,8.249111870499368,0.005578437773110068
1403636611363555584,46.565056,523.8096379383771,8.057797416666666,-2.214668458333333,-2.0757409166666667,0.0383972435438752,-0.0418879020478639,0.0928515162060983,0.039987422453441196,8.256349897590757,0.0029261964342204294
1403636611863555584,49.820423,636.4154638559438,9.937405333333334,-0.7763597916666666,-2.190151833333333,-0.0020943951023931,0.0202458193231342,0.0907571211037051,0.12458513311727103,8.24493236024538,-0.006475502908640962
1403636612363555584,48.587084,627.6951584736801,9.798477791666668,0.24516625,-2.754034208333333,0.0404916386462684,0.0307177948351002,0.1905899543177807,0.037195094245434344,8.22889610752384,-0.0025015745544862966
1403636612863555584,49.405813,629.4161549240132,9.643205833333331,-0.4494714583333333,-2.6477955,-0.0335103216382911,0.0237364778271228,0.0104719755119659,0.04060708307685257,8.228017139150795,-0.006371630293143582
1403636613363555584,42.916298,640.0149321639336,9.5124505,-0.2043052083333333,-2.5415567916666664,0.007679448708775,0.0237364778271228,0.0942477796076938,0.05391640763007649,8.215549236208162,0.00428960091688424
1403636613863555584,49.978972,638.7341850532198,9.438900625,-0.5311935416666667,-2.574245625,-0.0090757121103705,0.0160570291183478,0.0600393262686049,0.018641615412646615,8.212809289682244,0.0006745477028893276
1403636614363555584,43.981552,641.2889052065602,9.308145291666667,-0.6946377083333333,-2.6151066666666667,-0.0062831853071795,0.0321140582366956,0.0837758040957278,0.020225060057185492,8.212704940019064,-0.0020860688887633927
1403636614863555584,60.098648,644.157830238325,9.398039583333333,-0.4903325,-2.5415567916666664,-0.0013962634015954,0.0139626340159546,0.0893608577021096,0.0034911486560299902,8.206839829846647,0.0043483586758217285
1403636615363555584,49.315691,644.8306982501003,9.398039583333333,-0.44129925,-2.582417833333333,-0.0055850536063818,0.0202458193231342,0.08307767239493,0.012026518683402147,8.205319429179303,-0.00027737612295730685
1403636615863555584,59.714079,644.9358482580727,9.406211791666664,-0.6047434166666666,-2.5905900416666663,-0.0020943951023931,0.0195476876223364,0.075398223686155,0.019017120013572524,8.20920078944798,-9.051557505301844e-05
1403636616363555584,41.445971,643.8868039187414,9.504278291666663,-0.53936575,-2.59876225,-0.0041887902047863,0.0230383461263251,0.085870199198121,0.022439189214968774,8.194120796847937,0.0013020171255693214
1403636616863555584,60.883046,644.7599477210449,9.398039583333333,-0.5557101666666666,-2.574245625,-0.0048869219055841,0.0209439510239319,0.0837758040957278,0.025234849846089903,8.211646564185441,0.007293612616166456
1403636617363555584,49.776554,644.4428051396781,9.536967125,-0.5475379583333333,-2.5905900416666663,-0.0041887902047863,0.0216420827247296,0.0767944870877505,0.018031871822472803,8.205398648182339,-0.005521277193317076
1403636617863555584,62.027931,645.1378619263805,9.389867375,-0.5066769166666666,-2.5170401666666664,-0.0027925268031909,0.0195476876223364,0.0767944870877505,0.014947301217903409,8.216304964358601,0.0015125919930163434
1403636618363555584,49.689532,643.8352841669822,9.430728416666666,-0.5557101666666666,-2.582417833333333,-0.0062831853071795,0.0251327412287183,0.08307767239493,0.010770579231486405,8.21418167551983,0.0004989315419550167
1403636618863555584,63.102007,639.5217584165579,9.316317499999998,-1.7243359583333333,-2.288218333333333,0.046774823953448,0.0237364778271228,0.0670206432765822,0.011993771182687317,8.207317553591817,0.005179553944469006
1403636619363555584,43.399334,576.9516383814183,10.035471833333334,-2.190151833333333,-2.639623291666666,0.0781907504893459,0.0349065850398865,0.0621337213709981,0.0320444392027494,8.228325467135745,0.009452034896032302
1403636619863555584,43.351412,640.4492181207603,8.744262916666667,-0.7600153749999999,-2.2718739166666664,-0.0041887902047863,0.0118682389135614,0.1089085453244461,0.02892988103331508,8.20603754262718,0.0005022141473123298
1403636620363555584,46.573162,641.0493182039335,9.398039583333333,-0.6782932916666666,-2.476179125,0.0041887902047863,0.0153588974175501,0.085870199198121,0.01499548540816028,8.198474906206489,-0.004169093340248509
1403636620863555584,43.04409,643.0241852656654,9.275456458333332,-0.5148491249999999,-2.574245625,0.0069813170079773,0.0356047167406843,0.0879645943005142,0.015247260825419492,8.205241111561353,-0.004039690120237083
1403636621363555584,51.236153,643.1940598780687,9.765788958333331,-0.6701210833333332,-2.8357562916666668,-0.0118682389135614,0.0335103216382911,0.0502654824574366,0.024996520496399402,8.213142182041341,-0.0008683056612142082
1403636621863555584,50.090075,641.9190589579824,9.308145291666667,-0.4576436666666666,-2.5905900416666663,0.0132645023151569,0.0,0.0781907504893459,0.014473675903526429,8.207783828381034,0.004649144996873744
1403636622363555584,50.318956,640.884067386957,9.030290208333332,-0.3350605416666666,-2.3209071666666663,0.0062831853071795,0.0314159265358979,0.0774926187885482,0.03345909921689014,8.19738965030616,0.0037562655558414093
1403636622863555584,42.340278,634.4882343375398,9.398039583333333,-0.5148491249999999,-2.8766173333333334,-0.0160570291183478,0.0474729556542457,0.1089085453244461,0.03698383165075215,8.241001550848754,-0.004118493105652377
1403636623363555584,40.985346,636.2328985401293,9.381695166666669,-0.8580818749999999,-2.2555295,-0.0265290046303138,0.0586430628670094,0.0474729556542457,0.13519786225109437,8.17747436898072,0.015507200075123961
1403636623863555584,50.422907,610.6582956475476,10.525804333333332,-0.4249548333333333,-2.705000958333333,-0.0265290046303138,0.0425860337486616,0.1263618378443894,0.11454005683993766,8.213421316091104,-0.01929886333304509
1403636624363555584,62.284947,475.3638466846486,7.722736874999999,0.7436709583333333,-1.2585200833333332,-0.1514945790731078,-0.0747000919853573,0.0097738438111682,0.22759695144306796,8.185724868140632,-0.014163170033530292
1403636624863555584,38.184166,311.1960320818048,7.722736874999999,0.367749375,-2.0593965,-0.0879645943005142,-0.1570796326794896,-0.2778564169174973,5.646707607433636,8.016389571714578,-0.027643873252721107
1403636625363555584,59.944391,735.595203663941,5.066769166666667,1.765197,-1.8796079166666664,0.0383972435438752,-0.0195476876223364,0.0705113017805709,10.934808122556097,8.116714292374072,0.014256144948792127
1403636625863555584,50.215482,294.1739774801472,8.654368624999998,0.0572054583333333,-2.190151833333333,0.0244346095279206,0.2234021442552742,0.1019272283164688,7.506327244968712,7.889302732796214,0.030838189761779766
1403636626363555584,39.833308,769.7139327549258,4.290409374999999,0.6292600416666666,-1.12776475,-0.0013962634015954,0.1123992038284348,0.1186823891356144,27.729659609813673,8.813519066495866,0.07628136103867611
1403636626863555584,41.410685,571.9561807660058,8.842329416666665,0.1144109166666666,-2.9256505833333333,0.0132645023151569,-0.210835773640915,0.0656243798749867,4.71771660313853,8.775566477156804,-0.10932766729338717
1403636627363555584,50.361394,800.0732324215986,8.033280791666666,0.3023717083333333,-3.6448049166666654,-0.0174532925199432,0.0509636141582344,0.0886627260013119,6.12180708301975,8.372822246790005,0.0488583493758572
1403636627863555584,38.449764,436.00419547761805,9.447072833333332,0.5965712083333333,-2.966511625,-0.2904227875318564,-0.2094395102393195,0.132645023151569,7.345523510412249,8.482153730466594,-0.05134098160703182
1403636628363555584,50.034523,620.4341908959675,9.978266375,-0.5148491249999999,-3.072750333333333,0.0013962634015954,0.0383972435438752,0.1808161105066125,11.340258420400266,8.338375009924617,0.036726099260281586
1403636628863555584,50.12846,596.0260804297471,10.8853815,-0.1634441666666666,-2.231012875,-0.189891822616983,-0.1158898623324234,0.0244346095279206,15.040640524381988,7.922354515795186,-0.19562443514125238
1403636629363555584,50.206185,754.7669230043763,9.553311541666666,-0.980665,-3.563082833333333,-0.1857030324121966,0.0600393262686049,0.2450442269800038,20.68970998958992,7.3813998628766,-0.056913310368692294
1403636629863555584,61.05566,784.5895944323852,10.133538333333334,1.0133538333333332,-3.6284605,-0.3476695869972704,-0.0006981317007977,0.2275909344600605,22.595350520522064,12.509796445321259,1.0585636914427905
1403636630363555584,39.307117,1145.355490799461,10.051816249999998,0.8499096666666667,-3.4241552916666667,-0.0237364778271228,-0.0174532925199432,0.1333431548523667,25.585648470574686,12.211386608376557,0.20916514422573584
1403636630863555584,39.419651,1142.907086829446,8.891362666666666,0.318716125,-3.710182583333333,0.054454272662223,0.0495673507566389,0.1528908424747032,27.06612515627037,10.74115403279439,-0.07702141460049816
1403636631363555584,42.69886,1106.671111362577,9.847511041666666,0.6456044583333332,-2.5170401666666664,0.0111701072127637,0.0586430628670094,0.0663225115757845,19.011138025174517,10.001990847429624,-0.10767909303966228
1403636631863555584,49.754858,1130.8683587596984,9.226423208333332,-0.1389275416666666,-3.170816833333333,-0.0390953752446729,0.0069813170079773,0.0446804288510548,16.281537777193098,8.503738150098304,-0.02321635130781985
1403636632363555584,49.830675,1112.6368871228435,7.542948291666666,0.2043052083333333,-3.072750333333333,-0.0202458193231342,-0.0390953752446729,0.1186823891356144,13.989114175256834,8.403012030408293,-0.16685040864374834
1403636632863555584,49.195289,728.0263538899884,8.302963666666667,-0.4086104166666666,-3.92266,0.3797836452339661,0.0376991118430775,-0.2694788365079245,2.886572189918133,7.388782651290914,0.014126238482053743
1403636633363555584,58.718205,947.9216958170324,10.395049,0.8989429166666666,-3.898143375,0.0202458193231342,-0.0069813170079773,0.200363798128949,14.125700941693609,8.02416368700678,0.6169918722565972
1403636633863555584,49.96109,908.1022753176504,8.785123958333333,0.171616375,-3.5222217916666665,-0.0223402144255274,0.0551524043630208,0.1640609496874669,13.679399600821082,6.984693068013753,-0.05301740391752574
1403636634363555584,49.705267,586.8773519531053,9.536967125,0.83356525,-2.4680069166666665,0.0202458193231342,0.2227040125544764,0.0188495559215387,26.27059348261756,6.719339565690764,0.05260539487980509
1403636634863555584,46.236992,851.7352449081233,7.567464916666665,-0.1389275416666666,-4.641814333333333,0.1103048087260416,-0.0502654824574366,0.0397935069454707,25.346025558293324,7.171272548723253,0.06629932002666106
1403636635363555584,49.663067,756.7597366881697,9.381695166666669,-0.8172208333333333,-2.966511625,0.0356047167406843,-0.0684169066781777,0.2527236756887789,22.481687790982487,7.8265490268776965,0.05982257214276743
1403636635863555584,41.314125,626.7422479899122,7.387676333333332,0.1307553333333333,-3.9144877916666654,-0.0125663706143591,-0.0272271363311115,0.1577777643802873,30.316501253437423,8.147592990814218,0.1194149729294871
1403636636363555584,49.963712,291.7217899482803,7.052615791666666,-0.63743225,-2.7867230416666664,-0.0174532925199432,0.3553490357060455,0.0083775804095727,45.50191454041615,9.73783435235233,0.10717364239730642
1403636636863555584,49.627781,542.1460230604688,9.201906583333331,-0.5066769166666666,-3.268883333333333,0.0795870138909414,-0.1438151303643327,0.2513274122871834,34.57607966508483,11.346140987882096,0.00023227589814922567
1403636637363555584,53.434848,573.8857649886944,9.275456458333332,0.73549875,-2.4516625,-0.0279252680319092,-0.0237364778271228,0.085870199198121,7.225889039359211,10.229635632414947,0.05197702638776569
1403636637863555584,49.901247,416.5849293837194,10.2969825,-0.4903325,-2.0512242916666668,-0.0293215314335047,0.0439822971502571,0.0502654824574366,19.586680574473803,11.629273417449113,0.0546224134715132
1403636638363555584,49.791813,305.07407612905894,8.736090708333332,0.0572054583333333,-2.239185083333333,0.0439822971502571,-0.3574434308084387,0.2974041045398337,13.917524998019331,12.005193824807773,-0.026158948511001867
1403636638863555584,52.474022,402.9102331872381,7.591981541666666,-0.5066769166666666,-3.4404997083333333,-0.0453785605518525,0.208043246837724,0.0404916386462684,8.673117433558296,11.763097768859007,-0.03202279736126634
1403636639363555584,46.860933,355.2734105392832,9.896544291666666,0.416782625,-3.6284605,-0.1012290966156711,0.0460766922526503,-0.1780235837034216,24.511082545668827,11.658909329625992,-0.02983983963026482
1403636639863555584,39.161444,432.0737873817768,8.016936375,-0.3759215833333333,-3.4650163333333333,0.0027925268031909,0.0453785605518525,0.1137954672300302,24.848609648700318,10.879772140526482,-0.13858138212089166
1403636640363555584,50.074816,490.9172968806656,9.046634625,-0.44129925,-2.3372515833333334,0.1089085453244461,0.0376991118430775,-0.0293215314335047,24.72385489546339,11.535710654565543,0.02904567732110408
1403636640863555584,57.607651,636.4862815471953,11.056997875,0.1470997499999999,-4.053415333333333,0.0474729556542457,0.0516617458590321,0.1179842574348166,19.67140606330276,11.931909608275774,-0.11018294833791309
1403636641363555584,39.716244,584.2260118515409,7.804458958333332,-0.4249548333333333,-2.974683833333333,-0.0230383461263251,-0.025830872929516,0.2492330171847902,16.080004096949686,11.319711139165728,-0.07151798757894134
1403636641863555584,49.567461,597.9238170520282,9.822994416666669,-0.024516625,-3.726527,-0.0083775804095727,0.1165879940332212,0.0383972435438752,14.422676816276969,10.254858305865163,0.03704663768165162
1403636642363555584,50.030947,601.205925963063,7.698220249999999,0.122583125,-2.8602729166666667,-0.210835773640915,0.018151424220741,0.1487020522699168,18.567234720202862,10.437656291853575,-0.0758030388020483
1403636642863555584,39.103746,673.3815369821945,11.539158166666668,-0.24516625,-3.8082490833333327,-0.0209439510239319,0.0048869219055841,0.1263618378443894,11.619774135008145,10.029296669595652,-0.034777440529989434
1403636643363555584,42.413235,728.3185513268978,11.727118958333332,0.122583125,-3.849110125,0.0488692190558412,-0.0216420827247296,0.104021623418862,10.569976777144234,10.688443543214953,-0.11605073379849884
1403636643863555584,50.122977,719.9048830923635,7.788114541666666,0.2941994999999999,-3.334261,-0.0041887902047863,-0.0942477796076938,0.0425860337486616,18.026826098049636,11.542149185996221,-0.011673015932228026
1403636644363555584,49.801112,448.47329746976806,8.28661925,0.63743225,-3.0564059166666664,0.0446804288510548,0.3169517921621702,0.2799508120198904,20.8730097078503,10.785432725542929,-0.1023624717693341
1403636644863555584,37.982941,441.0117029675876,7.869836625,0.1389275416666666,-4.184170666666667,-0.0963421747100869,-0.1291543646475804,-0.1172861257340189,25.459729375065066,10.334175740691707,0.468178134794746
1403636645363555584,49.737692,439.2045243585856,10.149882749999998,0.2941994999999999,-3.334261,0.0111701072127637,0.2757620218151041,0.0795870138909414,29.142270757795398,10.620888830574271,-0.12453508577399575
1403636645863555584,50.155163,615.1093861367899,11.016136833333332,-0.6782932916666666,-4.257720541666666,0.0097738438111682,-0.0062831853071795,0.1075122819228507,32.79200790233965,9.49934577240388,0.11698191616700981
1403636646363555584,52.987099,397.8028212219318,8.302963666666667,0.4821602916666666,-4.225031708333333,-0.6066764479932288,0.2345722514680378,0.1668534764906579,44.06490878954279,9.416067097302562,-0.08722928734994184
1403636646863555584,45.845986,523.6141191652526,9.790305583333332,-0.0735498749999999,-2.811239666666667,-0.1801179788058148,-0.0223402144255274,0.1424188669627373,40.038148656577704,9.047973845987237,0.06506865178271504
1403636647363555584,59.932947,536.6518698607099,9.594172583333334,0.0653776666666666,-3.726527,0.0265290046303138,0.1235693110411985,0.1026253600172665,33.962547604878054,8.86815350685241,-0.02725077550287658
1403636647863555584,60.999632,437.9112828423772,8.964912541666667,-0.0898942916666666,-3.391466458333333,-0.1843067690106012,0.0209439510239319,0.1514945790731078,29.407936412901325,8.728421480990258,0.10105458362054343
1403636648363555584,56.352854,335.1856376542723,10.076332875,0.563882375,-3.87362675,-0.5619960191421741,0.0118682389135614,0.2296853295624537,33.168624434699154,7.502754698002477,-0.06298789107620006
1403636648863555584,50.439119,366.4026842279848,8.482752249999999,0.4576436666666666,-2.288218333333333,-0.1452113937659282,-0.200363798128949,0.0809832772925368,32.578671863812495,6.798001918495267,-0.00024273018464260332
1403636649363555584,50.205946,600.1912701788717,7.363159708333333,-0.4903325,-3.162644625,0.0565486677646162,-0.2429498318776106,0.0446804288510548,35.41482591226305,7.815116875950315,0.028030244131851845
1403636649863555584,49.078226,470.6461050936713,8.891362666666666,0.2043052083333333,-3.195333458333333,-0.15079644737231,0.0314159265358979,0.122173047639603,44.18998407460927,9.111815097195729,0.13512921325655824
1403636650363555584,59.603214,390.6078278820199,9.210078791666666,-0.5557101666666666,-3.8654545416666655,-0.5124286683855351,-0.0593411945678072,0.2038544566329376,26.90003833147251,8.408244442292533,-0.08038658827729073
1403636650863555584,48.76399,546.8738364250875,9.095667875,-0.0898942916666666,-3.366949833333333,-0.1619665545850737,0.1089085453244461,0.085870199198121,28.155388278407784,9.03449980327738,-0.03915684964708177
1403636651363555584,61.531305,759.8249476795304,9.046634625,0.0653776666666666,-3.857282333333333,0.0635299847725936,-0.0726056968829641,0.1130973355292325,24.52503763936294,8.312350304058993,-0.08926264617762136
1403636651863555584,61.061621,588.5895158270569,8.417374583333332,0.2288218333333333,-3.538566208333333,-0.28623399732707,0.0153588974175501,0.2848377339254746,21.351146635214864,7.856047813882566,-0.014013601932272302
1403636652363555584,41.754245,330.9681713126392,7.624670374999999,0.4576436666666666,-2.034879875,-0.6618288523562498,-0.2282890661608583,0.2450442269800038,35.6992265316954,9.124193590248517,0.38046310765047053
1403636652863555584,49.870014,758.464429648638,9.716755708333332,-1.1604535833333331,-2.50069575,-0.0747000919853573,0.0390953752446729,0.1277581012459849,39.04899644541494,9.638824598644955,0.042037970286473936
1403636653363555584,50.429582,831.0628636418721,8.809640583333332,-0.4249548333333333,-4.233203916666667,0.0733038285837618,0.1340412865531645,0.0265290046303138,36.83511646283658,8.834978406686195,-0.13992745228047276
1403636653863555584,50.514221,850.5088178295811,8.548129916666667,-1.871435708333333,-2.8766173333333334,-0.0237364778271228,0.0111701072127637,0.0970403064108847,31.276254244132794,7.8771721394025755,-0.07135469330294608
1403636654363555584,50.135136,569.2997356152575,12.626061875,-0.1797885833333333,-3.881798958333333,-0.2806489437206881,0.0188495559215387,0.182212373908208,27.763427506079573,8.52487005367589,0.21712734890232177
1403636654863555584,38.487911,762.7532958280649,10.264293666666664,0.3023717083333333,-4.020726499999999,-0.1521927107739055,-0.0125663706143591,0.1277581012459849,26.541552677157483,9.496427560586266,0.1429292378330249
1403636655363555584,54.875374,835.2563160876105,9.398039583333333,0.0163444166666666,-2.8439285,-0.1480039205691191,0.0516617458590321,0.1110029404268393,25.536692031400598,10.467960574318605,0.13355203551392236
1403636655863555584,49.824476,490.3646554798599,7.297782041666666,-0.367749375,-2.3699404166666667,-0.3155555287605747,0.0041887902047863,0.2534218073895766,29.638831414144473,12.798467371298228,0.369906513008452
1403636656363555584,50.167322,741.7969976098308,9.545139333333331,-0.269682875,-3.3751220416666667,-0.025830872929516,-0.0488692190558412,0.0174532925199432,38.92113209856438,14.791220076943338,0.23435764329625997
1403636656863555584,41.843414,798.9307694229685,9.136528916666666,0.0408610416666666,-3.4241552916666667,0.0216420827247296,0.1186823891356144,0.0251327412287183,41.10842504031151,17.268024329869284,0.4332243374676139
1403636657363555584,49.67165,619.3356334318836,10.967103583333332,-0.3268883333333333,-4.0125542916666666,0.0041887902047863,-0.2310815929640492,0.122173047639603,42.4173557285664,20.26094137307407,0.33927223967186393
1403636657863555584,49.839497,622.1706383940256,8.417374583333332,0.3514049583333333,-2.280046125,-0.0579449311662117,-0.1445132620651305,0.2527236756887789,49.71874497973734,23.188634991057295,0.33670309576514157
1403636658363555584,53.387642,488.0433314140693,9.839338833333333,-0.1389275416666666,-3.8245935,-0.0614355896702004,0.0090757121103705,0.0328121899374933,60.748522661462765,25.285098771480158,0.07509238675713092
1403636658863555584,50.168752,466.9634363150933,9.577828166666666,-0.9643205833333331,-3.5222217916666665,-0.0223402144255274,0.1933824811209717,0.075398223686155,60.1982404832504,26.782048400154324,-0.11433715189833649
1403636659363555584,50.305128,318.8437411739789,9.692239083333332,-0.4903325,-3.0564059166666664,-0.0160570291183478,-0.093549647906896,0.1096066770252439,31.223044907621496,47.120688731431706,0.1586612909479399
1403636659863555584,50.186158,513.4063894418615,7.3549875,-0.7518431666666666,-2.40262925,-0.0565486677646162,0.0083775804095727,0.1445132620651305,36.30357093615718,49.3605767587776,0.2001805302547197
1403636660363555584,57.344675,450.99119354443,10.24794925,0.0817220833333333,-3.3015721666666664,-0.0090757121103705,-0.1773254520026238,0.1123992038284348,49.46529431203771,56.42003285725183,-0.6495942881758126
1403636660863555584,59.783221,762.253693818276,8.123175083333333,-0.3514049583333333,-3.170816833333333,-0.0411897703470661,0.1047197551196597,0.0209439510239319,15.75975536454359,55.75165717012506,-0.35641363089934686
1403636661363555584,49.917936,685.4787014690535,8.736090708333332,-0.1634441666666666,-4.143309625,0.0139626340159546,0.0048869219055841,0.0823795406941323,27.10201974092154,51.93894955989917,-0.403107483506119
1403636661863555584,49.213886,765.5980320219071,9.193734375,0.0817220833333333,-2.2228406666666665,0.0027925268031909,0.0006981317007977,0.1745329251994329,22.401148011614048,49.63841255623313,-0.24207803268684813
1403636662363555584,46.874762,678.7048398282817,12.127557166666666,0.1389275416666666,-3.219850083333333,-0.0523598775598298,-0.0837758040957278,-0.0516617458590321,17.84326989969482,50.75666380604489,0.30094424208525794
1403636662863555584,59.968949,572.5047059145516,8.793296166666666,0.4331270416666666,-2.9338227916666666,-0.0495673507566389,-0.182212373908208,0.0509636141582344,21.72105808451194,51.88513829013088,0.2387506838700162
1403636663363555584,46.265126,476.6564889738891,10.754626166666666,0.4821602916666666,-2.4189736666666666,-0.1319468914507713,-0.0118682389135614,-0.2527236756887789,8.463741139190653,50.935596538146335,-0.037815805613355735
1403636663863555584,60.46629,312.8943019928459,11.931424166666664,0.1470997499999999,-4.241376125,-0.0509636141582344,0.2555162024919699,-0.0349065850398865,13.612706730675209,48.4154645465516,-0.4111231558138968
1403636664363555584,49.933672,303.80248073933416,8.883190458333333,-0.2043052083333333,-3.554910625,0.1137954672300302,0.153588974175501,0.1640609496874669,39.145052115621354,44.20615016232996,-0.2654945242796174
1403636664863555584,47.716856,246.10919745003972,9.291800875,0.6537766666666667,-1.6753027083333332,0.1068141502220529,-0.0139626340159546,0.0293215314335047,54.54888431781818,41.48340359926646,-0.1068553194237083
1403636665363555584,49.687624,239.54484946095155,10.158054958333333,0.0,-3.366949833333333,-0.0600393262686049,-0.0160570291183478,-0.054454272662223,58.22668566231548,39.128813535152986,-0.0626866904578165
1403636665863555584,42.906284,197.54619874188924,9.177389958333332,0.7600153749999999,-3.08909475,0.1130973355292325,0.1445132620651305,0.418879020478639,56.98684958927146,38.146262228866924,-0.0364716343980831
1403636666363555584,49.834252,295.3222329375209,10.4931155,-0.1389275416666666,-3.293399958333333,0.1235693110411985,0.132645023151569,0.2485348854839925,58.50691721129159,40.03530781029527,0.24329957812172154
1403636666863555584,57.616949,285.1617211179021,9.790305583333332,-0.907115125,-3.268883333333333,0.1514945790731078,-0.2757620218151041,0.4649557127312894,45.72754868834403,42.33563974969871,0.2097908568091853
1403636667363555584,50.175429,456.3459548590235,10.117193916666666,0.1879607916666666,-3.3996386666666667,0.018151424220741,0.0495673507566389,-0.0090757121103705,36.74686026738219,45.48114227814894,0.16278384585530148
1403636667863555584,46.832323,483.3480689181978,9.079323458333333,0.9888372083333332,-4.478370166666666,0.0188495559215387,0.1172861257340189,0.1242674427419962,34.860389761763635,47.90967700123918,0.20043210448815785
1403636668363555584,59.791804,618.8915832694446,9.332661916666666,0.5557101666666666,-2.59876225,-0.0495673507566389,0.0509636141582344,0.1773254520026238,29.97546146516295,49.43072823949377,0.2518224132400704
1403636668863555584,49.919128,520.0537456250232,9.136528916666666,-0.5965712083333333,-3.2280222916666665,-0.0691150383789754,0.1682497398922533,-0.1668534764906579,35.81917037631426,51.18280652685498,0.21378085758978216
1403636669363555584,46.600104,594.011894221784,8.703401874999999,0.392266,-2.3862848333333333,-0.0048869219055841,-0.0614355896702004,0.085870199198121,50.29848134251772,55.89757098362811,0.6699188113995262
1403636669863555584,49.318075,425.7837287158811,11.2776475,1.5363751666666667,-4.159654041666666,0.2387610416728242,-0.0342084533390888,0.7113962031128886,57.24319774680276,63.119973767880246,0.7707070366311939
1403636670363555584,49.30687,480.8224156001077,10.207088208333332,-0.3105439166666667,-3.2443667083333327,0.1989675347273535,-0.124965574442794,0.1773254520026238,39.33808950805183,70.12479596464624,0.3325370657745168
1403636670863555584,60.999393,389.14080901320585,11.318508541666665,0.4249548333333333,-4.788914083333333,0.6590363255530588,0.0237364778271228,0.2059488517353309,20.49072884290265,68.73406412889014,-0.8447685553228581
1403636671363555584,71.932554,399.2238466230562,7.485742833333332,0.1062387083333333,-2.549729,0.132645023151569,-0.364424747816416,-0.76026542216873,87.15574358681194,58.34140980659507,-1.1863419553369425
1403636671863555584,49.92652,323.7528503632793,12.127557166666666,0.6047434166666666,-3.9390044166666662,-0.0425860337486616,-0.0998328332140756,0.0530580092606276,101.93418678554316,49.81307716918464,-0.5428704287915735
1403636672363555584,60.755491,341.0815325306668,7.322298666666667,-0.8172208333333333,-1.789713625,-0.1382300767579508,0.2946115777366427,-0.2122320370425104,103.09832861362138,8.461020790667474,-0.22233985425402025
1403636672863555584,49.620867,497.2863186938542,9.733100125,-0.7109821249999999,-3.734699208333333,0.1396263401595463,-0.0356047167406843,0.0083775804095727,38.466273069743245,10.301744727602314,-0.13480195097091574
1403636673363555584,63.308477,567.068902332764,9.5124505,0.0898942916666666,-3.751043625,0.1096066770252439,-0.0293215314335047,0.0802851455917391,15.899100506952808,10.37107035228361,-0.027577913174249957
1403636673863555584,50.000906,683.6120061981092,9.07115125,0.3759215833333333,-3.4731885416666666,0.0111701072127637,0.104021623418862,0.0509636141582344,13.728094775629032,12.547212845543712,-0.17236405874615812
1403636674363555584,50.43602,461.46299020995457,8.466407833333333,0.0163444166666666,-3.1299557916666663,0.1696460032938488,0.0956440430092892,0.3204424506661589,23.481438212412534,11.918271121902785,0.022932182456049333
1403636674863555584,60.328722,307.82550159053505,10.713765125,-0.2288218333333333,-4.126965208333333,0.0900589894029074,-0.2268928027592628,0.093549647906896,28.174005289719066,11.459474756528907,-0.05467124553027425
1403636675363555584,49.726486,340.57636813889286,8.5317855,-0.4331270416666666,-3.726527,-0.0237364778271228,0.2827433388230814,-0.0844739357965255,13.360657733286407,10.221935192507807,-0.11684530647816338
1403636675863555584,49.991608,294.7023354829154,8.490924458333334,0.1552719583333333,-3.1054391666666663,0.5131268000863328,0.1584758960810851,0.4153883619746504,33.41035424814371,8.841944781969962,-0.07704668834668027
1403636676363555584,60.70304,420.82085853012927,9.046634625,1.0215260416666667,-3.587599458333333,0.3811799086355615,0.0537561409614253,-0.3420845333908886,25.184911157599764,6.009212422995852,-0.3547555691042046
1403636676863555584,49.914598,515.5741093898881,9.7085835,-0.0980665,-3.661149333333333,0.2073451151369263,-0.0977384381116824,0.1829105056090057,27.257693419889094,5.138200132160666,-0.0007345006386243469
1403636677363555584,49.416542,402.9090509811455,9.210078791666666,0.2043052083333333,-3.3506054166666663,0.1696460032938488,0.2373647782712288,-0.0488692190558412,18.816767525252448,5.997750912149938,0.15007505608890792
1403636677863555584,49.861908,343.4648682739617,9.013945791666666,0.6456044583333332,-2.40262925,0.5773549165597242,-0.2157226955464991,0.1633628179866692,25.24151509480833,6.1211822035577255,0.004324838392167685
1403636678363555584,58.089018,502.8927665778374,11.220442041666669,-0.24516625,-4.053415333333333,0.333008821280518,0.0013962634015954,-0.0251327412287183,18.42226630739884,2.9995263604597135,0.06448104254240494
1403636678863555584,59.688806,472.7589558296363,7.632842583333333,0.0980665,-2.606934458333333,0.3288200310757317,0.0390953752446729,-0.4209734155810323,16.901982103734262,4.363662456928349,0.2606145936359505
1403636679363555584,60.134649,382.7317607716275,9.242767625,0.7763597916666666,-3.1054391666666663,0.5159193268895238,0.0565486677646162,0.0090757121103705,7.450406231337617,5.5135973777422835,0.1249409114172284
1403636679863555584,40.220975,467.6864943355026,10.386876791666666,-0.5557101666666666,-2.557901208333333,-0.0097738438111682,0.2045525883337354,-0.0823795406941323,16.703255121589912,6.7682024585227,-0.024581832981786178
1403636680363555584,49.645423,498.2183229664748,8.834157208333334,0.2941994999999999,-2.9256505833333333,-0.1410226035611418,-0.1528908424747032,-0.1389282084587486,25.178699661749437,6.598306853493646,-0.030170845263937984
1403636680863555584,49.929142,338.7018682143864,7.84532,0.4739880833333333,-2.574245625,0.1494001839707146,-0.0691150383789754,0.5808455750637129,38.0127548516175,6.278904430811351,0.012799962996018266
1403636681363555584,38.778543,382.6681651447987,9.299973083333333,0.5230213333333333,-4.886980583333333,-0.0460766922526503,0.2869321290278678,0.0523598775598298,49.90916306683996,5.5876432850161155,-0.02896730275690551
1403636681863555584,50.089836,517.4265867791042,10.321499125,-0.2369940416666666,-3.415983083333333,0.0446804288510548,-0.0132645023151569,0.1103048087260416,50.24262427958758,4.656472021392938,-0.12806594229151003
1403636682363555584,50.217628,459.7461273223676,8.891362666666666,-0.1307553333333333,-1.5527195833333332,0.0083775804095727,-0.132645023151569,0.1556833692778942,51.81780522436311,3.408029668992061,-0.0659646471475126
1403636682863555584,47.264576,590.3975833474802,9.9047165,0.3268883333333333,-2.827584083333333,0.0111701072127637,0.0656243798749867,-0.0041887902047863,51.673008486918704,2.531463550029699,-0.05910994383382695
1403636683363555584,34.204483,457.18781345194543,8.302963666666667,0.196133,-2.312734958333333,0.0705113017805709,-0.0628318530717958,0.179419847105017,53.88258870731827,2.6830253118941045,-0.0166240565283009
1403636683863555584,49.67618,528.7957390957397,12.715956166666665,1.005181625,-4.184170666666667,0.1012290966156711,0.0097738438111682,0.140324471860344,57.51238544443649,3.0018094950052068,-0.1026952758261035
1403636684363555584,39.800882,479.14759388177015,7.322298666666667,0.024516625,-2.672312125,0.0216420827247296,0.1082104136236484,0.0663225115757845,52.56814049098069,2.5331416482887494,-0.02106433677205688
1403636684863555584,51.115274,474.77050231463113,8.319308083333333,0.73549875,-3.391466458333333,0.025830872929516,0.0425860337486616,0.0370009801422797,57.7379690918559,14.341745222898266,-0.3158737803322662
1403636685363555584,50.287008,595.3161610112579,8.556302125,0.1634441666666666,-2.8602729166666667,-0.075398223686155,0.0006981317007977,0.0174532925199432,43.62314113939503,14.528065465861395,-0.009228094805408205
1403636685863555584,46.932221,543.0717111576992,8.172208333333334,0.8499096666666667,-1.9695022083333331,-0.0495673507566389,0.054454272662223,-0.0041887902047863,47.07660349074012,15.562933895453366,0.07189812566489984
1403636686363555584,60.975551,584.9012654962477,7.044443583333333,0.7028099166666667,-2.1166019583333333,-0.0328121899374933,-0.0425860337486616,0.064926248174189,49.79324169614727,16.125037418828434,0.16200588528179694
1403636686863555584,50.230265,587.0650448928143,10.019127416666668,0.0,-4.110620791666666,0.0516617458590321,0.093549647906896,0.1445132620651305,44.048824035077736,16.36770931744942,0.08302638782918947
1403636687363555584,43.719291,625.5362400508413,8.311135875,0.0572054583333333,-3.113611375,-0.0397935069454707,0.0558505360638185,0.0432841654494593,39.14379897678574,19.012766748070973,0.1863215245947849
1403636687863555584,50.698519,587.7392236733291,7.935214291666666,0.392266,-1.985846625,-0.0314159265358979,0.0663225115757845,0.0321140582366956,36.39618664116385,19.76888214044883,0.09848555696999739
1403636688363555584,49.589396,589.9209882687488,8.539957708333333,-0.661948875,-4.184170666666667,0.0027925268031909,0.0565486677646162,0.1696460032938488,39.14154962691675,20.823620718941253,0.14281398733408324
1403636688863555584,49.992323,445.7108399117128,10.1008495,0.0572054583333333,-4.274064958333334,0.0893608577021096,-0.0879645943005142,0.0509636141582344,42.39280620506604,18.959521077618525,-0.04189990995676851
1403636689363555584,49.702406,610.2300549393696,9.716755708333332,0.465815875,-2.7376897916666665,0.0509636141582344,-0.0237364778271228,0.0111701072127637,39.524584611375666,20.034491485708752,0.07840786131400179
1403636689863555584,49.228192,585.1262427792948,9.667722458333332,0.4903325,-2.59876225,0.0097738438111682,0.1473057888683213,0.1801179788058148,37.766951147344784,20.76036473478142,0.01432685651883503
1403636690363555584,46.675682,670.31706828699,8.989429166666666,0.8008764166666666,-3.5222217916666665,-0.046774823953448,0.0251327412287183,-0.0390953752446729,22.22297710625358,20.560716672075106,-0.03383422377840617
1403636690863555584,59.356212,537.1393716554461,11.163236583333331,-0.5965712083333333,-3.505877375,0.0760963553869527,0.361632221013225,0.2247984076568696,17.405761835717314,20.10122923619507,-0.07219110050334976
1403636691363555584,53.122759,469.1170378311193,10.844520458333331,-0.8989429166666666,-3.293399958333333,-0.0656243798749867,-0.1759291886010284,-0.2422517001768129,32.3452974663014,18.435114875775287,-0.5608696987635433
1403636691863555584,52.13356,556.2175734624847,7.134337875,-0.63743225,-3.530394,0.0432841654494593,-0.0998328332140756,0.1542871058762987,54.04961350117726,17.521969787650367,-0.11042609616617227
1403636692363555584,49.330235,600.6038790957565,10.166227166666664,0.2533384583333333,-3.661149333333333,0.0356047167406843,0.0244346095279206,0.1891936909161853,50.47612941527013,17.207469034840212,-0.09093270953313848
1403636692863555584,42.664289,660.9951351635983,7.886181041666666,0.2941994999999999,-2.476179125,-0.1082104136236484,-0.1438151303643327,-0.1270599695451872,49.213338985436124,16.9635717751149,-0.010059133506633344
1403636693363555584,50.509453,766.900937502694,8.703401874999999,0.1552719583333333,-3.211677875,0.0537561409614253,-0.1780235837034216,0.2178170906488923,29.42708069044232,17.29662149302256,0.01787266920168662
1403636693863555584,59.872866,486.3056082291931,7.183371125,1.1686257916666667,-3.2361945,0.0593411945678072,0.4202752838802345,0.0747000919853573,16.247738362610015,16.97159554179725,-0.09126665726544658
1403636694363555584,49.930811,767.4796491722108,8.5317855,0.3023717083333333,-3.930832208333333,-0.0614355896702004,-0.0558505360638185,0.0879645943005142,16.10847810885589,16.181157548179044,-0.05562144267616631
1403636694863555584,50.332785,662.5726967656576,7.9433865,0.0980665,-1.7161637499999998,0.1110029404268393,-0.0146607657167523,0.3113667385557884,12.79797663355674,15.712556678026814,-0.053666924728435816
1403636695363555584,60.176373,702.2123546745901,11.048825666666666,-0.1634441666666666,-3.546738416666667,-0.0048869219055841,0.028623399732707,0.0642281164733913,14.599782514754448,15.077538208855076,-0.06346408865235809
1403636695863555584,52.81353,756.0086733182108,8.621679791666667,1.201314625,-1.9449855833333327,0.0090757121103705,0.0502654824574366,0.122173047639603,14.891936621703671,14.349352561039682,-0.05791294900689259
1403636696363555584,58.771372,421.5437007214946,10.656559666666666,0.0735498749999999,-3.2443667083333327,0.0307177948351002,0.478918346747244,0.2227040125544764,9.891612694092832,13.972413820040616,-0.06149105872147409
1403636696863555584,49.761534,734.6644402117404,9.553311541666666,0.5066769166666666,-3.366949833333333,-0.0474729556542457,0.0851720674973232,-0.0223402144255274,2.8389981255295056,13.859945938342966,-0.017422731175653183
1403636697363555584,52.202701,540.589703318209,9.80665,0.93163175,-3.652977125,0.0670206432765822,-0.1354375499547599,0.3651228795172137,7.196543157743067,14.05389677574233,0.03317581550065185
1403636697863555584,50.055027,596.1041982175459,9.716755708333332,0.0326888333333333,-3.195333458333333,-0.3735004599267865,-0.0118682389135614,0.2192133540504878,27.707015987900512,14.16910803169783,-0.05456468684866245
1403636698363555584,39.03985,637.4104713936518,9.896544291666666,-0.1552719583333333,-2.5660734166666663,-0.2932153143350474,0.0677187749773799,0.2527236756887789,31.423754988721832,14.245681449143424,0.011819017514213215
1403636698863555584,50.225735,565.8227629443713,9.847511041666666,-0.3023717083333333,-3.260711125,-0.4642575810304917,0.1759291886010284,0.5054473513775578,36.368624272669585,13.565641438766479,-0.1395976728721493
1403636699363555584,57.80363,544.6303371807171,9.332661916666666,0.0653776666666666,-4.241376125,-0.546637121724624,0.0837758040957278,0.4167846253762458,32.55464263678415,12.41233714619703,-0.09171185091891232
1403636699863555584,39.250612,648.5793492778306,7.216059958333333,0.269682875,-3.669321541666666,-0.3413864016900908,0.2687807048071267,0.0642281164733913,10.287799447248847,10.536262469314027,-0.1386590700820154
1403636700363555584,49.866677,804.798909285387,9.1201845,-0.3514049583333333,-4.069759749999999,-0.1019272283164688,-0.0523598775598298,0.2673844414055313,16.78895778868888,10.501119800866016,-0.020886089760066895
1403636700863555584,60.08172,795.4379021123484,9.471589458333332,-0.0572054583333333,-3.268883333333333,-0.0907571211037051,-0.1954768762233649,0.1703441349946465,32.47659428433996,10.467046285537567,-0.19825380576442697
1403636701363555584,49.302101,1014.5951920594948,8.229413791666666,0.3514049583333333,-2.6477955,0.0027925268031909,0.0411897703470661,0.036302848441482,22.155675881775505,10.838352494683619,0.8257008865892779
1403636701863555584,53.556681,746.311938699784,7.289609833333333,-0.2941994999999999,-3.1054391666666663,-0.2666863097047335,-0.0621337213709981,0.1368338133563554,21.6274265319951,11.55938096914205,-0.29820787391371084
1403636702363555584,49.442053,545.5296651916597,8.793296166666666,-0.0081722083333333,-2.2963905416666663,-0.260403124397554,0.0139626340159546,0.0998328332140756,23.852167736513213,9.557104013391568,-0.15526036984874736
1403636702863555584,50.741672,626.7847395142504,9.618689208333333,0.6782932916666666,-4.045243125,-0.0418879020478639,-0.0349065850398865,0.036302848441482,29.00959762704111,11.232189476828877,0.07279787403597737
1403636703363555584,46.865941,739.2718514471945,8.221241583333333,0.612915625,-2.280046125,-0.007679448708775,0.0495673507566389,-0.0055850536063818,14.637557732080776,10.890874724295669,0.08981827021363031
1403636703863555584,40.296077,585.2768293848321,9.684066875,-0.8825985,-3.391466458333333,0.0418879020478639,0.0705113017805709,0.1864011641129944,18.901729861253436,11.466857076931767,0.033630454579585134
1403636704363555584,49.718141,628.9417086656375,10.256121458333332,0.4004382083333333,-3.0073726666666665,0.0160570291183478,-0.0886627260013119,0.0607374579694026,16.784986395396313,14.405016895052885,0.03474684714196563
1403636704863555584,42.705774,561.8788409837285,8.074141833333334,0.0163444166666666,-2.59876225,0.0132645023151569,-0.0607374579694026,0.0446804288510548,17.57207326011138,14.452754147597647,0.012479566324024916
1403636705363555584,40.180445,550.482332702141,8.638024208333333,0.1307553333333333,-2.50069575,-0.0146607657167523,0.2038544566329376,0.0628318530717958,13.91769172880176,13.422358661200922,-0.07518060715170982
1403636705863555584,48.123837,378.1693767289072,9.504278291666663,0.4821602916666666,-3.734699208333333,0.064926248174189,0.1850049007113989,0.2527236756887789,14.923356079705307,12.169227129676335,-0.12268195985746111
1403636706363555584,50.373078,546.3682640441016,9.013945791666666,-0.0081722083333333,-2.582417833333333,-0.0558505360638185,-0.0118682389135614,-0.1319468914507713,18.701179561606008,12.041364912090211,0.32848001677194105
1403636706863555584,50.40288,598.2537127268256,10.215260416666666,0.24516625,-5.418174124999999,-0.0586430628670094,-0.0565486677646162,0.1165879940332212,14.696248520544986,11.931836300916029,-0.022557548019676688
1403636707363555584,50.037384,648.8710640810073,11.03248125,0.0898942916666666,-3.178989041666666,-0.0446804288510548,0.036302848441482,0.0907571211037051,32.92282435386739,11.92973085335839,0.08614054537630267
1403636707863555584,48.700333,576.1263211212841,6.505077833333333,0.9234595416666666,-2.3372515833333334,0.0425860337486616,0.1054178868204575,0.0774926187885482,44.369135582913785,12.748818262957629,0.060738694365383594
1403636708363555584,38.658142,478.5983021818489,8.7279185,0.024516625,-3.2035056666666666,0.1333431548523667,0.0740019602845595,0.3860668305411457,24.30840568408507,14.376133439305258,0.2588435651428309
1403636708863555584,49.993992,543.3273084090756,9.7085835,-0.0817220833333333,-3.2035056666666666,-0.122173047639603,0.1277581012459849,-0.0062831853071795,14.293771043948366,12.819648010218057,0.021540935291366026
1403636709363555584,59.625626,585.9303130403244,7.681875833333333,0.1062387083333333,-2.9583394166666666,-0.0146607657167523,-0.0349065850398865,0.0356047167406843,16.119979699780977,12.413559081289915,-0.03310002427245351
1403636709863555584,39.623499,582.8178432617601,9.741272333333333,0.7191543333333333,-3.92266,0.0558505360638185,-0.0055850536063818,0.1061160185212552,25.659454091106603,11.765582514696499,-0.08132678665948312
1403636710363555584,38.726568,385.6458592276389,9.487933875,0.4576436666666666,-3.857282333333333,0.2213077491528809,0.0949459113084915,0.3602359576116296,38.906671020067066,10.937481150948402,-0.09531163170182211
1403636710863555584,50.106287,408.9962821346752,9.308145291666667,-0.3023717083333333,-3.08909475,0.257610597594363,-0.0223402144255274,-0.2520255439879811,38.963324035878074,12.357143600826708,-0.17460776166378444
1403636711363555584,60.403824,500.48070232332446,9.65955025,0.3595771666666666,-4.56009225,0.0411897703470661,0.1773254520026238,0.210835773640915,28.954478297367324,12.528571413788608,-0.10934037792086038
1403636711863555584,60.862303,530.8254159622495,10.313326916666666,0.73549875,-4.404820291666666,0.046774823953448,-0.1305506280491758,0.3022910264454179,36.29526082534822,10.979925962710038,-0.1485802269940102
1403636712363555584,54.803371,497.5528753640006,8.760607333333333,0.1552719583333333,-2.01036325,0.2666863097047335,0.0509636141582344,-0.1996656664281513,38.43074100373125,9.404505078361803,-0.013917223902266684
1403636712863555584,60.984135,615.249711704779,8.703401874999999,0.171616375,-3.685665958333333,0.0223402144255274,-0.0719075651821663,0.1110029404268393,38.7658801809852,8.269378585326145,-0.16403775680071675
1403636713363555584,50.762653,662.2559956429399,11.007964625,0.34323275,-2.745862,-0.0195476876223364,-0.1061160185212552,0.2017600615305445,36.79986325701633,7.920014140973974,-0.06706024375454689
1403636713863555584,49.746513,687.813389561376,9.716755708333332,0.220649625,-2.982856041666666,-0.0691150383789754,0.0069813170079773,0.0460766922526503,33.48441452041655,7.203052226612508,-0.061289284335792615
1403636714363555584,46.763182,673.8614608677536,10.599354208333333,0.6047434166666666,-3.849110125,-0.0216420827247296,-0.0516617458590321,0.1410226035611418,19.72968415627673,7.544842673281274,-0.13679279611965978
1403636714863555584,39.78467,482.6709641470448,10.828176041666667,0.4903325,-4.519231208333333,0.4565781323217166,0.0530580092606276,-0.1947787445225671,18.32039330378898,8.05641585503031,0.053798216676360866
1403636715363555584,42.808294,599.2095148862477,7.976075333333333,-0.1879607916666666,-2.3209071666666663,0.1103048087260416,0.0991347015132779,0.0607374579694026,12.425821013481189,8.661716834664276,-0.01442662853816934
1403636715863555584,47.240257,624.8083910392016,11.898735333333333,-0.9152873333333332,-4.429336916666666,-0.064926248174189,0.1877974275145898,0.0432841654494593,10.105855043993316,8.541271224714738,0.08405735859514607
1403636716363555584,49.71075,697.3468991622515,9.283628666666663,0.5720545833333333,-4.26589275,-0.0747000919853573,-0.036302848441482,0.0949459113084915,3.349889146109037,8.77813044478479,-0.00784036668404653
1403636716863555584,49.962759,613.2573137590538,9.724927916666667,1.3075533333333331,-3.18716125,0.289026524130261,-0.0307177948351002,-0.0551524043630208,14.82289370494617,9.481369359797213,0.09180951447173236
1403636717363555584,39.561987,649.2770692621758,9.831166624999998,-0.44129925,-4.233203916666667,0.0488692190558412,0.0006981317007977,-0.293913446035845,12.864568760936484,11.947227274853212,0.15651224976032374
1403636717863555584,49.927712,617.7515791222177,11.351197375,-1.1195925416666666,-4.0125542916666666,0.1305506280491758,0.0139626340159546,-0.0733038285837618,20.38247197566213,12.14948656615795,0.021178103456300335
1403636718363555584,41.59069,468.2346079939724,9.978266375,-0.5802267916666666,-3.7837324583333327,0.3344050846821135,0.0293215314335047,0.0747000919853573,35.87855879990089,11.415552638962282,0.017986889119919525
1403636718863555584,47.11175,687.3807990230392,10.501287708333331,0.8825985,-2.8847895416666667,0.0335103216382911,0.0760963553869527,-0.124965574442794,48.47428315348521,11.807658543834325,0.07414732797032997
1403636719363555584,57.379007,707.5581656642853,9.430728416666666,0.0980665,-4.143309625,-0.0265290046303138,0.0733038285837618,0.1110029404268393,39.045484336152384,12.631445598779791,0.006485352387480603
1403636719863555584,49.106359,729.799865442601,8.28661925,0.83356525,-2.8602729166666667,-0.0642281164733913,0.0705113017805709,0.0851720674973232,37.04491902557928,13.329994136405476,0.05379453077738461
1403636720363555584,50.646782,721.2108013901509,9.594172583333334,0.0653776666666666,-3.57942725,0.0272271363311115,0.0251327412287183,0.1165879940332212,28.741904099787895,13.518038606328398,0.2903127128393077
1403636720863555584,50.185918,674.6907747501978,7.853492208333332,0.367749375,-2.525212375,-0.2590068609959585,0.0397935069454707,0.1843067690106012,21.66506050054447,13.961690117432415,-0.009620285584627908
1403636721363555584,53.355456,649.2601401087632,11.13054775,-0.53936575,-3.742871416666666,-0.257610597594363,0.0125663706143591,0.1494001839707146,13.257853918022617,13.481331218862946,-0.008027723639431272
1403636721863555584,62.042713,807.0805872017896,10.1008495,-0.0408610416666666,-4.028898708333333,-0.0914552528045028,-0.0160570291183478,0.0279252680319092,7.829843014322519,13.626990081245536,-0.00911408987560236
1403636722363555584,64.90922,849.0815647641969,10.272465875,-0.196133,-2.8602729166666667,0.0146607657167523,-0.054454272662223,0.1137954672300302,10.969100093714685,14.034635095984083,0.05838977084038355
1403636722863555584,50.277233,879.7767531300678,8.9240515,0.0898942916666666,-2.9583394166666666,-0.0411897703470661,0.0188495559215387,0.0300196631343024,12.874385466650928,14.61074654273506,0.12392376832318064
1403636723363555584,60.981989,801.9009398216446,10.34601575,-0.7191543333333333,-3.8164212916666655,-0.1926843494201739,0.0886627260013119,0.0202458193231342,7.25014161699683,14.920107278489992,0.014361345097242406
1403636723863555584,66.920996,694.7585920590228,9.438900625,-0.1552719583333333,-2.8602729166666667,-0.0670206432765822,-0.1005309649148733,0.1801179788058148,9.876565121130206,13.937327973148724,-0.0804344517200466
1403636724363555584,60.67872,675.1609020117374,11.367541791666666,-0.024516625,-3.669321541666666,-0.3707079331235955,0.1647590813882647,0.1731366617978375,14.993637580259978,14.639590773539974,-0.0016775634216532609
1403636724863555584,56.336641,994.3073144295164,9.087495666666666,-0.3759215833333333,-2.778550833333333,0.0293215314335047,-0.0335103216382911,0.122173047639603,5.404181152136559,14.17585765892719,0.04424751130775739
1403636725363555584,49.835444,957.3653929891568,9.291800875,-0.5883989999999999,-2.3372515833333334,-0.0020943951023931,-0.0153588974175501,0.1019272283164688,18.40449915914757,14.549229395596324,0.1338862770918574
1403636725863555584,60.290575,1006.2304158055172,8.580818749999999,0.24516625,-2.0757409166666667,0.0125663706143591,-0.0006981317007977,0.1263618378443894,7.9364366949204515,15.039865694559628,-0.05997628625534013
1403636726363555584,38.742542,1016.0718819602369,9.822994416666669,0.196133,-2.1411185833333333,0.0160570291183478,0.1207767842380075,0.0614355896702004,7.760674465493768,14.942163966625024,-0.0739087395267628
1403636726863555584,39.657355,923.923996980152,8.458235625,-0.024516625,-3.138128,0.0013962634015954,0.0481710873550434,-0.2443460952792061,5.805506308082217,15.623472856046872,0.10948542588715426
1403636727363555584,52.930116,1044.0751827627312,8.196724958333332,-0.2124774166666666,-2.533384583333333,-0.0397935069454707,-0.0733038285837618,0.0293215314335047,15.696379509396543,17.548544375022065,1.1405355671189064
1403636727863555584,57.893991,853.3073749221612,8.458235625,-0.7191543333333333,-2.018535458333333,-0.0712094334813686,0.0349065850398865,-0.0614355896702004,12.948640536774283,18.108769276840693,0.09345879556984826
1403636728363555584,38.803815,1055.5190570979162,7.526603874999999,0.3759215833333333,-2.4189736666666666,-0.0195476876223364,-0.0726056968829641,0.1242674427419962,16.385528574849108,18.628088693759402,0.09366623903951066
1403636728863555584,61.353922,824.2748282278258,8.401030166666667,-0.0898942916666666,-1.9286411666666663,0.2324778563656447,0.0816814089933346,-0.0991347015132779,15.764282160087228,20.105781189972813,0.20967506423142268
1403636729363555584,40.047884,1077.6049044721285,8.392857958333332,-1.0296982499999998,-2.288218333333333,0.025830872929516,-0.0034906585039886,0.0558505360638185,17.714476697263848,21.27535468617116,0.12154614503126027
1403636729863555584,60.370922,1029.7199487565952,8.065969625,1.0950759166666666,-3.415983083333333,0.0090757121103705,0.0342084533390888,0.1500983156715123,22.315220484445497,21.92258946520667,0.06292200588392305
1403636730363555584,50.823688,1148.1674123325963,8.098658458333333,0.4331270416666666,-3.734699208333333,0.0132645023151569,0.0055850536063818,0.0488692190558412,25.76539337595831,22.748963022287185,0.06634753508949487
1403636730863555584,39.681911,1092.3534064377077,8.262102624999999,0.5148491249999999,-2.69682875,0.0300196631343024,-0.0251327412287183,0.1808161105066125,23.942393939974803,23.715579473127292,-0.2796627055200851
1403636731363555584,50.565481,1086.520806204602,7.330470875,-0.5230213333333333,-2.623278875,-0.0586430628670094,0.0509636141582344,-0.0628318530717958,15.112593599356092,22.99503572816752,-0.1631470078853674
1403636731863555584,41.517496,1185.7872830758706,9.896544291666666,-0.0408610416666666,-3.4241552916666667,-0.0551524043630208,-0.0188495559215387,-0.0188495559215387,10.6659342439578,23.30708426297144,0.34856552755158887
1403636732363555584,60.617447,1181.6924712196185,9.161045541666669,0.0980665,-3.18716125,-0.0872664625997164,0.1494001839707146,-0.124965574442794,20.37274037926475,23.93164060274329,0.040868298596898
1403636732863555584,60.256719,1199.424849903772,9.112012291666666,-0.3514049583333333,-3.3260887916666664,0.0230383461263251,-0.0314159265358979,0.1068141502220529,5.61950183351299,24.448947477354306,0.15388602565163012
1403636733363555584,42.004823,1086.29511312585,7.976075333333333,-0.6456044583333332,-1.7488525833333333,-0.0041887902047863,-0.0767944870877505,0.1186823891356144,15.738302041127112,25.931468280412833,0.02315029319483841
1403636733863555584,46.974898,1169.4202760231976,9.046634625,-0.7600153749999999,-2.5415567916666664,0.0125663706143591,0.0684169066781777,0.1521927107739055,20.42819818005278,27.234770433167277,0.09706764578055171
1403636734363555584,39.224386,1179.6941585024813,10.019127416666668,0.6701210833333332,-3.2443667083333327,0.0237364778271228,-0.0314159265358979,0.0914552528045028,25.123985368988404,30.702209464859536,2.466393660282055
1403636734863555584,43.393612,1171.462678623356,9.594172583333334,0.1552719583333333,-3.309744375,0.025830872929516,0.0265290046303138,0.0823795406941323,24.22786219548011,31.082309846603472,0.33098225851059127
1403636735363555584,35.500765,1211.4102428039362,10.73828175,0.3759215833333333,-2.868445125,-0.0034906585039886,0.0300196631343024,0.1410226035611418,24.91135612848688,31.52834373247725,0.11201355744649177
1403636735863555584,49.949646,1251.3009350156674,8.074141833333334,-0.563882375,-2.0021910416666664,-0.0523598775598298,0.0823795406941323,0.0523598775598298,20.840569094908336,31.625871410273053,-0.08454078237420504
1403636736363555584,60.656309,992.8126246007498,7.984247541666667,0.8172208333333333,-3.702010375,0.1347394182539622,-0.0104719755119659,-0.0300196631343024,18.463859891238073,32.403530696996405,0.04504160373937793
1403636736863555584,39.806843,1129.319916304717,8.793296166666666,1.0705592916666666,-2.1983240416666665,0.0411897703470661,0.0453785605518525,0.046774823953448,18.412565789632225,32.906895714843785,0.03497425195724446
1403636737363555584,60.45413,944.438335315518,10.362360166666663,-0.2778550833333333,-4.077931958333333,0.0460766922526503,-0.1054178868204575,0.0593411945678072,33.02477590421382,12.602525703619563,-0.2758297464355408
1403636737863555584,41.224956,1129.963211687352,9.716755708333332,0.465815875,-3.734699208333333,0.0174532925199432,0.0349065850398865,0.1340412865531645,23.494114016349354,11.922886201467708,-0.03231582445395098
1403636738363555584,60.292721,1044.2869657409583,8.752435125,-0.8580818749999999,-3.309744375,-0.0488692190558412,-0.0851720674973232,0.08307767239493,21.570755123246116,11.979517088666796,-0.005310646617580517
1403636738863555584,38.584471,624.5294538362631,7.093476833333334,-0.2043052083333333,-2.435318083333333,-0.4014257279586957,0.1738347934986352,0.3344050846821135,5.144263419049187,12.26181137069679,0.02158145796846256
1403636739363555584,40.908337,626.888653347249,11.138719958333333,0.2615106666666666,-4.094276375,-0.6422811647339132,0.0370009801422797,0.0726056968829641,15.76467386808938,14.308408366869768,-0.22205676763868176
1403636739863555584,43.028116,1081.4434091727535,8.360169125,-0.3105439166666667,-3.4486719166666666,-0.1284562329467826,-0.1103048087260416,0.0942477796076938,14.657364403449893,16.306671762499032,0.15947762367066431
1403636740363555584,50.723552,1115.1034420659555,8.915879291666666,-0.2778550833333333,-3.023717083333333,0.1640609496874669,0.1054178868204575,0.1710422666954443,15.51930818148356,18.274410615361443,0.15112411250341395
1403636740863555584,49.833298,1209.1574606282174,6.513250041666667,0.1879607916666666,-2.0593965,-0.0411897703470661,0.1158898623324234,-0.0390953752446729,18.31997992258935,19.988137401688235,0.2221139922846831
1403636741363555584,46.871424,575.6437694661346,9.765788958333331,0.5965712083333333,-4.323098208333334,-0.0621337213709981,-0.3183480555637657,0.2555162024919699,25.433247827886674,22.487420312165163,0.23885382811650402
1403636741863555584,39.72888,999.842682930109,10.215260416666666,-0.563882375,-2.89296175,-0.0265290046303138,0.0921533845053006,-0.0635299847725936,21.775946187379695,25.007349533271356,0.22847704991668394
1403636742363555584,49.042463,821.3718883066833,9.275456458333332,0.0980665,-2.3944570416666666,0.0446804288510548,0.2122320370425104,0.1466076571675237,14.280889852397745,26.951330907738257,0.09759975439807889
1403636742863555584,60.563803,1105.1017281173745,8.392857958333332,0.2533384583333333,-3.048233708333333,0.036302848441482,0.0628318530717958,0.1361356816555577,2.6739075914513917,27.742822060822984,0.03748039105196099
1403636743363555584,51.077127,859.3218785363916,10.435910041666666,-0.7681875833333334,-3.92266,0.0034906585039886,-0.0328121899374933,0.1975712713257581,16.51642285986174,29.329982633866535,0.09426482960943972
1403636743863555584,60.647726,815.9550113762521,7.167026708333333,0.5557101666666666,-2.1983240416666665,-0.1207767842380075,0.1277581012459849,0.0272271363311115,8.435196200966768,29.90993845266376,0.1930798415728745
1403636744363555584,49.89624,814.8080311962316,8.262102624999999,0.6864655000000001,-4.135137416666667,-0.0523598775598298,0.0097738438111682,0.210835773640915,19.68649464280592,32.185589610430796,0.37190657807263605
1403636744863555584,49.712419,614.567481391108,9.324489708333331,0.5883989999999999,-2.476179125,-0.0293215314335047,-0.0523598775598298,-0.0600393262686049,38.08780414507605,35.4721840723721,0.6097980307660293
1403636745363555584,49.608946,630.7429243800955,9.291800875,0.4086104166666666,-3.113611375,0.0663225115757845,0.1647590813882647,-0.1061160185212552,27.46215649575776,40.85808996277214,0.4493155594102447
1403636745863555584,50.668717,570.6368095931828,9.36535075,0.3023717083333333,-3.652977125,-0.1410226035611418,0.0949459113084915,0.1026253600172665,9.18586337679558,42.29337183752622,0.0770122729825502
1403636746363555584,49.43204,578.9921398643876,7.657359208333333,-0.2043052083333333,-2.8766173333333334,-0.0027925268031909,0.260403124397554,0.1165879940332212,14.841258307338567,40.449044338159545,-0.3272963610683277
1403636746863555584,47.115088,558.9765490227076,7.510259458333333,0.392266,-2.9174783749999995,0.1438151303643327,0.0160570291183478,0.2359685148696333,14.316979007792701,39.187990104893764,-0.060070843543435615
1403636747363555584,38.871765,743.8185293806744,9.822994416666669,-0.3105439166666667,-3.669321541666666,-0.0642281164733913,0.0726056968829641,0.0774926187885482,14.956057652221721,37.04042704031221,-0.40241520324385505
1403636747863555584,60.621023,704.0950913180541,10.83634825,0.1634441666666666,-2.729517583333333,0.0481710873550434,0.0823795406941323,0.4153883619746504,23.13397057323243,33.580104075969,-0.4535937902843088
1403636748363555584,41.112423,736.9740813301714,8.09048625,-0.83356525,-2.30456275,-0.1103048087260416,0.0767944870877505,-0.1843067690106012,26.017330532952293,30.07557172154763,-0.20622005653265774
1403636748863555584,60.435772,847.4856478684891,9.65955025,-0.416782625,-3.5957716666666664,-0.0314159265358979,0.1054178868204575,0.1766273203018261,21.064008493069757,27.584736273399628,-0.1976667616057668
1403636749363555584,39.154053,814.8043723288024,8.97308475,-0.1062387083333333,-4.437509125,-0.1123992038284348,-0.0390953752446729,-0.1151917306316257,15.124684103054802,26.004234208775294,-0.1837543593612665
1403636749863555584,49.247265,702.2767543819318,9.536967125,-0.3759215833333333,-3.023717083333333,0.0774926187885482,0.1626646862858715,0.1968731396249603,18.985081706939734,24.063956640984234,-0.07990126466359726
1403636750363555584,39.196491,927.7407440933406,11.408402833333332,0.1552719583333333,-3.7837324583333327,0.0670206432765822,-0.0565486677646162,0.0041887902047863,5.28870950081947,23.78735628538279,-0.05113485181701094
1403636750863555584,49.99423,1043.998590072165,8.97308475,0.0408610416666666,-4.086104166666667,0.054454272662223,0.0579449311662117,0.0837758040957278,22.811354325129,21.547025868415275,-0.26328580793125056
1403636751363555584,34.218311,935.587326401714,9.741272333333333,-0.1062387083333333,-2.7867230416666664,0.0146607657167523,-0.0474729556542457,0.2234021442552742,28.33260045589588,18.62760715953652,-0.2833017443756489
1403636751863555584,61.293602,1046.4791920600592,9.07115125,0.122583125,-3.546738416666667,-0.0439822971502571,-0.0279252680319092,-0.1766273203018261,22.1200288035247,17.024432007769047,-0.05376405705672482
1403636752363555584,50.565958,651.0557497839609,10.2969825,-0.3595771666666666,-3.8899711666666654,0.2834414705238791,0.124965574442794,0.0,20.555265574781348,16.43301765809412,-0.013988625610341643
1403636752863555584,49.906016,812.5386612993489,9.749444541666666,0.53936575,-2.7867230416666664,0.3797836452339661,-0.0230383461263251,-0.2143264321449036,22.357313719380087,18.057181813856175,0.16985730097658092
1403636753363555584,39.093732,818.0836932526779,9.56148375,1.2830367083333332,-3.1544724166666662,0.4223696789826278,0.0698131700797731,-0.1514945790731078,5.092775331865053,18.334869204071584,-0.11415225543160545
1403636753863555584,49.629927,1270.093954848541,7.542948291666666,0.1552719583333333,-3.342433208333333,-0.0432841654494593,0.0712094334813686,0.122173047639603,13.277096809808606,16.74451620020986,-0.15611155563568602
1403636754363555584,50.678492,1198.5261039354814,10.8853815,0.0081722083333333,-3.6202882916666654,0.0020943951023931,0.0230383461263251,0.0307177948351002,17.648445223188507,15.307706262652337,-0.08065625351254901
1403636754863555584,60.137749,820.3170301738257,8.989429166666666,0.2288218333333333,-3.6284605,0.228987197861656,0.0160570291183478,-0.0041887902047863,24.39055040666345,11.122501108686398,-0.2912727199712233
1403636755363555584,50.194025,641.5019626887324,8.87501825,-0.34323275,-4.118792999999999,-0.0439822971502571,-0.2143264321449036,0.1089085453244461,37.63306205714293,11.350456482840872,-0.1509167914058569
1403636755863555584,50.373554,847.4387834516924,8.9240515,-0.2124774166666666,-2.0512242916666668,-0.0293215314335047,-0.0335103216382911,0.1312487597499735,42.05132176930398,10.64963372890735,-0.16771460423442974
1403636756363555584,47.925949,840.1290706171983,7.265093208333333,-0.1389275416666666,-2.288218333333333,-0.0055850536063818,0.0195476876223364,0.0600393262686049,45.2379119534121,9.757889203422836,-0.08399064260050082
1403636756863555584,60.582876,838.167856253551,11.204097625,-0.1062387083333333,-4.143309625,-0.0216420827247296,-0.0314159265358979,0.093549647906896,46.69145899705639,8.800487377259929,-0.1666617313654104
1403636757363555584,43.576479,744.4702424739701,9.471589458333332,0.1634441666666666,-2.557901208333333,0.0174532925199432,0.0041887902047863,0.0998328332140756,46.96168085139022,7.87368631466839,-0.07173961405021512
1403636757863555584,46.081543,833.1854840397045,11.343025166666669,0.6782932916666666,-4.568264458333333,0.1521927107739055,-0.0691150383789754,0.1256637061435917,49.4809610105622,6.714254508024589,-0.04554116767165883
1403636758363555584,49.897194,670.3706000443544,9.112012291666666,0.220649625,-2.034879875,0.0425860337486616,-0.0062831853071795,0.1298524963483781,52.55609725136363,6.333189278183838,0.0036330392093502084
1403636758863555584,50.728321,438.0030666609084,8.09048625,0.8989429166666666,-3.0073726666666665,-0.0223402144255274,0.361632221013225,-0.1130973355292325,39.7023576326915,7.935009769808689,0.27614188138763396
1403636759363555584,60.667277,661.4942740158438,7.984247541666667,0.2778550833333333,-3.178989041666666,-0.0781907504893459,-0.0104719755119659,-0.2876302607286655,25.87343322071598,9.372366702756509,0.09378477711400812
1403636759863555584,50.465584,568.8969030315873,7.649186999999999,0.5475379583333333,-3.317916583333333,-0.007679448708775,-0.0600393262686049,0.1228711793404008,15.28391311546738,9.21202619207795,-0.03970962769929187
1403636760363555584,64.166308,789.0133410152716,8.793296166666666,0.1144109166666666,-2.982856041666666,-0.0006981317007977,0.1996656664281513,-0.0041887902047863,9.210682776098698,9.557561638501005,0.007387654692141865
1403636760863555584,46.691656,688.0478177393572,7.191543333333333,0.5883989999999999,-2.1738074166666665,-0.0460766922526503,0.1891936909161853,-0.0314159265358979,12.399533114056105,9.683176857873086,0.05969507221554693
1403636761363555584,49.836159,421.645326533573,10.378704583333333,-0.63743225,-4.077931958333333,0.0272271363311115,0.1710422666954443,0.1082104136236484,11.978694264706172,10.231104464562826,0.07864038634364157
1403636761863555584,59.623719,727.7883522574476,10.329671333333332,0.0408610416666666,-4.26589275,-0.0307177948351002,-0.0614355896702004,0.0460766922526503,10.124995992516462,11.28278692362111,0.09380483366221348
1403636762363555584,46.199083,497.88435880795424,7.199715541666666,0.122583125,-1.9776744166666664,0.0425860337486616,-0.2143264321449036,0.2178170906488923,7.1252634045091785,11.841460537717639,0.06353864660687947
