stamp,img_delta,blur,lin_acc.x,lin_acc.y,lin_acc.z,ang_vel.x,ang_vel.y,ang_vel.z,rpe,ate,drift
1403638520027829504,50.429821,310.39798959199703,9.062979041666669,-0.0572054583333333,-3.832765708333333,0.0,0.0244346095279206,0.0740019602845595,0.19720435483815874,0.19720435483818288,0.013761664375916638
1403638520527829504,51.083327,310.7887182679509,8.989429166666666,-0.0326888333333333,-3.8245935,-0.0048869219055841,0.018151424220741,0.0781907504893459,0.09494202690977306,0.203660113252492,-0.0017185335242021205
1403638521027829504,49.046278,311.26984878235345,9.103840083333331,0.0163444166666666,-3.857282333333333,0.0041887902047863,0.0188495559215387,0.0767944870877505,0.06755464398789561,0.2674328810584134,0.004194126577984403
1403638521527829504,50.014496,313.850329457211,9.152873333333332,-0.3105439166666667,-3.759215833333333,0.0104719755119659,0.0342084533390888,0.1277581012459849,0.4092163863837652,0.4425346364103397,0.17122229729133892
1403638522027829504,55.339575,302.833192179012,9.577828166666666,0.0326888333333333,-4.274064958333334,-0.0300196631343024,-0.0509636141582344,0.0013962634015954,2.0018830203980476,2.396423479386952,0.7603365605888066
1403638522527829504,48.987388,184.74801981205127,9.144701125,-0.5720545833333333,-3.4813607499999994,0.1591740277818828,-0.0998328332140756,0.2520255439879811,2.935010459912324,5.347033958081907,0.0692074307219741
1403638523027829504,39.200782,345.7369985065237,7.436709583333332,-0.7109821249999999,-2.778550833333333,-0.0216420827247296,0.1047197551196597,0.0621337213709981,1.4998565423847567,6.079320242057893,0.16509717863625184
1403638523527829504,42.320728,138.0429960205361,8.907707083333333,-0.5066769166666666,-3.178989041666666,-0.0621337213709981,-0.3274237676741362,-0.0621337213709981,3.818849850275564,4.9564549262019195,-0.09085768052544285
1403638524027829504,33.395529,156.41829245453778,11.506469333333332,0.0,-4.527403416666666,-0.0062831853071795,-0.124965574442794,-0.1207767842380075,3.311834855431467,4.218679467240654,-0.1657965680564324
1403638524527829504,49.596548,116.5173524229112,8.621679791666667,-0.196133,-3.38329425,0.0013962634015954,0.3448770601940795,0.0984365698124801,2.3200371862050626,4.075513972082537,0.038742750797087666
1403638525027829504,37.953377,951.3977832528516,6.946377083333333,0.0980665,-2.190151833333333,-0.0439822971502571,0.0914552528045028,-0.046774823953448,2.558313674563769,4.555054257982866,0.1711357521923338
1403638525527829504,48.692704,117.35809710941112,9.749444541666666,-0.1879607916666666,-4.208687291666666,0.0767944870877505,-0.2764601535159017,0.1647590813882647,4.530772215892469,7.527511154799902,0.12954797200364698
1403638526027829504,37.775994,288.98112845770106,9.586000375,1.1359369583333332,-4.339442625,-0.0928515162060983,-0.054454272662223,0.0872664625997164,3.1841633040601462,9.69459288627508,0.4770598914777686
1403638526527829504,50.027132,191.36122497214757,8.785123958333333,0.5230213333333333,-3.505877375,-0.1368338133563554,0.210835773640915,0.2408554367752175,5.591936543890014,14.859408654372409,1.5007780782804474
1403638527027829504,60.212373,188.93369260981476,9.504278291666663,-0.6292600416666666,-3.293399958333333,-0.3183480555637657,-0.153588974175501,0.1989675347273535,9.679627826042672,23.63844480329328,2.200553693916717
1403638527527829504,60.977459,602.6385062747416,8.842329416666665,-2.01036325,-3.293399958333333,-0.0523598775598298,0.028623399732707,0.0593411945678072,34.62932604379892,56.67469868600071,2.4154173157831735
1403638528027829504,39.150477,299.8829778037477,8.548129916666667,-0.0735498749999999,-3.391466458333333,0.2073451151369263,0.0844739357965255,0.0474729556542457,21.6791141693835,77.96170574024187,1.489363575816995
1403638528527829504,34.374475,319.9799534234847,9.455245041666666,0.34323275,-3.162644625,-0.0907571211037051,-0.0593411945678072,0.1570796326794896,17.46789712813782,93.89470881249231,3.701847606406673
1403638529027829504,49.185037,554.494570674264,8.458235625,-1.1359369583333332,-4.380303666666666,-0.0712094334813686,0.0013962634015954,0.0719075651821663,33.469158244198525,125.89389080347644,1.724120126144328
1403638529527829504,50.230741,114.63859308785712,9.185562166666664,0.7109821249999999,-3.366949833333333,0.0502654824574366,-0.3413864016900908,0.0237364778271228,25.50074632015184,151.59931046189192,2.6276379589492365
1403638530027829504,49.031019,258.57024567216814,9.283628666666663,0.4739880833333333,-3.7919046666666665,0.0027925268031909,-0.0502654824574366,0.0872664625997164,27.76650856431258,177.5776838220652,2.4988065511285242
1403638530527829504,37.855387,223.72993738989055,8.825985,0.1470997499999999,-4.388475875,-0.0530580092606276,0.0062831853071795,0.1158898623324234,53.92762654425124,226.6052069712481,5.641103581030393
1403638531027829504,50.734759,203.09157247155463,10.068160666666666,-0.0653776666666666,-4.944186041666666,-0.0062831853071795,0.1256637061435917,0.0069813170079773,43.008320989132315,268.0806976653651,5.300016476901192
1403638531527829504,50.230741,225.9756593786173,8.981256958333333,0.2124774166666666,-4.094276375,0.0006981317007977,0.018151424220741,0.0376991118430775,46.589139451554026,311.3052811294554,10.469553138899812
1403638532027829504,37.434816,228.4066198905153,9.013945791666666,0.0898942916666666,-3.8899711666666654,0.0,0.018151424220741,0.0370009801422797,67.4715901640053,377.38526726682574,7.277612737209097
1403638532527829504,50.851345,230.6454595330191,8.981256958333333,0.1307553333333333,-3.930832208333333,0.0069813170079773,0.0167551608191455,0.0907571211037051,77.5167650474356,452.96250305725084,8.074057374477945
1403638533027829504,48.788309,229.80130775155015,9.005773583333333,0.1389275416666666,-3.963521041666666,-0.0034906585039886,0.0223402144255274,0.0684169066781777,90.00662627879022,541.3243132896712,9.399516390862686
1403638533527829504,49.546004,230.5678476925193,8.915879291666666,0.1797885833333333,-3.87362675,-0.0041887902047863,0.0237364778271228,0.0851720674973232,101.97023287013565,641.6683237459946,10.694126837335602
1403638534027829504,66.259623,228.0710447824268,10.059988458333333,-0.7600153749999999,-4.519231208333333,0.0300196631343024,-0.0202458193231342,0.0844739357965255,114.37268809166264,754.6820911362149,11.927702081213056
1403638534527829504,60.843944,226.2220145900517,9.553311541666666,-0.2124774166666666,-4.347614833333333,0.0823795406941323,-0.0006981317007977,0.0760963553869527,126.25408890204623,879.7309592329276,13.064719034632958
1403638535027829504,61.95736,228.63426173817103,9.054806833333332,0.0163444166666666,-3.898143375,0.0307177948351002,0.0216420827247296,0.0460766922526503,138.6832030087717,1017.3848178310519,14.387720548670814
1403638535527829504,49.110889,229.1105371288928,8.752435125,0.196133,-3.8899711666666654,-0.0020943951023931,0.0195476876223364,0.0677187749773799,151.48527682601173,1167.894743156065,15.807425583701843
1403638536027829504,48.951865,227.4465361516993,9.430728416666666,0.3023717083333333,-4.159654041666666,-0.0083775804095727,0.0376991118430775,0.1110029404268393,165.04844457849683,1332.059943502184,16.820497702366538
1403638536527829504,50.631761,229.91561204381367,9.16921775,-0.2124774166666666,-3.963521041666666,-0.0090757121103705,0.0223402144255274,0.08307767239493,178.0331802189233,1509.2553939289876,18.23793687358466
1403638537027829504,66.57672,228.9929044121038,9.161045541666669,-0.4739880833333333,-3.92266,0.0083775804095727,0.0300196631343024,0.1123992038284348,192.99361047997786,1701.4795608919655,19.4830635610615
1403638537527829504,48.916816,226.76336898856675,9.430728416666666,0.24516625,-4.192342875,-0.0104719755119659,0.0502654824574366,0.08307767239493,206.64489397371057,1907.4745289221291,21.481816015720597
1403638538027829504,49.95966,221.86540010904224,9.855683249999998,-0.220649625,-4.4211647083333325,0.0083775804095727,0.0851720674973232,0.0886627260013119,221.39000022007252,2128.304287216827,22.85105109818096
1403638538527829504,50.049305,223.89485554367545,8.172208333333334,-0.2533384583333333,-3.391466458333333,-0.0223402144255274,0.0223402144255274,0.0886627260013119,235.80466639926755,2363.636156619915,24.16259335417317
1403638539027829504,49.725055,173.55937492926668,11.42474725,0.367749375,-4.314926,-0.0349065850398865,0.3029891581462156,0.1158898623324234,471.76749597064907,2833.0850906702694,96.55383869875232
1403638539527829504,43.431044,216.29077365718484,9.75761675,-0.318716125,-3.563082833333333,0.0265290046303138,0.0097738438111682,0.0774926187885482,400.9098799863343,3233.1588946023417,-6.431590697667161
1403638540027829504,50.657988,340.9150113525821,8.842329416666665,0.6946377083333333,-2.9256505833333333,0.0027925268031909,-0.1452113937659282,0.0,451.83150262175474,3677.6265687958935,29.52799836819895
1403638540527829504,46.824455,1051.0662326128245,10.354187958333334,-0.0735498749999999,-3.9390044166666662,0.239459173373622,0.0202458193231342,-0.0551524043630208,326.1008703472603,4001.6816042617093,34.17312092985776
1403638541027829504,61.003208,876.7744906175433,10.256121458333332,-0.6537766666666667,-2.8766173333333334,0.4523893421169302,0.0537561409614253,-0.0146607657167523,385.356861443425,4384.584824924809,38.86034080522131
1403638541527829504,52.381038,902.4445078683788,9.242767625,0.44129925,-3.5957716666666664,0.0279252680319092,0.0188495559215387,0.0523598775598298,377.934742007558,4758.325467880106,36.56247573548444
1403638542027829504,49.962044,568.9708048532997,9.80665,0.0081722083333333,-3.849110125,0.4712388980384689,-0.0726056968829641,-0.0328121899374933,390.4209719534789,5144.30184361034,40.35221963158892
1403638542527829504,49.881935,391.9386463224496,10.730109541666666,0.465815875,-4.257720541666666,0.1654572130890624,0.3532546406036522,-0.3120648702565861,421.3161380614303,5555.6079880942825,42.85140427872466
1403638543027829504,49.826383,307.10803076535365,9.422556208333331,0.220649625,-3.734699208333333,-0.0118682389135614,-0.0376991118430775,0.1745329251994329,429.6361892904037,5976.704096275988,44.675291924070734
1403638543527829504,49.982786,289.06025958971725,9.373522958333332,0.8662540833333333,-3.162644625,0.2597049926967562,0.0579449311662117,-0.0551524043630208,686.8015703329908,6655.612241521565,151.12307070409224
1403638544027829504,58.26807,239.63810595771284,9.65955025,0.4249548333333333,-3.7837324583333327,0.3797836452339661,-0.0984365698124801,0.0893608577021096,854.1656045422071,7501.375103147345,76.34213044348871
1403638544527829504,38.814783,574.7502101738437,10.043644041666663,0.7273265416666667,-3.6284605,-0.018151424220741,0.0230383461263251,0.0586430628670094,568.509176572521,8061.382635646429,57.680604117222174
1403638545027829504,49.979687,731.3703634795904,8.687057458333333,-0.4903325,-2.9174783749999995,0.0307177948351002,0.085870199198121,0.0900589894029074,588.672056143077,8641.121057367845,59.56925944652903
1403638545527829504,39.421559,816.3300763448464,9.692239083333332,-0.2860272916666666,-2.705000958333333,0.1710422666954443,-0.0397935069454707,0.0055850536063818,590.2080242409578,9221.582476429716,61.44556525346161
1403638546027829504,52.2995,796.7134791638849,9.814822208333332,0.3350605416666666,-3.514049583333333,0.4105014400690662,-0.0376991118430775,-0.1947787445225671,658.8847060748095,9870.071741535949,64.68100318806319
1403638546527829504,50.338983,1151.5031793456956,10.158054958333333,-0.318716125,-4.976874874999999,0.0607374579694026,-0.018151424220741,-0.0635299847725936,880.5664652235978,10737.469155475534,69.61978568205086
1403638547027829504,61.106682,1118.3039987537588,7.755425708333333,-1.2176590416666666,-3.1544724166666662,-0.0153588974175501,-0.0411897703470661,-0.0314159265358979,735.7779358093178,11462.192863608707,73.81815075286795
1403638547527829504,50.026893,1006.4860951878076,9.684066875,-0.5883989999999999,-3.2361945,0.0418879020478639,-0.036302848441482,0.2136283004441059,756.4196397650982,12208.584632687876,108.24279304107404
1403638548027829504,37.149429,943.9928800140052,10.83634825,-0.171616375,-4.0615875416666665,0.0907571211037051,-0.0090757121103705,0.1075122819228507,856.7086740892289,13054.261028578023,80.62705932377139
1403638548527829504,56.200981,673.2493410881415,9.471589458333332,-0.1634441666666666,-3.3506054166666663,0.2548180707911721,-0.0356047167406843,0.0,797.0249583409876,13841.02312281039,64.48791718470966
1403638549027829504,38.566589,749.4396621410989,9.961921958333331,0.3105439166666667,-3.1217835833333334,0.0020943951023931,-0.0062831853071795,0.1919862177193762,1059.8249027342044,14886.139572498143,77.48939078157127
1403638549527829504,34.805536,738.8311981816635,8.458235625,-0.63743225,-3.268883333333333,-0.0104719755119659,0.0530580092606276,0.1179842574348166,859.8239615307772,15737.205778281426,87.0899816556539
1403638550027829504,49.753427,842.6393741961372,9.724927916666667,0.367749375,-2.819411875,-0.0314159265358979,-0.0376991118430775,0.0425860337486616,877.5831391693982,16603.95699361403,78.13348172784026
1403638550527829504,50.277472,613.1715752246298,8.605335375,0.7518431666666666,-2.778550833333333,0.0495673507566389,0.1214749159388053,0.1843067690106012,874.6176052423764,17455.284464034496,95.80521933436103
1403638551027829504,35.034657,599.1098265733898,8.866846041666665,0.6701210833333332,-3.4568441249999995,-0.0020943951023931,0.182212373908208,0.0502654824574366,1032.244147586221,18454.238255848017,109.30557489157945
1403638551527829504,49.386978,489.0524591227163,10.190743791666666,-0.196133,-3.685665958333333,-0.3567452991076409,0.057246799465414,0.3755948550291797,1192.8361694332425,19636.506871849666,124.69795166557378
1403638552027829504,50.61531,495.9047885521192,11.016136833333332,-0.196133,-4.143309625,-0.2527236756887789,0.085870199198121,0.0195476876223364,1112.4000147457396,20737.627636898313,110.49231808128388
1403638552527829504,49.778224,628.3139404809876,10.73828175,-0.1144109166666666,-3.08909475,0.0174532925199432,0.122173047639603,0.0977384381116824,1245.5500747370882,21956.55308287995,119.4631294533574
1403638553027829504,39.649964,759.260379091747,8.3356525,0.8417374583333332,-2.631451083333333,0.0055850536063818,0.0698131700797731,-0.0991347015132779,1492.3730270548142,23228.35301582907,122.83690508674772
1403638553527829504,54.034949,714.9046647076395,10.051816249999998,-0.5802267916666666,-4.944186041666666,-0.0488692190558412,0.0628318530717958,-0.0474729556542457,1389.396327017391,24509.204664418063,133.15188328045042
1403638554027829504,49.862384,747.665305305797,10.574837583333332,-0.5066769166666666,-4.175998458333333,0.0167551608191455,-0.1061160185212552,0.0677187749773799,1412.6258508609533,25830.446863108147,131.2331060901197
1403638554527829504,42.225599,891.9063602477713,7.518431666666666,1.569064,-1.201314625,0.0600393262686049,0.0691150383789754,0.1500983156715123,1298.6471873833914,27120.824547147447,136.15857567600688
1403638555027829504,50.021649,751.7987067472543,10.059988458333333,0.3595771666666666,-3.0318892916666664,-0.1521927107739055,-0.0083775804095727,0.1445132620651305,1391.1434776326403,28511.075244375603,147.1331788430216
1403638555527829504,49.901009,843.8627752058262,9.161045541666669,-0.5066769166666666,-4.290409374999999,-0.1047197551196597,0.0244346095279206,-0.0439822971502571,1503.2132398123094,30007.560404063726,151.26576362108244
1403638556027829504,50.223112,967.5456143155706,7.485742833333332,0.0817220833333333,-1.830574666666667,-0.0279252680319092,-0.0418879020478639,0.0537561409614253,1563.4073014253318,31540.01368030525,155.74765172378466
1403638556527829504,41.419029,962.950110191152,8.907707083333333,-0.6456044583333332,-2.803067458333333,-0.0125663706143591,-0.0055850536063818,0.1054178868204575,1659.5280375712762,33153.20713036867,158.68880599662953
1403638557027829504,57.953119,899.2017314854359,7.542948291666666,0.2124774166666666,-2.778550833333333,-0.0495673507566389,-0.0300196631343024,-0.0062831853071795,1850.6637087890415,34857.01686734559,163.55703319155145
1403638557527829504,49.703121,775.2025711380466,9.5124505,0.2533384583333333,-4.233203916666667,-0.0153588974175501,0.0188495559215387,-0.0502654824574366,1881.3237316675575,36546.62370094845,171.55950981230853
1403638558027829504,41.055441,909.9119041417086,7.828975583333331,0.269682875,-3.1054391666666663,-0.0097738438111682,-0.1054178868204575,0.1500983156715123,1935.422517689731,38301.91956942197,176.95949665607623
1403638558527829504,40.060758,898.5983152038568,12.192934833333334,0.0081722083333333,-2.803067458333333,0.0132645023151569,-0.057246799465414,0.1752310569002306,1965.437167202396,40087.769638626756,180.32426090277295
1403638559027829504,58.980227,584.5033597976504,8.752435125,-0.0572054583333333,-3.064578125,-0.0349065850398865,0.161268422884276,0.0474729556542457,2089.727909240546,41955.00831365038,189.92936655379162
1403638559527829504,60.916663,590.3616618882044,9.496106083333332,0.4903325,-3.6448049166666654,-0.0111701072127637,0.0090757121103705,0.0020943951023931,2097.828167931698,43927.26390105359,232.2318471047838
1403638560027829504,49.664974,456.9628102748157,7.142510083333334,-0.784532,-2.5905900416666663,-0.3183480555637657,0.0397935069454707,0.2268928027592628,2322.2092176553406,46045.468833900464,195.89530203594768
1403638560527829504,42.48333,321.0502297871554,8.646196416666667,-0.4903325,-3.08909475,-0.5703735995517468,0.1103048087260416,0.478918346747244,2275.186612105434,48151.23601174808,215.819804246923
1403638561027829504,51.725865,359.7287838958944,11.2776475,-0.9234595416666666,-4.494714583333333,-0.4726351614400644,0.1996656664281513,0.2387610416728242,2412.045494818417,50390.043530054114,220.78145890474116
1403638561527829504,36.688805,495.39342124144974,7.681875833333333,-0.6292600416666666,-2.1166019583333333,-0.1130973355292325,-0.114493598930828,-0.0167551608191455,2398.745182259941,52637.18794643663,227.51039076533198
1403638562027829504,49.651146,499.05426679708,10.4931155,0.0163444166666666,-4.314926,-0.2143264321449036,0.0202458193231342,0.2059488517353309,2474.6696338344536,54945.93426828051,233.693801484922
1403638562527829504,41.79573,464.6756565160652,8.433719,0.956148375,-2.231012875,-0.3658210112180114,0.1424188669627373,0.2778564169174973,2551.4516634071024,57320.153320005964,240.53236371694948
1403638563027829504,39.595842,526.0860010700676,9.569655958333334,-0.4821602916666666,-3.2035056666666666,-0.4098033083682685,0.0642281164733913,0.3518583772020568,2628.6148600647502,59760.8704567979,246.77153022972925
1403638563527829504,42.431831,639.777869014599,8.907707083333333,-0.1879607916666666,-3.0400615,-0.0719075651821663,0.0097738438111682,-0.0314159265358979,2702.5183505065934,62258.81210932514,252.1920061163837
1403638564027829504,51.113128,648.9119295019907,10.019127416666668,-0.8662540833333333,-2.9256505833333333,0.08307767239493,0.0251327412287183,0.1096066770252439,2773.415988206972,64811.90415308131,257.82434988613386
1403638564527829504,49.669742,498.9268782064563,9.030290208333332,0.4576436666666666,-3.309744375,0.1151917306316257,-0.0600393262686049,0.0628318530717958,2844.003291976566,67419.80871053379,263.3317355349136
1403638565027829504,51.274777,380.26040231361935,6.709383041666666,-0.024516625,-1.5445473749999998,0.0,0.0390953752446729,0.0747000919853573,2915.488087481638,70082.00239634665,268.3975692512613
1403638565527829504,41.002512,292.8894141781708,10.828176041666667,-0.0408610416666666,-3.2035056666666666,-0.0907571211037051,0.0418879020478639,-0.018151424220741,2986.611979165989,72794.2151513127,273.6820785802702
1403638566027829504,57.925939,299.02687134561927,9.398039583333333,-0.4086104166666666,-2.729517583333333,-0.0307177948351002,0.0914552528045028,-0.0328121899374933,3057.708811169207,75564.27049027191,279.70707037023385
1403638566527829504,50.542117,622.7748917263083,6.995410333333333,-0.220649625,-2.8766173333333334,0.025830872929516,-0.1891936909161853,0.0272271363311115,3127.7003563165904,78391.47497631657,285.4353993806726
1403638567027829504,50.73595,533.7368817719138,11.91507975,0.3350605416666666,-4.895152791666666,0.0670206432765822,0.5941100773788698,0.0865683308989187,3199.4219404813825,81279.11874407946,291.5507792011049
1403638567527829504,49.512863,401.5546634186975,10.672904083333334,0.220649625,-4.396648083333333,-0.0523598775598298,-0.1319468914507713,0.0823795406941323,3266.9135806485115,84227.47433233232,297.51166678358277
1403638568027829504,38.748503,602.3450601905847,10.117193916666666,-1.372931,-4.314926,-0.0558505360638185,0.0488692190558412,-0.0097738438111682,3335.40823202728,87238.89075134289,304.16113552764
1403638568527829504,38.549662,619.3986539290797,9.430728416666666,-0.196133,-2.557901208333333,-0.0097738438111682,-0.0013962634015954,0.0300196631343024,3403.153115922777,90316.10854571206,310.49121658175136
1403638569027829504,50.12083,767.343078198797,8.360169125,-0.63743225,-2.378112625,-0.0216420827247296,0.0048869219055841,0.0328121899374933,3469.2522250447596,93455.74455935719,316.8888390932698
1403638569527829504,49.970388,756.4801419826676,7.959730916666666,-0.5311935416666667,-2.312734958333333,0.0,0.0865683308989187,0.0767944870877505,3533.7291070510146,96658.26821486259,322.9153897712531
1403638570027829504,49.875259,906.888073412652,8.572646541666666,-0.318716125,-3.4568441249999995,0.0349065850398865,0.0893608577021096,0.1137954672300302,3596.792792811972,99920.5725427238,328.894723691541
1403638570527829504,49.622297,636.3405460393931,7.959730916666666,1.2340034583333332,-2.770378625,-0.1954768762233649,0.1277581012459849,0.6122615015996108,3660.1056521544565,103239.60763837077,334.26314753801853
1403638571027829504,60.598374,460.0073855914556,9.079323458333333,0.7600153749999999,-3.832765708333333,-0.5249950389998943,0.0230383461263251,0.1459095254667259,3723.325840659715,106605.4735940834,338.2166457259591
1403638571527829504,49.494028,614.3598746473938,9.855683249999998,-0.318716125,-2.4843513333333336,-0.1556833692778942,0.0509636141582344,0.114493598930828,3781.545742468774,110007.67515039629,342.02373336438905
1403638572027829504,49.292803,451.15842937996194,9.831166624999998,-0.7681875833333334,-4.707191999999999,-0.3658210112180114,-0.028623399732707,0.3567452991076409,3835.852361119703,113448.47776368233,345.7711073831888
1403638572527829504,50.440788,412.1798750889248,10.672904083333334,-0.7763597916666666,-2.999200458333333,-0.249931148885588,0.0774926187885482,0.085870199198121,3887.004680212802,116926.26982151059,349.4609841906349
1403638573027829504,48.885107,575.33330309086,9.144701125,0.4004382083333333,-4.870636166666666,0.054454272662223,-0.0055850536063818,0.0153588974175501,3935.7806780245924,120443.96472421956,353.7998672249814
1403638573527829504,60.429096,454.2556550458305,10.648387458333334,0.6292600416666666,-2.941995,-0.0321140582366956,-0.007679448708775,0.1103048087260416,3983.261795127983,124005.16281829469,358.0218988638517
1403638574027829504,48.851013,187.46477378279175,7.706392458333333,0.269682875,-2.8357562916666668,-0.3567452991076409,0.2143264321449036,0.5696754678509492,4025.608081053041,127607.87725387551,362.0115097094822
1403638574527829504,64.867735,215.38426138158,9.022118,-0.44129925,-3.195333458333333,-0.4049163864626844,0.1277581012459849,0.1424188669627373,4066.9391385548756,131247.30695719298,365.3916467797535
1403638575027829504,60.963393,357.53152786753765,9.447072833333332,-0.024516625,-4.355787041666666,0.0635299847725936,-0.0872664625997164,0.3050835532486088,4105.183868702445,134919.95276917377,368.83913617394865
1403638575527829504,48.987627,303.21296249377366,8.785123958333333,0.0081722083333333,-3.4404997083333333,-0.0404916386462684,-0.0907571211037051,-0.0914552528045028,4140.58438964337,138624.20635240746,371.6023336396029
1403638576027829504,48.368216,211.0361729767013,8.474580041666666,0.5883989999999999,-4.4211647083333325,-0.0376991118430775,0.0998328332140756,0.025830872929516,4174.0414799174705,142357.42981293166,374.89311265337165
1403638576527829504,64.947366,210.72124334995863,8.065969625,-0.3105439166666667,-3.87362675,-0.0425860337486616,0.0237364778271228,0.0139626340159546,4208.809644403515,146126.10463416827,378.4712269892043
1403638577027829504,50.521612,231.3153862355712,9.700411291666663,0.4331270416666666,-3.211677875,0.0321140582366956,0.093549647906896,0.2157226955464991,4241.250924567754,149932.21191931053,382.4220128915331
1403638577527829504,50.098181,240.7761099808432,7.077132416666666,-0.1797885833333333,-2.729517583333333,-0.0160570291183478,-0.0139626340159546,0.0635299847725936,4267.158513401146,153773.18365951962,386.0128803581465
1403638578027829504,35.17723,233.13991000161909,9.65955025,0.5883989999999999,-4.053415333333333,0.0488692190558412,0.0579449311662117,0.1500983156715123,4298.625482399303,157653.89620244937,389.66727208008524
1403638578527829504,49.127102,243.8001481554199,9.103840083333331,-0.5557101666666666,-4.2822371666666665,-0.0097738438111682,0.0160570291183478,0.1438151303643327,4325.666518482618,161568.4992630328,392.7339590564661
1403638579027829504,49.517631,236.28827999730723,9.80665,-0.1552719583333333,-3.38329425,0.0335103216382911,0.0293215314335047,0.1137954672300302,4350.714512584356,165509.77756772554,395.4306589337066
1403638579527829504,35.547734,195.68346825169044,7.755425708333333,-0.2860272916666666,-3.6284605,0.0747000919853573,0.1947787445225671,0.0656243798749867,4376.287849779517,169484.2348456769,398.7089316203201
1403638580027829504,50.60196,126.25088482940166,7.698220249999999,0.2124774166666666,-1.91229675,0.7791149780902686,0.2136283004441059,-0.2178170906488923,4397.51526378812,173485.36657546065,401.47514649885125
1403638580527829504,72.54529,140.18020231024465,9.675894666666666,-0.024516625,-3.77556025,0.4600687908257052,-0.0230383461263251,0.1312487597499735,4422.615071449224,177518.1472500446,404.430209058075
1403638581027829504,49.704551,197.42868449304615,10.354187958333334,0.4821602916666666,-3.1217835833333334,0.0495673507566389,-0.018151424220741,-0.0111701072127637,4447.570330269999,181573.93400455813,406.54695691680536
1403638581527829504,50.090075,194.1238883502148,8.793296166666666,0.04903325,-3.097266958333333,-0.0844739357965255,0.0565486677646162,0.0551524043630208,4468.454252298139,185650.86211521042,408.65291453394457
1403638582027829504,63.373089,212.20226919110968,8.948568125,0.1879607916666666,-4.453853541666667,-0.0048869219055841,-0.1151917306316257,0.0404916386462684,4488.908399750486,189750.12188767642,410.8448772766278
1403638582527829504,50.207138,215.39195967360777,11.473780499999998,0.1879607916666666,-4.184170666666667,-0.0223402144255274,0.018151424220741,0.0586430628670094,4508.70037272412,193869.83634455132,412.8996806106006
1403638583027829504,60.097694,226.4556264057028,7.420365166666667,0.2941994999999999,-3.8409379166666655,-0.0132645023151569,-0.0495673507566389,0.1340412865531645,4526.932657410471,198009.56233101804,414.77940437191864
1403638583527829504,50.155402,225.94869319914417,9.553311541666666,-0.122583125,-2.508867958333333,-0.0027925268031909,0.093549647906896,0.0684169066781777,4542.481144104251,202166.2998742968,416.3808562748891
1403638584027829504,50.004244,200.0950506642146,10.117193916666666,0.4086104166666666,-3.178989041666666,-0.0537561409614253,0.189891822616983,0.0579449311662117,4553.660506094998,206337.37480814144,417.66662261702004
1403638584527829504,49.052,214.08056783856992,11.285819708333332,0.93163175,-5.385485291666667,0.0558505360638185,0.025830872929516,0.0942477796076938,4563.007461721029,210519.3334166178,418.5040588028205
1403638585027829504,39.417505,201.09322888714095,8.074141833333334,0.2288218333333333,-1.8632635,-0.0621337213709981,0.0600393262686049,0.0551524043630208,4572.458965400494,214708.10513685786,419.20866091075004
1403638585527829504,49.681664,206.83793458983027,9.414383999999998,0.4249548333333333,-2.280046125,0.0006981317007977,-0.1305506280491758,0.0956440430092892,4580.154587732525,218903.1310702806,419.76133159472374
1403638586027829504,40.631294,173.7356667833322,8.041452999999999,0.465815875,-2.868445125,-0.0593411945678072,0.1759291886010284,0.0719075651821663,4587.297478984585,223104.34282694088,420.4352701208554
1403638586527829504,48.886776,202.28405052761065,9.36535075,0.3105439166666667,-2.378112625,0.007679448708775,0.0104719755119659,0.0788888821901436,4591.013292463525,227308.83595633454,420.417422074941
1403638587027829504,37.117481,203.21072647308097,9.75761675,-0.416782625,-4.175998458333333,-0.0062831853071795,-0.018151424220741,0.1151917306316257,4590.266277907331,231512.54266207412,420.2405785503506
1403638587527829504,50.022602,191.32120093989627,8.915879291666666,-0.2615106666666666,-2.378112625,-0.0495673507566389,-0.0293215314335047,0.1151917306316257,4588.66610427489,235712.54149442993,419.77885478618555
1403638588027829504,39.326668,215.0215891603073,8.164036124999999,0.3595771666666666,-3.113611375,-0.0118682389135614,-0.0223402144255274,-0.0020943951023931,4584.599489959496,239906.04058851118,418.97250167059246
1403638588527829504,36.475181,221.7955562928219,10.525804333333332,0.5883989999999999,-3.8245935,0.0307177948351002,-0.0027925268031909,0.2024581932313422,4578.579984399958,244091.0404457544,418.15972687647445
1403638589027829504,60.889006,237.98136860179127,8.057797416666666,0.5720545833333333,-2.10842975,-0.0090757121103705,0.0230383461263251,0.0705113017805709,4569.792576678635,248265.2325654429,416.7110777226917
1403638589527829504,53.064347,242.6183409135614,9.7085835,-0.4331270416666666,-3.28522775,-0.0237364778271228,-0.0593411945678072,0.057246799465414,4557.9207319216575,252423.38098804085,414.9828798432718
1403638590027829504,49.129247,249.32911262870243,8.466407833333333,0.63743225,-4.274064958333334,-0.0530580092606276,-0.0663225115757845,0.0488692190558412,4545.3450720562205,256563.00561764688,413.16939972894033
1403638590527829504,49.768448,240.3462970683563,11.285819708333332,0.4004382083333333,-3.505877375,-0.0265290046303138,-0.0509636141582344,0.1193805208364121,4532.384917073631,260685.05664344694,411.3566511567042
1403638591027829504,49.812079,272.9537534855523,9.610517,-0.392266,-3.546738416666667,0.0055850536063818,-0.0719075651821663,0.0740019602845595,4516.9187835025095,264785.94320540945,408.97788589069387
1403638591527829504,50.207615,251.40573599980436,6.366150291666666,0.1307553333333333,-1.6998193333333331,-0.0167551608191455,-0.1179842574348166,0.1500983156715123,4497.8177859935095,268863.6780218238,406.9601858241367
1403638592027829504,37.946701,276.8343637747319,9.978266375,0.2369940416666666,-2.966511625,0.0041887902047863,0.0949459113084915,0.0921533845053006,4478.718949868135,272922.4235808867,404.812937127077
1403638592527829504,50.186634,257.64406197096565,10.059988458333333,-0.4985047083333333,-4.16782625,0.2415535684760151,-0.1731366617978375,-0.1061160185212552,4456.68497994564,276954.6265751318,401.63197451108135
1403638593027829504,60.652733,320.34832214529695,7.50208725,0.196133,-3.0564059166666664,0.0216420827247296,-0.0342084533390888,0.0928515162060983,4435.185209913202,280952.75853071787,398.60181574657327
1403638593527829504,50.667047,302.9390200872361,7.534776083333333,0.7191543333333333,-2.6641399166666666,-0.0223402144255274,0.1801179788058148,0.0279252680319092,4413.048342069223,284924.3296027145,396.0270942976931
1403638594027829504,52.82712,350.83407295225896,9.275456458333332,0.0408610416666666,-3.742871416666666,0.1089085453244461,-0.2010619298297467,0.0767944870877505,4388.42676046044,288870.6262663383,393.1791487096925
1403638594527829504,48.726081,357.6165308476717,8.850501625,0.1307553333333333,-3.211677875,0.0432841654494593,0.0034906585039886,0.1319468914507713,4362.7639370674215,292781.27335013327,389.4972584947245
1403638595027829504,62.092066,447.4064863956901,9.733100125,-0.4821602916666666,-2.941995,-0.0565486677646162,-0.0537561409614253,0.0942477796076938,4337.111062961464,296656.2542217927,385.86073055595625
1403638595527829504,39.104223,453.4146098619597,8.858673833333333,0.4903325,-2.770378625,0.0006981317007977,-0.0446804288510548,0.0851720674973232,4309.295926631676,300494.4364367283,382.07224030344514
1403638596027829504,34.853458,377.4357596202042,8.662540833333333,-0.1552719583333333,-3.2770555416666665,-0.153588974175501,0.0628318530717958,-0.1682497398922533,4278.704491932372,304292.73999669694,378.2496775155887
1403638596527829504,44.828177,408.3413184003598,9.275456458333332,-0.2615106666666666,-2.778550833333333,-0.0474729556542457,-0.0509636141582344,-0.1165879940332212,4246.131934804131,308058.04699166084,375.4674573079101
1403638597027829504,64.591885,421.13855733330064,7.616498166666665,0.9970094166666666,-2.165635208333333,-0.0453785605518525,0.046774823953448,0.0265290046303138,4211.471082743988,311806.379514282,374.37256810540566
1403638597527829504,35.237074,317.12094889887027,8.523613291666665,0.2941994999999999,-3.2361945,0.0949459113084915,0.2254965393576673,0.4384267081009756,4174.817302407123,315543.47627729614,372.84714983118465
1403638598027829504,51.328898,669.8687356936167,10.207088208333332,0.1552719583333333,-3.710182583333333,0.1682497398922533,0.0656243798749867,0.1647590813882647,4136.094730356011,319250.3473537831,368.966586428578
1403638598527829504,50.028324,699.4883308163969,9.553311541666666,0.1389275416666666,-3.2443667083333327,0.1033234917180643,-0.2024581932313422,0.08307767239493,4096.08397996468,322912.9451103331,363.7339031381416
1403638599027829504,49.791813,641.8576503823774,10.583009791666663,0.83356525,-3.963521041666666,0.3385938748868999,0.0837758040957278,-0.1857030324121966,4061.08094917467,326522.3001727087,357.78307936614146
1403638599527829504,51.145792,762.0056914185976,6.995410333333333,0.8744262916666666,-1.6589582916666663,0.2122320370425104,-0.0481710873550434,0.0223402144255274,4015.952696037093,330064.6280837744,351.4151025628671
1403638600027829504,49.034834,289.1174790564696,9.675894666666666,0.0081722083333333,-3.391466458333333,0.025830872929516,-0.0886627260013119,0.3490658503988659,3977.877929453459,333550.1114465549,346.3018443075707
1403638600527829504,51.074028,273.1002876561033,11.580019208333333,0.3350605416666666,-3.18716125,-0.0335103216382911,0.054454272662223,0.0642281164733913,3939.77190567108,336979.5404944855,339.7582472303766
1403638601027829504,56.618213,335.35790686652695,8.9240515,0.9398039583333332,-2.7213453750000003,-0.057246799465414,0.0125663706143591,-0.0886627260013119,3900.824412587874,340337.7015859218,333.07631627394585
1403638601527829504,50.599575,194.4461972152275,8.744262916666667,0.7109821249999999,-3.2443667083333327,0.3371976114853044,0.2408554367752175,-0.085870199198121,3861.8073242427627,343643.84816800326,328.3848629662534
1403638602027829504,33.424855,400.95312106065984,9.545139333333331,1.1767979999999998,-4.445681333333333,0.3804817769347638,0.0397935069454707,-0.0335103216382911,3823.804817948058,346892.675841837,322.0504230206716
1403638602527829504,38.983583,222.37541289212533,9.406211791666664,0.0,-4.453853541666667,0.5906194188748812,0.5612978874413763,0.3050835532486088,3790.0179386507716,350081.58480947214,315.2342382490169
1403638603027829504,63.554287,412.1020932949179,8.891362666666666,-0.196133,-3.759215833333333,0.4712388980384689,-0.0719075651821663,0.0586430628670094,3758.403990800937,353168.30284434307,303.5515487389639
1403638603527829504,36.290168,680.2436881219377,9.765788958333331,-0.6047434166666666,-2.459834708333333,0.0928515162060983,0.0244346095279206,0.0272271363311115,3730.8439367741025,356157.2436749751,295.7882619862212
1403638604027829504,50.101042,683.0207003544872,8.711574083333332,0.3105439166666667,-1.5772362083333331,-0.0879645943005142,0.1410226035611418,-0.0642281164733913,3709.1941252225124,359083.65216362546,289.3900149666006
1403638604527829504,45.827866,422.1746189803008,8.401030166666667,0.1552719583333333,-3.0073726666666665,-0.0356047167406843,-0.2059488517353309,0.0349065850398865,3681.913293584303,361929.8246056158,280.9859074836131
1403638605027829504,50.086498,557.7672674732084,9.5124505,0.4739880833333333,-3.28522775,0.0411897703470661,-0.0635299847725936,0.124965574442794,3660.4957087461876,364706.1286779595,275.07246125047095
1403638605527829504,50.244093,753.1529648271231,8.605335375,0.9888372083333332,-3.710182583333333,-0.0446804288510548,0.2066469834361286,-0.1214749159388053,3642.2939457557895,367435.1702842057,271.20173507224536
1403638606027829504,50.048113,790.7574941935321,8.768779541666666,0.3840937916666667,-3.5957716666666664,-0.0642281164733913,0.0628318530717958,0.0314159265358979,3625.1836286805046,370113.07568376564,264.91141387220705
1403638606527829504,60.863495,538.4553802227747,10.64021525,-0.5311935416666667,-3.162644625,0.0963421747100869,-0.1829105056090057,0.2932153143350474,3611.6631945254476,372731.06772129855,259.44277414813405
1403638607027829504,49.01886,517.6584698186311,10.44408225,1.2748645,-4.323098208333334,0.4314453910929983,0.0160570291183478,0.0537561409614253,3601.0008589582717,375306.8806667574,256.25073095143307
1403638607527829504,63.138723,749.9552949479257,8.891362666666666,0.8825985,-2.435318083333333,0.0963421747100869,-0.025830872929516,0.028623399732707,3595.046905647817,377851.7752937728,252.83495259913616
1403638608027829504,34.37233,906.6153217883513,8.866846041666665,0.8253930416666666,-3.7673880416666665,-0.0795870138909414,0.0453785605518525,0.0293215314335047,3592.4430524618165,380355.30725583754,248.4092123300652
1403638608527829504,50.589562,698.0345288136288,8.278447041666666,0.7191543333333333,-2.533384583333333,-0.0342084533390888,-0.0195476876223364,0.0418879020478639,3593.1302460456513,382813.14319830184,243.34307343140244
1403638609027829504,63.990116,703.156597445106,11.416575041666665,-0.2941994999999999,-4.118792999999999,0.0090757121103705,-0.0781907504893459,0.0621337213709981,3598.491988995078,385209.7750136846,236.68060617090669
1403638609527829504,49.74699,725.9244441240567,8.687057458333333,0.1389275416666666,-3.3506054166666663,-0.0383972435438752,-0.0949459113084915,0.0614355896702004,3609.1900547132022,387548.49447481084,231.77479788585333
1403638610027829504,38.646698,841.6533656404208,9.863855458333331,-0.5066769166666666,-4.086104166666667,0.0139626340159546,0.2094395102393195,0.0474729556542457,3622.4109657704316,389837.76618173555,226.40906696819002
1403638610527829504,49.951076,771.194802961133,10.34601575,0.5230213333333333,-3.309744375,0.028623399732707,0.2904227875318564,0.0816814089933346,3639.717462573003,392071.5963274982,221.00310276064556
1403638611027829504,49.359322,801.0975019701882,11.056997875,-0.220649625,-3.530394,-0.0048869219055841,0.1556833692778942,0.0460766922526503,3662.3661951546587,394244.8611969057,214.55544682539767
1403638611527829504,62.342405,636.2090528509667,10.623870833333331,-0.3595771666666666,-3.702010375,-0.0691150383789754,-0.0816814089933346,-0.0460766922526503,3689.4083035232497,396359.9824469584,208.69677441817475
1403638612027829504,50.086975,772.8533314391204,10.844520458333331,0.34323275,-3.898143375,-0.0502654824574366,0.0593411945678072,0.0027925268031909,3720.702502015598,398413.42014635063,203.11611651873682
1403638612527829504,44.739247,819.7009441941268,7.820803375,0.2043052083333333,-3.67749375,-0.0684169066781777,0.1452113937659282,0.0027925268031909,3756.0298086668527,400419.1993297032,198.7094785242225
1403638613027829504,38.205623,867.1153366448522,9.324489708333331,-0.2778550833333333,-4.396648083333333,0.0048869219055841,0.1291543646475804,0.153588974175501,3797.072131711127,402381.0814914648,193.79319671710255
1403638613527829504,54.122925,901.7165551602392,8.670713041666666,0.8907707083333333,-3.260711125,-0.0788888821901436,0.0425860337486616,0.1801179788058148,3842.7812274436073,404289.4113120865,188.73226967843948
1403638614027829504,49.609423,611.7949497642993,8.3356525,-0.34323275,-2.043052083333333,-0.382576172037157,-0.0062831853071795,0.2164208272472968,3892.6524377119626,406152.10986034,184.1182785234414
1403638614527829504,50.928116,778.5579829992652,9.357178541666666,-0.2533384583333333,-2.5170401666666664,-0.1864011641129944,-0.025830872929516,0.1982694030265558,3949.400170948809,407965.47325634136,178.9459794506547
1403638615027829504,49.877643,504.2272992733278,8.866846041666665,0.0735498749999999,-3.3506054166666663,-0.6527531402458793,-0.0146607657167523,0.1926843494201739,4010.6300781347663,409729.88043496525,174.6597966401023
1403638615527829504,62.022448,345.74512771126746,9.324489708333331,-1.1767979999999998,-3.268883333333333,-0.5522221753310059,0.0991347015132779,0.2666863097047335,4077.403018258137,411455.08473032824,170.66879113210598
1403638616027829504,50.420761,230.7975227838794,7.289609833333333,-0.0326888333333333,-2.0512242916666668,-0.3064798166502042,0.0488692190558412,0.1151917306316257,4145.612305556169,413135.49363952427,165.81430494965753
1403638616527829504,39.27064,168.07775299960272,8.711574083333332,-0.2860272916666666,-1.4464808749999998,-0.3043854215478111,-0.0509636141582344,0.1647590813882647,4216.364555289442,414771.3825159189,161.71749858924886
1403638617027829504,50.353765,180.8721677948638,6.586799916666666,0.6782932916666666,-3.4650163333333333,-0.028623399732707,0.1808161105066125,-0.1193805208364121,4288.383528566411,416365.4185023977,157.5333470138139
1403638617527829504,49.900293,207.17626454840843,10.166227166666664,-1.2340034583333332,-4.094276375,0.0237364778271228,0.1033234917180643,0.0802851455917391,4361.069543635286,417917.7725316561,153.59635199629702
1403638618027829504,51.663637,206.14694881763293,7.649186999999999,-0.3595771666666666,-3.097266958333333,0.025830872929516,0.08307767239493,0.0125663706143591,4436.815771066127,419436.68636691116,150.64201648847666
1403638618527829504,46.095132,211.6921570728341,9.07115125,-0.0817220833333333,-3.08909475,-0.0795870138909414,-0.0174532925199432,0.0230383461263251,4515.322804814869,420929.2550079874,148.04087953135604
1403638619027829504,49.510956,122.69421081285086,7.232404375,0.04903325,-2.8357562916666668,-0.3804817769347638,0.1410226035611418,0.124965574442794,4597.027071640678,422392.51564379974,144.91787437320454
1403638619527829504,64.189911,622.1641102916849,9.569655958333334,-1.61809725,-3.113611375,-0.3211405823669566,0.0802851455917391,0.265290046303138,4680.437356700679,423823.5035300992,141.56423791812267
1403638620027829504,50.311565,980.633899920462,9.07115125,-0.4494714583333333,-2.672312125,-0.0223402144255274,0.0174532925199432,0.1368338133563554,4765.130539381039,425213.07625406515,136.40603241010103
1403638620527829504,37.619829,1072.1248650465143,8.433719,0.171616375,-2.549729,0.0279252680319092,-0.1005309649148733,0.0614355896702004,4848.922167555213,426539.7530156508,129.85132645629346
1403638621027829504,63.358784,932.7217853356068,9.749444541666666,-0.1470997499999999,-3.015544875,0.0132645023151569,0.1424188669627373,-0.0132645023151569,4934.989847475544,427813.1940401657,125.38187689619372
1403638621527829504,51.162958,994.2877277864516,10.215260416666666,0.220649625,-3.5957716666666664,-0.0055850536063818,0.0726056968829641,0.0747000919853573,5023.186861963314,429044.1178181175,121.425279959396
1403638622027829504,60.250521,988.4721250847372,7.591981541666666,-0.53936575,-3.219850083333333,-0.0188495559215387,0.0886627260013119,0.179419847105017,5113.943022184376,430238.4485939275,117.70256263710326
1403638622527829504,49.628019,977.646218954654,8.768779541666666,-0.318716125,-4.960530458333333,0.007679448708775,-0.1026253600172665,0.0230383461263251,5207.0004288416285,431390.18576697825,112.81006240396528
1403638623027829504,35.398245,733.6760765429964,8.458235625,-0.024516625,-3.334261,-0.028623399732707,-0.2171189589480945,0.0956440430092892,5302.194843273004,432492.03304033855,108.14484334661392
1403638623527829504,49.269676,1030.9429380657116,10.280638083333333,0.0653776666666666,-3.366949833333333,-0.054454272662223,0.1584758960810851,0.0614355896702004,5399.538320121575,433551.388596495,104.22598039649893
1403638624027829504,62.000752,1056.20979193339,9.259112041666668,-0.367749375,-3.4404997083333333,0.0020943951023931,0.007679448708775,0.2066469834361286,5497.529302627219,434569.52413462143,100.27014419215266
1403638624527829504,49.498797,846.1633186714412,9.716755708333332,-0.8662540833333333,-1.9531577916666665,0.0474729556542457,0.2988003679414292,0.210835773640915,5597.298313578914,435557.55580918066,97.51843790826388
1403638625027829504,38.604737,971.8524611174574,9.046634625,1.250347875,-2.132946375,0.1389282084587486,-0.0300196631343024,0.1857030324121966,5697.62259531687,436511.72580596356,93.89638173289131
1403638625527829504,38.667441,1198.727276392405,9.357178541666666,-0.3350605416666666,-4.56009225,-0.0146607657167523,0.0342084533390888,0.0642281164733913,5801.884712733524,437437.954022053,91.36786833172664
1403638626027829504,60.716629,1108.8893888629716,7.976075333333333,0.53936575,-2.3699404166666667,-0.0055850536063818,-0.0781907504893459,0.1563815009786919,5907.241206086889,438339.37263310666,89.51069935015403
1403638626527829504,60.365677,994.9723926186422,8.507268875,-0.122583125,-3.293399958333333,0.0146607657167523,-0.0307177948351002,0.1012290966156711,6014.63517276202,439229.2591564344,88.62519786483608
1403638627027829504,63.933849,1360.3084188546898,8.482752249999999,0.1879607916666666,-2.7867230416666664,0.0062831853071795,0.0272271363311115,0.0740019602845595,6122.529450721136,440111.41649903666,88.05341813020641
1403638627527829504,47.528505,1420.6035278810286,8.221241583333333,0.024516625,-4.4129925,-0.0453785605518525,0.1228711793404008,-0.0069813170079773,6231.914391528869,440994.2587305057,88.50597556261346
1403638628027829504,51.47171,715.3582606375795,9.504278291666663,0.4985047083333333,-2.20649625,-0.0474729556542457,0.0411897703470661,0.0593411945678072,6342.633996551035,441881.03937846754,88.78387900686357
1403638628527829504,49.262047,287.96986995594364,9.430728416666666,-0.24516625,-2.6151066666666667,0.0537561409614253,0.296705972839036,0.2338741197672401,6454.363007116464,442771.9115502595,89.37573210755363
1403638629027829504,60.691357,265.49610309119413,8.016936375,1.0787315,-1.887780125,-0.0432841654494593,-0.0307177948351002,-0.085870199198121,6567.277144226414,443663.2281061897,89.02052877022652
1403638629527829504,51.433325,323.676505766493,9.749444541666666,-0.1797885833333333,-3.554910625,-0.0013962634015954,-0.0558505360638185,0.1026253600172665,6681.10384594575,444555.3406197614,89.6317908471101
1403638630027829504,49.348355,304.44973819813066,6.880999416666667,0.0653776666666666,-1.9531577916666665,-0.0607374579694026,0.1808161105066125,-0.0809832772925368,6796.180373205731,445457.9555770439,90.54768691951176
1403638630527829504,49.934149,251.65932445695933,8.932223708333334,0.4739880833333333,-3.2035056666666666,0.0020943951023931,0.0509636141582344,0.1682497398922533,6911.468314083512,446369.4601440524,91.68505665083649
