stamp,img_delta,blur,lin_acc.x,lin_acc.y,lin_acc.z,ang_vel.x,ang_vel.y,ang_vel.z,rpe,ate,drift
1403636860051666432,49.85857,905.8482114822206,6.644005375,0.4576436666666666,-1.9286411666666663,-0.0774926187885482,-0.0153588974175501,0.085870199198121,7.023703936667756,7.0237039366677845,-0.38466514299636145
1403636860551666432,49.196005,242.92309133828712,10.019127416666668,-0.5311935416666667,-5.254729958333334,0.0265290046303138,-0.3274237676741362,0.1494001839707146,5.649460788869199,6.4756336266256955,-0.35262581616369193
1403636861051666432,48.945189,258.71307758798514,9.602344791666663,-0.2043052083333333,-4.797086291666667,0.0188495559215387,0.2513274122871834,0.0600393262686049,5.749019986953771,5.201821854281423,-0.12182103825101276
1403636861551666432,36.934853,937.7339526591225,5.965712083333332,0.024516625,-1.9286411666666663,-0.0977384381116824,0.0747000919853573,0.0411897703470661,1.945721577204461,4.704711633327218,-0.01943926669574303
1403636862051666432,39.544821,264.15596488663675,10.092677291666664,-0.3105439166666667,-4.257720541666666,0.0635299847725936,-0.3658210112180114,0.2010619298297467,0.8921273630548574,5.426654841374116,0.13786060047210125
1403636862551666432,50.568342,250.6280990371409,9.888372083333332,0.2124774166666666,-4.576436666666666,-0.1626646862858715,0.228987197861656,0.0307177948351002,0.4370734043084136,5.296206067940183,-0.07589480073426635
1403636863051666432,45.65382,609.1443125262304,5.720545833333333,0.1879607916666666,-1.9695022083333331,-0.0216420827247296,0.2597049926967562,-0.0432841654494593,1.1354727183454054,5.3725405536455115,0.029126526492817995
1403636863551666432,60.201406,280.0822443187539,9.790305583333332,0.0,-3.9880376666666666,0.1494001839707146,-0.2904227875318564,0.2673844414055313,0.8010790050112684,5.784978819304475,0.015678704459345383
1403636864051666432,44.824362,278.8061056347937,10.419565625,-0.3350605416666666,-5.426346333333333,0.0886627260013119,0.1494001839707146,0.0481710873550434,0.8325077807554803,5.343796444971576,-0.07178472703828032
1403636864551666432,39.889098,310.7482179200618,7.191543333333333,-0.465815875,-2.655967708333333,0.0642281164733913,0.478918346747244,0.3036872898470133,0.6511871071507582,5.524959069256569,0.043918704764347005
1403636865051666432,49.779654,322.64625811883315,9.005773583333333,-0.3023717083333333,-4.045243125,-0.0027925268031909,-0.2261946710584651,0.057246799465414,0.7618232571159771,5.906120388868766,0.017467720954727817
1403636865551666432,60.179711,703.8651131068156,11.204097625,-0.612915625,-5.777751291666666,0.0209439510239319,-0.1647590813882647,-0.0090757121103705,0.6805242517302323,6.222164515170973,-0.05735847961389684
1403636866051666432,46.098709,230.37808813170025,8.245758208333333,-0.0817220833333333,-3.2443667083333327,-0.0558505360638185,0.6066764479932288,0.1598721594826805,0.5440985005047321,5.626415005313319,0.038599400026136266
1403636866551666432,50.146341,439.1490649262327,8.482752249999999,-0.0081722083333333,-2.974683833333333,-0.046774823953448,-0.1996656664281513,0.0370009801422797,0.6503656071969608,6.007719621045608,-0.011125356607006864
1403636867051666432,50.245523,439.8757752371727,10.084505083333331,-0.1470997499999999,-4.576436666666666,-0.0209439510239319,-0.2450442269800038,0.1556833692778942,1.0474693902651402,5.994221302860005,0.024762863159571324
1403636867551666432,49.785614,263.2658679278425,7.763597916666666,0.1797885833333333,-4.985047083333333,-0.0893608577021096,-0.5145230634879283,-0.0446804288510548,1.9689686255074377,6.069316919289629,-0.012956120666220095
1403636868051666432,40.233135,321.25255036779595,5.696029208333333,-0.4576436666666666,-7.698220249999999,-0.0132645023151569,0.3106686068549906,0.1214749159388053,1.6942704693867172,5.724224644000199,-0.08654186212153192
1403636868551666432,47.460318,542.8708004303384,6.513250041666667,-0.2369940416666666,-7.093476833333334,-0.1075122819228507,0.1954768762233649,0.1661553447898601,0.5762112123080965,6.319531851129442,0.08067979179950147
1403636869051666432,51.797867,649.1736563303532,6.398839124999999,-0.392266,-7.117993458333333,0.1082104136236484,0.1075122819228507,0.0579449311662117,0.3271393971404071,6.2878554643511215,-0.04952079865286407
1403636869551666432,39.84785,743.7233294104561,6.61948875,0.2615106666666666,-7.134337875,-0.0146607657167523,0.0321140582366956,0.0816814089933346,0.48469056044333736,5.85923209609591,-0.11424530178913272
1403636870051666432,49.707174,211.3936807402405,6.554111083333333,0.0326888333333333,-7.003582541666666,-0.1263618378443894,0.0300196631343024,0.2234021442552742,2.2397215759046225,4.035395558189879,-0.13969404751282433
1403636870551666432,46.249151,203.0358009890217,6.464216791666666,-0.3105439166666667,-7.093476833333334,-0.0335103216382911,-0.0900589894029074,0.2750638901143063,1.1445640669457486,3.426756079291292,-0.04131701581389491
1403636871051666432,50.144672,324.7340369975525,6.627660958333332,-0.5475379583333333,-6.946377083333333,0.0642281164733913,-0.064926248174189,0.2450442269800038,0.7942791881169857,4.006600255599517,0.10897249216737004
1403636871551666432,43.137788,224.42215411955496,6.627660958333332,-1.0296982499999998,-7.175198916666666,0.0663225115757845,0.0048869219055841,0.0719075651821663,1.0101484374104641,4.783127991041989,0.15499179252132134
1403636872051666432,54.762364,207.1396765429293,6.840138375,-0.1797885833333333,-6.913688249999999,0.2171189589480945,0.122173047639603,-0.007679448708775,1.220876568962167,5.964797176832801,0.1451192843136111
1403636872551666432,50.102949,665.7593718168758,7.10982125,0.7927042083333332,-7.330470875,0.0495673507566389,0.0495673507566389,0.0,0.9925080213538228,6.182479406110248,-0.1283152050140277
1403636873051666432,54.959298,238.97645073315007,6.970893708333333,0.196133,-7.126165666666666,-0.1661553447898601,0.0460766922526503,0.132645023151569,1.5828548926977148,5.075285641108811,-0.035109004362055884
1403636873551666432,45.39299,159.0211452020058,6.047434166666666,-1.1686257916666667,-7.265093208333333,-0.1947787445225671,-0.0586430628670094,0.1605702911834783,1.0800220556673195,4.641046400857281,-0.0179825814608785
1403636874051666432,50.192594,598.1202736821118,6.554111083333333,-1.2748645,-7.338643083333332,-0.0516617458590321,0.0335103216382911,0.1151917306316257,0.5004027780271457,4.899386183628497,0.1255429770776466
1403636874551666432,54.676294,156.59959839836552,6.194533916666667,-1.372931,-7.363159708333333,0.0684169066781777,0.1228711793404008,-0.0041887902047863,0.6926137779320081,5.3475862721926655,0.039777834122737055
1403636875051666432,50.254583,382.14025932231806,7.379504124999999,0.2941994999999999,-6.962721499999999,-0.0230383461263251,0.2352703831688356,0.140324471860344,0.8082638882747539,5.530768085163979,0.045456078902172514
1403636875551666432,59.99279,365.3561565332283,6.823793958333333,0.0817220833333333,-7.322298666666667,-0.057246799465414,-0.0949459113084915,0.3064798166502042,0.8258047376586081,5.693823565886086,-0.059754334694766875
1403636876051666432,49.580336,124.44160848785349,7.918869874999999,-0.5311935416666667,-6.161845083333333,-0.5557128338349946,0.1647590813882647,0.3106686068549906,0.5607566534434402,5.630114140250389,-0.004018621193976557
1403636876551666432,50.020218,166.59542455582366,7.518431666666666,-1.7570247916666666,-6.202706124999999,-0.1256637061435917,0.2275909344600605,0.0041887902047863,1.0169575289965798,5.796763707095136,0.0076649710365988
1403636877051666432,46.418667,188.54189371290428,6.390666916666666,-1.9041245416666663,-7.265093208333333,0.6639232474586428,0.1193805208364121,-0.4237659423842232,0.6105800477999586,5.820827166126549,-0.03686930040593417
1403636877551666432,49.110651,158.62216162730743,6.333461458333334,0.5066769166666666,-7.526603874999999,0.450294947014537,-0.2534218073895766,-0.0788888821901436,0.9627187560490098,5.074005229856004,-0.05273265028874974
1403636878051666432,49.389839,292.93757058449813,7.40402075,0.8417374583333332,-6.554111083333333,-0.4125958351714595,-0.0733038285837618,0.2960078411382383,0.4662614314466083,4.7350299013956345,0.008416092516492668
1403636878551666432,39.055586,121.3598728845858,7.992419749999999,-1.0869037083333333,-6.055606375,-0.4970697709679851,0.1061160185212552,0.4230678106834254,1.7662802932525554,4.645212350111035,0.06270169056565056
1403636879051666432,46.063185,252.55715404235156,7.60015375,-2.124774166666666,-6.701210833333333,0.0293215314335047,0.0202458193231342,0.1389282084587486,2.795113669522902,6.335623252192875,0.10588627372998438
1403636879551666432,56.406736,217.87898082610548,6.987238125,-0.980665,-7.01175475,0.5270894341022875,-0.0265290046303138,-0.2115339053417127,1.9741227848596812,5.957904429357338,-0.05878390937154521
1403636880051666432,49.622536,306.87052028784376,7.060788,1.250347875,-7.003582541666666,0.1375319450571531,-0.1466076571675237,0.0216420827247296,2.179045757087009,5.69039916294541,-0.030543176602667366
1403636880551666432,49.873829,335.92961918286846,7.469398416666666,-1.6017528333333333,-6.341633666666666,-0.5187118536927147,0.0837758040957278,0.3197443189653611,1.0233317826417816,5.131444860570179,-0.001061767010569703
1403636881051666432,49.675941,255.17381525545744,7.951558708333333,-0.6782932916666666,-5.189352291666666,0.2764601535159017,0.2708750999095199,-0.1291543646475804,1.3513807464113987,6.276190004449626,0.11277267330709773
1403636881551666432,45.711279,391.9976901724195,7.477570624999999,0.8744262916666666,-5.410001916666666,0.0446804288510548,0.1514945790731078,-0.2750638901143063,1.1442523873114754,5.964515536595304,-0.06590006188955133
1403636882051666432,44.252157,295.37545775047084,6.799277333333333,-0.1797885833333333,-6.840138375,-0.1745329251994329,0.0356047167406843,0.247138622082397,1.0671959995268008,5.369014851299259,0.013779115455442081
1403636882551666432,44.186592,337.82295928437014,8.850501625,-1.201314625,-4.674503166666667,0.2925171826342496,0.1054178868204575,0.1005309649148733,0.6033738956392841,5.868682937768945,0.09336548946067502
1403636883051666432,60.071945,320.1196321982295,9.013945791666666,-0.5557101666666666,-4.2822371666666665,0.3239331091701475,0.0356047167406843,-0.1137954672300302,0.6906459359639027,6.412594448054112,0.056955567612226865
1403636883551666432,50.132036,478.0874392006217,9.177389958333332,-0.8172208333333333,-3.3751220416666667,0.1340412865531645,0.239459173373622,-0.0335103216382911,0.2764007550606075,6.519569232805833,-0.016132990469380992
1403636884051666432,59.686661,540.1588224151232,8.9240515,-0.0408610416666666,-2.8357562916666668,0.1158898623324234,0.1110029404268393,0.1347394182539622,0.2653480131648888,6.461273022815149,-0.024989849661976926
1403636884551666432,60.8809,656.0062382537715,9.635033625,-0.34323275,-2.623278875,0.0111701072127637,0.0439822971502571,0.0928515162060983,0.16837596871353588,6.480568351065368,-0.002607037601062956
1403636885051666432,55.125236,662.3375693650842,9.422556208333331,-0.5883989999999999,-2.5660734166666663,-0.0020943951023931,0.0237364778271228,0.0816814089933346,0.07705204029643813,6.445720822200893,-4.9619847919402105e-05
1403636885551666432,43.740273,666.9478779069863,9.438900625,-0.4331270416666666,-2.5415567916666664,-0.0041887902047863,0.0146607657167523,0.0767944870877505,0.06408676039973604,6.405219356963487,0.0012420522070142326
1403636886051666432,55.057049,665.6224745682167,9.569655958333334,-0.3023717083333333,-2.680484333333333,-0.0062831853071795,0.0209439510239319,0.0593411945678072,0.043119247834477875,6.389535787526475,-0.004752969935985618
1403636886551666432,49.487591,663.6077205794074,9.316317499999998,-0.4249548333333333,-2.606934458333333,-0.0055850536063818,0.0216420827247296,0.0781907504893459,0.013215585670352185,6.3884994871372225,0.004758769467649415
1403636887051666432,39.468765,661.8970621900673,9.430728416666666,-0.367749375,-2.574245625,0.0027925268031909,0.0195476876223364,0.0816814089933346,0.034171230412201756,6.366129724676571,-0.007394914328433089
1403636887551666432,50.482512,662.6749913437284,9.349006333333334,-0.392266,-2.4925235416666665,0.0020943951023931,0.0223402144255274,0.0823795406941323,0.02137275983822154,6.3655247794303245,-0.002160748455722228
1403636888051666432,50.315142,662.0454565221464,9.414383999999998,-0.4086104166666666,-2.606934458333333,-0.0013962634015954,0.0230383461263251,0.0788888821901436,0.016198550217437335,6.35175650663735,0.00286843647677415
1403636888551666432,49.892425,660.3433934085238,9.496106083333332,-0.4249548333333333,-2.549729,0.0006981317007977,0.0230383461263251,0.08307767239493,0.0304496760898095,6.338825184367779,0.0021207436145216363
1403636889051666432,36.812305,623.7845083508026,9.210078791666666,-1.22583125,-2.4108014583333333,0.093549647906896,0.0048869219055841,0.0390953752446729,0.05820002850768352,6.349561466036796,0.009032479207490951
1403636889551666432,44.655323,654.7598819899715,9.005773583333333,-1.2666922916666667,-2.5170401666666664,-0.0314159265358979,0.0244346095279206,0.0628318530717958,0.04022406459459636,6.3426923632049785,0.0041879960948261186
1403636890051666432,49.500465,493.4925435380357,8.915879291666666,0.9398039583333332,-2.99102825,-0.1801179788058148,0.0698131700797731,0.1487020522699168,0.016665952677870348,6.355421986465797,0.0015425983757575423
1403636890551666432,61.006784,529.1924120962276,10.828176041666667,-0.7191543333333333,-2.631451083333333,0.1263618378443894,-0.0593411945678072,0.0153588974175501,0.10183589413698413,6.356173616531267,0.010779380415029571
1403636891051666432,61.188698,649.4433691744875,9.65955025,0.024516625,-2.729517583333333,-0.0104719755119659,0.0474729556542457,0.093549647906896,0.054599804090345316,6.391464290443988,-0.006117309129953341
1403636891551666432,40.142059,658.4811092772552,9.414383999999998,-0.3840937916666667,-2.5905900416666663,-0.0041887902047863,0.0097738438111682,0.0795870138909414,0.022798996224231097,6.383480908664696,0.005240867983946629
1403636892051666432,60.646295,658.2408371797594,9.872027666666666,-0.5230213333333333,-2.6641399166666666,-0.007679448708775,0.0244346095279206,0.0712094334813686,0.007212117119099486,6.390516558287193,0.00015954896783920702
1403636892551666432,50.095081,649.9137240201024,9.896544291666666,0.0081722083333333,-2.966511625,-0.0160570291183478,0.0090757121103705,0.0844739357965255,0.020612446539788616,6.378185797872867,0.0005106707224635798
1403636893051666432,45.486689,650.9800815774803,10.133538333333334,-0.5475379583333333,-3.072750333333333,-0.007679448708775,0.0209439510239319,0.0816814089933346,0.02439816969481648,6.38912441053056,0.00043554121105504606
1403636893551666432,49.911976,650.9182473329147,10.149882749999998,-0.2615106666666666,-2.9338227916666666,0.0090757121103705,-0.0160570291183478,0.0809832772925368,0.01481817439256996,6.39797662449519,0.001224149976676081
1403636894051666432,56.03075,654.8670595779446,9.013945791666666,-0.4821602916666666,-2.3699404166666667,-0.018151424220741,0.0111701072127637,0.0816814089933346,0.02392776017408883,6.378307845476414,0.0006886388543234645
1403636894551666432,59.221983,656.7817348268508,9.185562166666664,-0.122583125,-2.6151066666666667,-0.0006981317007977,0.0209439510239319,0.0684169066781777,0.012608394548439142,6.389064565333868,-0.0014741776990838673
1403636895051666432,49.713612,648.3941946322486,9.038462416666666,-0.2124774166666666,-2.427145875,0.0041887902047863,0.0188495559215387,0.0663225115757845,0.02705221498137615,6.390095510590036,-0.005803541589689765
1403636895551666432,49.480915,654.6121056774318,9.643205833333331,-0.3595771666666666,-2.5905900416666663,0.0048869219055841,0.0223402144255274,0.0698131700797731,0.03046767265089296,6.390494248627145,0.003898309599724925
1403636896051666432,60.643197,649.5631207183905,7.992419749999999,0.0408610416666666,-1.6344416666666666,-0.0146607657167523,-0.0321140582366956,0.0879645943005142,0.10176935553553601,6.329585065724394,-0.00810564405299008
1403636896551666432,49.944639,645.1777766816256,9.684066875,-0.2533384583333333,-2.6641399166666666,0.0125663706143591,-0.0376991118430775,0.0837758040957278,0.10205561375813943,6.404415475258472,0.007842958172760817
1403636897051666432,44.884204,610.343118347994,8.245758208333333,-0.392266,-2.1738074166666665,0.0321140582366956,0.0453785605518525,0.0328121899374933,0.20875874989793136,6.393229128940786,-0.023758384702918356
1403636897551666432,54.924727,385.137564381974,8.752435125,-0.024516625,-2.8602729166666667,-0.1682497398922533,-0.247138622082397,0.0342084533390888,0.24810873783023996,6.3302309909470615,-0.019327526615117385
1403636898051666432,39.195061,357.04478434278565,6.317117041666666,-0.4985047083333333,-2.4108014583333333,0.0509636141582344,0.2234021442552742,0.064926248174189,0.18355322931989929,6.503352227228272,0.009369534120837741
1403636898551666432,49.486637,535.9271710366869,10.746453958333332,0.2043052083333333,-3.3015721666666664,0.0055850536063818,-0.0453785605518525,0.0146607657167523,0.36699766668949246,6.3265218000853,-0.010408302199386377
1403636899051666432,54.0452,567.5499439731589,9.389867375,0.3840937916666667,-4.306753791666666,-0.122173047639603,0.1235693110411985,0.208043246837724,0.3903052420234137,6.584107231164121,0.0498281280713897
1403636899551666432,49.194336,392.1119169300257,7.01175475,0.0081722083333333,-3.015544875,-0.3567452991076409,-0.1801179788058148,0.2611012560983517,0.7889772938467812,7.298022249793452,0.0789703210371151
1403636900051666432,50.075054,527.4645623214718,9.847511041666666,-0.2941994999999999,-3.2361945,-0.0509636141582344,0.1947787445225671,0.0865683308989187,1.379682348130353,7.657574576293938,-0.03493516931903873
1403636900551666432,49.693822,1091.6453645958284,8.850501625,-0.1879607916666666,-3.097266958333333,0.0907571211037051,-0.1319468914507713,0.0963421747100869,1.911379464619332,7.9146401998611156,0.11404448381053811
1403636901051666432,50.137997,1134.553924760743,9.798477791666668,1.0950759166666666,-4.143309625,0.0020943951023931,0.0691150383789754,0.1452113937659282,2.12018697637612,8.128029438107697,0.009899085767107962
1403636901551666432,45.597792,983.472292633356,7.567464916666665,-0.196133,-2.9011339583333333,-0.0425860337486616,0.0209439510239319,-0.036302848441482,3.254469855259476,9.647118394307434,0.329357457548598
1403636902051666432,50.093174,987.3194832908152,10.697420708333333,-0.1797885833333333,-3.857282333333333,0.0055850536063818,-0.0006981317007977,0.0698131700797731,2.7422572005415353,10.606688144839516,-0.09447419717919026
1403636902551666432,59.771776,763.4829672428635,10.820003833333333,0.0735498749999999,-4.069759749999999,-0.0886627260013119,-0.0153588974175501,0.0062831853071795,1.9112355937586047,11.302251805490753,0.40040013360629345
1403636903051666432,49.708366,954.4928034799536,10.44408225,-0.392266,-2.549729,0.0188495559215387,-0.0041887902047863,0.0558505360638185,1.7596838791096494,12.075970211745672,-0.1831925105629164
1403636903551666432,39.840222,919.6994837197512,6.831966166666666,0.7273265416666667,-2.811239666666667,0.0146607657167523,0.0055850536063818,0.0781907504893459,3.4648775818495783,9.389616273007475,-0.01106910839937214
1403636904051666432,50.193786,807.311695097603,10.860864875,0.5965712083333333,-2.3944570416666666,0.0090757121103705,0.1996656664281513,0.1207767842380075,1.8615809187666341,10.208754014104393,0.09007988426668945
1403636904551666432,49.772978,825.0456706906829,9.577828166666666,-0.2533384583333333,-3.9390044166666662,-0.08307767239493,-0.0006981317007977,0.0307177948351002,1.2054998484449964,11.404900316841044,0.06927334723648748
1403636905051666432,59.773207,723.2590382517111,7.84532,-0.3840937916666667,-2.8357562916666668,-0.0900589894029074,0.0265290046303138,-0.0502654824574366,2.0999689304370555,10.001286349661285,0.021745463084975825
1403636905551666432,49.875975,896.0803852251958,9.161045541666669,-0.53936575,-3.571255041666667,0.1277581012459849,0.1165879940332212,-0.0153588974175501,1.3176888032018594,9.143912396642559,0.056000166473879176
1403636906051666432,41.804552,875.7102584415895,8.736090708333332,0.3595771666666666,-3.358777625,0.0321140582366956,-0.1026253600172665,-0.0174532925199432,1.6284159280092574,9.061457487164569,0.40121517035695753
1403636906551666432,46.867609,762.6855718674244,7.559292708333333,-0.1470997499999999,-2.231012875,0.0397935069454707,-0.0174532925199432,0.2275909344600605,0.920367275221297,9.927883565171856,0.31590757500262434
1403636907051666432,49.874783,855.8301960243693,8.3356525,-0.04903325,-4.118792999999999,0.0349065850398865,-0.0160570291183478,0.028623399732707,2.0621163773607365,9.212553504502937,0.032414382579235124
1403636907551666432,41.820526,707.9021492433124,10.934414749999998,0.3514049583333333,-4.233203916666667,0.1235693110411985,-0.0265290046303138,0.3351032163829112,0.8068595670822907,9.224668667192425,-0.019007963342371426
1403636908051666432,49.510002,524.4353467849279,7.363159708333333,-0.563882375,-2.6641399166666666,-0.0928515162060983,0.114493598930828,-0.1738347934986352,4.924203382255833,5.659944198603024,0.01504452337009976
1403636908551666432,71.686983,590.3811185799202,8.360169125,0.5475379583333333,-2.6886565416666666,0.0397935069454707,0.0314159265358979,0.0460766922526503,1.5780751818029441,4.373694493700291,0.17124118173525105
1403636909051666432,48.814058,469.638066588855,8.866846041666665,0.0408610416666666,-2.3944570416666666,0.0390953752446729,-0.0230383461263251,0.153588974175501,1.9943289706287208,3.0694656592565583,0.13889617729832926
1403636909551666432,46.908856,463.67539771613474,7.730909083333333,-0.6537766666666667,-3.800076875,-0.057246799465414,0.0523598775598298,0.08307767239493,1.995844527704903,3.2645668771735346,0.0169222930263504
1403636910051666432,50.609112,459.1765389438251,9.275456458333332,0.122583125,-3.9880376666666666,0.0621337213709981,-0.0453785605518525,0.268082573106329,5.977273137832532,7.019131553856725,0.6898389250138344
1403636910551666432,50.344944,399.0324220693248,7.84532,-0.4331270416666666,-2.40262925,0.0083775804095727,-0.0146607657167523,0.0153588974175501,4.4148277503022495,10.714449978595688,-0.08797757575063336
1403636911051666432,59.488535,273.0252498361344,9.373522958333332,1.0378704583333334,-2.9338227916666666,0.0272271363311115,0.2911209192326541,0.0781907504893459,2.129591722973235,11.313418142704117,0.23607667938341415
1403636911551666432,60.246944,375.943553279088,9.275456458333332,-0.196133,-3.2525389166666665,0.0083775804095727,-0.0230383461263251,0.1082104136236484,2.7533432078334052,10.081470925208542,-0.2651392718902077
1403636912051666432,39.958716,394.8053401571058,8.97308475,-0.2369940416666666,-3.18716125,-0.0132645023151569,0.0963421747100869,0.0125663706143591,2.5348126062601093,11.58277153496876,0.7884197668460224
1403636912551666432,50.101518,450.91473902627735,7.134337875,-0.44129925,-2.705000958333333,-0.0104719755119659,0.0872664625997164,0.0411897703470661,9.335693337600247,19.992082597913342,0.738684173134665
1403636913051666432,60.275793,523.9728440369414,8.580818749999999,0.0163444166666666,-2.2963905416666663,-0.0474729556542457,0.161268422884276,-0.0335103216382911,7.039720525013736,13.164840690157362,-0.4960571872211208
1403636913551666432,54.687261,571.349995952357,8.065969625,0.1389275416666666,-2.778550833333333,-0.0740019602845595,0.007679448708775,0.0600393262686049,3.519827998762541,16.41571786197492,0.6198454494907981
1403636914051666432,39.490939,650.3283789464058,9.177389958333332,-0.5557101666666666,-3.8245935,-0.0013962634015954,-0.0432841654494593,0.1284562329467826,7.587755422258484,23.489298920353477,1.6069415544662888
1403636914551666432,60.837984,618.165336254982,10.198916,-0.2941994999999999,-4.699019791666666,0.0034906585039886,0.028623399732707,0.1284562329467826,9.423533851547033,32.477464588251465,0.8826881101420199
1403636915051666432,50.196647,635.3618343688095,8.964912541666667,0.5066769166666666,-2.3372515833333334,-0.0495673507566389,-0.0020943951023931,0.0726056968829641,6.5138075694024025,38.85253684076331,0.23702233725693134
1403636915551666432,57.213306,454.6451082951664,10.386876791666666,-0.2288218333333333,-2.2555295,0.0719075651821663,0.2241002759560719,0.2548180707911721,0.8559124932490922,38.62412220522377,0.523797792878689
1403636916051666432,50.078631,522.2160225820976,9.242767625,-0.2860272916666666,-3.832765708333333,-0.0335103216382911,0.0069813170079773,-0.0698131700797731,2.751716997257923,40.5525004078821,0.6662442286861037
1403636916551666432,41.522026,512.7680025369699,9.005773583333333,-0.0817220833333333,-4.16782625,-0.2736676267127109,0.0104719755119659,0.1005309649148733,8.688836152291431,49.38513437334056,1.054941433268425
1403636917051666432,48.414707,680.5764142350109,7.567464916666665,-0.2860272916666666,-2.8766173333333334,-0.0516617458590321,0.0293215314335047,0.1759291886010284,2.8675781519066597,50.90358734783735,-0.56824913801983
1403636917551666432,50.153732,541.1760795279812,9.259112041666668,0.612915625,-2.6477955,-0.3323106895797203,-0.0139626340159546,0.2331759880664424,3.133641213394841,48.27374292989121,0.009413410782926235
1403636918051666432,48.778772,648.9891574280346,10.321499125,0.44129925,-4.094276375,-0.1165879940332212,-0.0495673507566389,0.0237364778271228,1.3903884681508778,49.17520647643249,0.0384005529831839
1403636918551666432,39.815903,712.6534147203492,9.414383999999998,-0.2369940416666666,-2.941995,0.0279252680319092,-0.0481710873550434,0.0802851455917391,0.5498789855828445,49.00333059897934,0.030418643585441885
1403636919051666432,50.21286,515.3798022158771,9.56148375,0.0,-3.391466458333333,-0.0663225115757845,0.0816814089933346,0.3448770601940795,3.8008360928542873,48.26755601580268,0.07888982939304157
1403636919551666432,60.263634,580.5853175773213,9.16921775,0.4004382083333333,-3.0400615,-0.1312487597499735,0.0537561409614253,-0.124965574442794,0.8739381583337024,48.495181213181084,-0.16005863233737472
1403636920051666432,39.209365,684.2429150723954,9.700411291666663,0.3268883333333333,-3.3996386666666667,0.0551524043630208,0.0865683308989187,0.1961750079241626,2.388814074148891,46.47731580743101,-0.17427234422369509
1403636920551666432,50.305128,530.3615970305838,10.803659416666664,0.5230213333333333,-3.023717083333333,0.018151424220741,-0.0265290046303138,-0.0048869219055841,1.1895306447098195,46.122429584309025,-0.09045112364810137
1403636921051666432,50.032615,716.8963444397239,10.182571583333331,-0.0081722083333333,-3.505877375,-0.0251327412287183,0.0418879020478639,0.1019272283164688,1.1980667332547066,45.44282871082427,0.011451047593645569
1403636921551666432,50.435305,683.1494791459132,9.986438583333332,0.04903325,-3.685665958333333,0.0356047167406843,-0.0516617458590321,0.2073451151369263,0.7936617313540969,45.24002490885689,-0.04735298297864432
1403636922051666432,49.825668,538.0699719619578,7.967903124999999,0.4249548333333333,-2.574245625,-0.1549852375770964,0.3092723434533951,-0.0670206432765822,1.3709414191935028,44.451604349917076,-0.03637406081596595
1403636922551666432,49.768924,512.132246381649,7.265093208333333,0.6864655000000001,-2.680484333333333,-0.1724385300970397,-0.064926248174189,0.1500983156715123,2.9740987714922356,43.408864770454294,-0.10994340034808658
1403636923051666432,60.322524,653.9291182567941,8.597163166666666,-0.1797885833333333,-3.702010375,-0.1577777643802873,0.0607374579694026,0.1263618378443894,0.5798593501189071,44.06871301108525,0.1982813512348045
1403636923551666432,49.425125,491.866242059374,11.588191416666666,-0.6210878333333334,-3.8654545416666655,-0.1137954672300302,-0.2834414705238791,0.153588974175501,2.537942917408671,43.093596709492324,-0.16619528322144816
1403636924051666432,41.867495,763.301618944733,9.790305583333332,-0.2043052083333333,-3.751043625,0.0048869219055841,-0.0188495559215387,0.0279252680319092,1.2967231197966498,44.38347876372928,0.26203517710765567
1403636924551666432,47.219039,522.3919076904109,10.370532375,0.0,-4.429336916666666,0.1075122819228507,0.2387610416728242,0.2331759880664424,2.0397904158893323,45.93405235178739,0.1778352134275849
1403636925051666432,48.368931,482.04369876490665,9.079323458333333,0.367749375,-3.2525389166666665,-0.2296853295624537,-0.0244346095279206,-0.0006981317007977,2.1423190627302544,47.7707929429742,0.17533777946312057
1403636925551666432,50.224066,577.4819563496234,9.520622708333333,-0.3105439166666667,-2.999200458333333,-0.0781907504893459,-0.2597049926967562,0.0593411945678072,3.8191027144511858,49.32766044868566,0.12258595217227253
1403636926051666432,49.962283,373.95772305164456,6.938204874999999,-0.7109821249999999,-2.2963905416666663,0.0237364778271228,0.507541746479951,0.189891822616983,2.462243229132564,51.75128868851936,0.16660586592761462
1403636926551666432,56.490421,641.1491808042215,10.125366125,0.0,-2.999200458333333,-0.0293215314335047,-0.0488692190558412,-0.0991347015132779,0.9798701566856429,51.08589912476591,0.23384763996805447
1403636927051666432,50.432444,444.2818733033126,9.520622708333333,0.3350605416666666,-3.4731885416666666,-0.43703044469938,0.0425860337486616,0.1738347934986352,1.7528254189768606,49.784355092951074,0.1770975492803828
1403636927551666432,47.274351,359.85219080567964,11.163236583333331,-0.44129925,-3.898143375,-0.239459173373622,-0.3476695869972704,0.0977384381116824,2.410277306962453,51.3420685014777,0.1767711838093433
1403636928051666432,49.916983,507.9787215149623,7.706392458333333,0.3350605416666666,-3.881798958333333,0.0062831853071795,0.2171189589480945,0.0656243798749867,0.880137152156635,51.0697878524499,-0.06153484853350477
1403636928551666432,52.891255,657.7949297141234,8.302963666666667,-0.0408610416666666,-3.0073726666666665,-0.0020943951023931,0.028623399732707,0.0062831853071795,0.6847564740269019,51.66989101313032,0.21921680360473772
1403636929051666432,64.170838,428.9574805924106,9.038462416666666,-0.0163444166666666,-2.2228406666666665,0.0823795406941323,0.1829105056090057,0.265290046303138,3.2879518558917575,54.7622972161686,-0.0013067176752556975
1403636929551666432,34.105778,537.0928051173204,9.103840083333331,-0.4903325,-2.770378625,-0.0446804288510548,-0.0041887902047863,-0.1158898623324234,3.5743267068794347,52.57113159119893,0.1844841202845231
1403636930051666432,61.419964,572.3918802712857,8.940395916666665,-0.7191543333333333,-3.669321541666666,-0.0460766922526503,-0.1829105056090057,0.1480039205691191,1.827910851073348,51.2919331829763,-0.014220407572793192
1403636930551666432,49.829007,540.4903556574751,9.062979041666669,1.054214875,-3.947176625,-0.0244346095279206,0.0893608577021096,-0.0195476876223364,1.7906100048160543,52.38091780857723,0.06804610048757098
1403636931051666432,60.051202,417.8074718185799,10.73828175,-0.6864655000000001,-4.020726499999999,-0.1766273203018261,0.1487020522699168,0.085870199198121,1.1789035108707295,53.148042093926215,0.19978341303937697
1403636931551666432,50.181389,474.3200224518794,10.893553708333332,0.7518431666666666,-3.4650163333333333,-0.1382300767579508,0.0418879020478639,-0.1424188669627373,2.1491319672737164,54.05175122036715,0.01885208912376868
1403636932051666432,60.349226,593.8914552132061,7.305954249999999,-0.1307553333333333,-3.693838166666666,0.0083775804095727,0.1808161105066125,0.1179842574348166,0.9100363546503962,54.26125755363627,0.06634167997943763
1403636932551666432,63.821793,466.8973718207993,9.536967125,1.0378704583333334,-3.8654545416666655,-0.2268928027592628,0.0146607657167523,0.2122320370425104,1.1811188666892225,55.17194648095924,0.04737818707043573
1403636933051666432,38.633347,508.43368582456975,6.864654999999999,-0.2043052083333333,-3.2770555416666665,-0.2310815929640492,-0.0928515162060983,0.153588974175501,0.9860483712666666,55.78232753985557,0.10312160507256607
1403636933551666432,50.642252,544.7332667053294,8.940395916666665,-0.3595771666666666,-2.827584083333333,0.0237364778271228,0.2171189589480945,0.0132645023151569,1.610301115364908,56.008063260826745,0.0065568496341299465
1403636934051666432,40.233135,525.9219067337375,7.79628675,0.3840937916666667,-2.1492907916666666,-0.3204424506661589,-0.0041887902047863,0.1857030324121966,1.7332630735881982,57.26761289946924,0.26563992832353023
1403636934551666432,50.548792,403.38835041737474,11.016136833333332,-0.34323275,-4.225031708333333,-0.5319763560078716,0.0390953752446729,0.3735004599267865,1.548397053833677,56.20093730244983,-0.36328978856356997
1403636935051666432,49.184561,632.3211923566988,10.705592916666664,-0.4494714583333333,-3.898143375,-0.0719075651821663,0.1151917306316257,0.0279252680319092,2.5360881154456103,53.646574711127585,-0.46581396473418124
1403636935551666432,49.910307,817.1057306598036,8.025108583333333,-0.4903325,-3.587599458333333,0.0628318530717958,0.0383972435438752,0.0712094334813686,3.4578731611114457,53.28704216123692,-0.1772999650553757
1403636936051666432,50.213813,615.770772210098,9.234595416666666,0.8172208333333333,-2.770378625,0.0349065850398865,-0.1682497398922533,0.1291543646475804,3.4847009597798317,50.23094331946454,-0.15339823712105982
1403636936551666432,39.885998,727.574809938961,10.182571583333331,-0.0572054583333333,-3.113611375,0.0006981317007977,0.124965574442794,0.1096066770252439,7.621048009699064,58.01140094508062,1.037122020841963
1403636937051666432,49.982786,782.767185304288,11.343025166666669,0.2941994999999999,-4.347614833333333,0.0020943951023931,-0.0090757121103705,0.0642281164733913,1.402523357330921,59.711108240839536,0.23524972022224233
1403636937551666432,49.640417,825.0132773719143,10.002783,0.2533384583333333,-3.906315583333333,-0.0139626340159546,0.075398223686155,0.0628318530717958,0.4958188293258972,60.43594225359368,0.16103826913857233
1403636938051666432,47.719002,796.159981606739,9.226423208333332,-0.2533384583333333,-4.797086291666667,-0.0335103216382911,0.2157226955464991,0.0795870138909414,0.6142104748683976,60.41571396513981,-0.32081903779737786
1403636938551666432,50.017595,606.8769449498625,9.667722458333332,1.0705592916666666,-2.0675687083333334,-0.0167551608191455,-0.1933824811209717,0.2157226955464991,2.561733882953642,57.8376348850871,0.15498692802535174
1403636939051666432,50.443649,752.2979775227714,8.760607333333333,-0.8989429166666666,-2.9011339583333333,-0.0635299847725936,-0.1075122819228507,-0.0349065850398865,1.8273500645043759,58.197403026580396,-0.04027728646521922
1403636939551666432,50.619602,657.749133438656,10.149882749999998,-0.612915625,-3.57942725,0.046774823953448,0.1452113937659282,-0.0125663706143591,8.708636920997538,52.24675995832973,-0.8224852406432248
1403636940051666432,59.749126,585.397812775926,8.891362666666666,0.0735498749999999,-3.9144877916666654,-0.1689478715930511,-0.0153588974175501,0.1354375499547599,3.883312142745439,49.73802794684251,-0.374618157401045
1403636940551666432,51.722527,440.5263189999049,10.852692666666666,0.1144109166666666,-4.511059,-0.0558505360638185,-0.0886627260013119,0.132645023151569,1.9768842534220736,49.310633914260954,-0.5069855959223233
1403636941051666432,47.491789,526.0101229082372,9.259112041666668,0.3105439166666667,-3.97169325,0.0,0.0314159265358979,0.0837758040957278,8.011583823849197,43.76979653561948,0.5653593275431774
1403636941551666432,49.602508,743.5963505216575,7.583809333333333,-0.171616375,-2.7131731666666665,-0.0013962634015954,-0.0041887902047863,-0.0083775804095727,7.391733382671367,51.59816564225088,0.3404360319808859
1403636942051666432,50.104856,739.8490626926055,10.010955208333332,0.0817220833333333,-3.8409379166666655,0.0279252680319092,0.0586430628670094,0.1724385300970397,5.635875321288907,48.190181877017714,0.00864798688828472
1403636942551666432,48.098802,686.3673419771761,8.319308083333333,-0.2860272916666666,-3.342433208333333,-0.0684169066781777,-0.1857030324121966,0.1640609496874669,2.8124694682971083,46.97174961556802,-0.3515526111443492
1403636943051666432,49.919844,651.870504644534,11.800668833333331,0.122583125,-4.625469916666667,-0.0614355896702004,0.1061160185212552,0.0530580092606276,4.969713612110353,43.727277700663855,-0.23085672258944356
1403636943551666432,50.256968,751.2099747948536,8.253930416666666,0.4004382083333333,-3.587599458333333,-0.028623399732707,0.0418879020478639,0.0837758040957278,6.4831738248292785,39.964860769802435,0.25305650670991753
1403636944051666432,50.232649,334.8464316050786,8.409202375,-0.0980665,-3.28522775,0.1487020522699168,-0.2778564169174973,-0.0383972435438752,3.645994395796446,41.21839981101262,0.8314447668868539
1403636944551666432,49.986839,471.0686131646427,8.719746291666667,-0.5475379583333333,-2.705000958333333,-0.064926248174189,0.2925171826342496,-0.1654572130890624,5.066874547320972,47.08702867348284,1.7915000021167984
1403636945051666432,49.234152,676.1400973253935,9.831166624999998,0.1062387083333333,-2.8847895416666667,0.0851720674973232,0.085870199198121,0.0907571211037051,10.321935135319464,56.8010456222372,-0.3898097046883606
1403636945551666432,48.098087,642.2319615008862,9.937405333333334,-0.3759215833333333,-3.742871416666666,0.0034906585039886,-0.0621337213709981,0.1745329251994329,1.1310967197727002,56.31655099319622,0.13677408894936605
1403636946051666432,49.854279,615.240669946624,8.572646541666666,-0.024516625,-1.9286411666666663,-0.0097738438111682,0.3867649622419434,0.0048869219055841,2.926752235361162,58.49320956609516,0.1536934672752821
1403636946551666432,50.044298,728.932025299364,9.022118,-0.1797885833333333,-3.97169325,-0.0481710873550434,-0.0104719755119659,0.1305506280491758,3.965622401928954,61.635386218111954,0.08098197491974446
1403636947051666432,59.740781,570.8561788095404,8.278447041666666,0.7927042083333332,-3.857282333333333,-0.0390953752446729,-0.0370009801422797,0.0279252680319092,0.9191391895512935,61.305426200784815,0.11844508389136621
1403636947551666432,49.655199,377.2310436633799,10.207088208333332,-0.3350605416666666,-2.7131731666666665,0.0635299847725936,0.1940806128217694,0.2429498318776106,1.279714286434821,60.76726791805531,0.37679981595373135
1403636948051666432,51.288843,544.202875944757,10.4931155,0.3514049583333333,-3.8164212916666655,0.1123992038284348,-0.1452113937659282,0.2345722514680378,4.510756939036466,65.67535434272752,0.03864203344359396
1403636948551666432,49.866914,384.4091371356637,9.888372083333332,-0.1307553333333333,-4.241376125,-0.0712094334813686,0.1319468914507713,-0.2066469834361286,2.411097474396901,64.56947968519106,-0.041296452140088036
1403636949051666432,49.724341,508.9567927693949,8.057797416666666,0.0572054583333333,-2.40262925,0.1214749159388053,0.0593411945678072,0.3190461872645634,0.9404496804322945,64.36400012687085,-0.20569667142119386
1403636949551666432,50.104857,530.072224031541,9.406211791666664,-0.4821602916666666,-2.7213453750000003,0.0481710873550434,-0.0111701072127637,0.1780235837034216,0.2750710208306841,63.20769036658892,-0.08126299726372821
1403636950051666432,54.408074,593.3412665832208,9.847511041666666,0.0326888333333333,-2.5415567916666664,0.0006981317007977,-0.1354375499547599,0.093549647906896,0.729202589372046,61.73706183235236,-0.12600280163289312
1403636950551666432,50.706863,453.0318198275389,9.455245041666666,-0.465815875,-3.415983083333333,-0.1096066770252439,0.2094395102393195,-0.1312487597499735,0.7074204306789396,61.24457354878873,0.009637746896494548
1403636951051666432,52.482605,505.5892625147875,10.83634825,-0.2533384583333333,-3.881798958333333,0.1061160185212552,0.1214749159388053,0.2038544566329376,2.519103978595645,62.528968830335394,0.26211705043105127
1403636951551666432,39.155722,539.8034475573309,9.553311541666666,-0.1634441666666666,-4.36395925,-0.0321140582366956,0.0300196631343024,0.0516617458590321,2.76468715617717,63.79452152370221,-0.04006404737438629
1403636952051666432,39.294243,364.5658632516965,8.38468575,0.0081722083333333,-3.4977051666666665,-0.0090757121103705,0.0069813170079773,0.0656243798749867,3.2834671478235387,65.57621834283879,0.23534665347170858
1403636952551666432,51.163674,300.8641173418117,10.076332875,0.3840937916666667,-3.415983083333333,-0.0488692190558412,-0.0502654824574366,-0.0188495559215387,1.6360314411053294,65.72347363207506,-0.17536056113362974
1403636953051666432,46.207667,257.2211546661544,7.820803375,1.1114203333333332,-3.3996386666666667,0.0432841654494593,-0.1061160185212552,0.1982694030265558,4.352559498598349,68.51023776828957,0.21984550745492015
1403636953551666432,61.118603,273.84569440072727,11.604535833333331,-0.220649625,-3.391466458333333,-0.0160570291183478,-0.0893608577021096,-0.0356047167406843,4.043093698709702,71.29570049673296,0.29005817716515025
1403636954051666432,49.965381,262.3950379799403,10.198916,-0.4576436666666666,-4.699019791666666,-0.0097738438111682,0.0342084533390888,0.1675516081914556,5.67547395786775,72.79478022937832,0.35723767698250697
1403636954551666432,50.103187,313.61922055320963,9.675894666666666,0.5066769166666666,-2.999200458333333,-0.0516617458590321,0.0390953752446729,0.0670206432765822,6.265589707626212,78.5846569100563,0.7995597603554216
1403636955051666432,60.511589,356.8097195134705,10.2969825,-0.0817220833333333,-3.5957716666666664,-0.0998328332140756,-0.0698131700797731,0.0370009801422797,5.451338553378127,83.00894551814406,-0.13330868556393227
1403636955551666432,49.840688,384.5325615534684,8.915879291666666,-0.220649625,-3.67749375,-0.0642281164733913,-0.0439822971502571,0.0635299847725936,5.761180560990148,87.62979381683937,0.7625175849755834
1403636956051666432,49.27206,474.4692141336348,8.515441083333332,0.563882375,-2.827584083333333,0.0816814089933346,-0.0118682389135614,0.4153883619746504,9.246864426889188,96.51758025266588,0.9406966112510986
1403636956551666432,49.906254,403.2756558371599,9.741272333333333,0.4086104166666666,-3.3260887916666664,0.075398223686155,0.2659881780039358,0.0062831853071795,3.155425624997644,95.6624684859206,-1.320020324634271
1403636957051666432,49.465656,314.98792611355395,10.525804333333332,0.563882375,-4.020726499999999,0.5864306286700948,0.1061160185212552,-0.3497639820996636,2.290494547616652,93.79882649071303,0.3618623563163368
1403636957551666432,59.475661,457.5803701355263,8.155863916666666,-0.4494714583333333,-4.053415333333333,0.2380629099720265,0.0006981317007977,0.0586430628670094,3.490382101706904,96.7277767587727,-0.09381779725491413
1403636958051666432,39.595604,335.43632792603177,12.2583125,0.3759215833333333,-3.0400615,0.6897541203881591,0.0453785605518525,-0.046774823953448,3.154003388286122,94.25975305205397,0.09172640985472924
1403636958551666432,38.762569,582.4045002748577,7.992419749999999,0.612915625,-2.9338227916666666,0.153588974175501,0.0041887902047863,-0.036302848441482,2.4747010820117983,96.23176175798203,-0.010171978848077856
1403636959051666432,47.11175,642.9253378055669,7.959730916666666,-0.0817220833333333,-2.2555295,-0.0516617458590321,0.0404916386462684,0.0837758040957278,2.257292333524136,98.22364056364573,-0.01576346697504505
1403636959551666432,49.452543,541.8698276362321,9.626861416666666,0.2124774166666666,-3.219850083333333,0.0062831853071795,0.2415535684760151,0.257610597594363,4.316806866514556,95.64630525126425,0.022766951258816448
1403636960051666432,49.782276,641.9971630611317,9.455245041666666,0.3595771666666666,-1.7978858333333332,-0.0209439510239319,0.0244346095279206,-0.007679448708775,1.8637003807208297,96.07621895317445,-0.10797471934418468
1403636960551666432,50.451993,534.6901514944631,8.899534874999999,0.83356525,-3.505877375,0.0949459113084915,0.1514945790731078,-0.0628318530717958,1.82379836670622,94.023466950391,0.14632468401333654
1403636961051666432,39.406061,381.7647121563489,11.318508541666665,-1.299381125,-4.192342875,0.5396558047166466,-0.0097738438111682,-0.0195476876223364,2.170985482649068,94.95012894915182,0.05664887526411633
1403636961551666432,57.187319,438.2622504525706,8.368341333333333,-0.4331270416666666,-3.178989041666666,0.2820452071222836,0.0125663706143591,-0.0397935069454707,0.5065726903956067,94.45691624088587,-0.24967220363757292
1403636962051666432,50.371647,458.22780349104414,8.907707083333333,0.8008764166666666,-4.037070916666667,0.4586725274241098,-0.0376991118430775,-0.08307767239493,2.664461204905029,92.77606697637749,-0.011064850324487452
1403636962551666432,49.702406,399.0106977470233,8.294791458333332,0.4004382083333333,-3.1217835833333334,0.4426154983057619,0.0020943951023931,-0.2729694950119131,1.3673616818475978,92.15008190723499,0.3871792811678887
1403636963051666432,49.701691,381.1384405135053,10.370532375,0.0,-3.4813607499999994,0.1172861257340189,0.2722713633111154,0.2457423586808016,1.3966886248642836,91.25145803047813,-0.057394925187978174
1403636963551666432,47.748327,698.8390595467595,10.468598874999998,0.4821602916666666,-4.069759749999999,-0.0977384381116824,-0.0432841654494593,0.093549647906896,2.301803855660731,90.55784455278713,-0.16844205605305262
1403636964051666432,49.33691,537.3045938803332,8.915879291666666,0.3514049583333333,-1.7406803749999995,0.0006981317007977,0.0558505360638185,0.0677187749773799,1.5912109522133888,89.62593910549523,-0.2418122737825712
1403636964551666432,49.317599,477.71320348259655,8.213069375,-0.2778550833333333,-3.334261,0.0474729556542457,-0.0942477796076938,0.0104719755119659,1.6529365942893628,87.47688185792764,-0.17648852377929813
1403636965051666432,39.141178,349.73735609333266,11.530985958333332,0.392266,-3.38329425,0.5787511799613196,0.1256637061435917,0.1061160185212552,3.6448734169285157,83.67811747038148,-0.22580702343988435
1403636965551666432,50.101757,347.2063433833208,11.024309041666667,0.4985047083333333,-2.680484333333333,0.0942477796076938,0.064926248174189,0.2555162024919699,4.704591475210081,78.66147684388739,-1.0601128074389692
1403636966051666432,49.693346,507.4250522628376,9.381695166666669,0.7681875833333334,-3.6202882916666654,-0.1382300767579508,0.0453785605518525,-0.0474729556542457,2.1072632336617048,78.85473549972801,-0.2556785666561012
1403636966551666432,48.942089,453.437049244081,9.226423208333332,0.5475379583333333,-3.334261,0.0195476876223364,0.0614355896702004,0.3085742117525974,4.231265326266978,79.27988460565703,-0.3218234932430306
1403636967051666432,59.72147,534.226755778885,8.613507583333332,-0.2369940416666666,-1.6916471249999998,-0.085870199198121,-0.0097738438111682,-0.0726056968829641,1.1691452530794382,78.34129750097509,-0.791201250420329
1403636967551666432,42.097091,537.2029523086375,10.811831625,-0.2124774166666666,-3.8082490833333327,-0.0174532925199432,0.036302848441482,0.0321140582366956,6.010632777836753,73.69243756678448,-0.3158925916794715
1403636968051666432,61.44619,464.9959267387584,9.152873333333332,0.3595771666666666,-3.571255041666667,0.064926248174189,0.1647590813882647,0.1158898623324234,2.9121129009890665,77.00025995093627,1.065301441696505
1403636968551666432,57.977915,511.42601319031695,10.354187958333334,0.04903325,-3.8409379166666655,-0.0719075651821663,0.054454272662223,-0.0781907504893459,2.202375594364642,79.28505205302977,-0.0968531037311493
1403636969051666432,61.215877,499.6423373663138,9.340834125,0.3268883333333333,-3.571255041666667,0.0439822971502571,-0.0656243798749867,0.2227040125544764,1.4903899255204687,79.41727999644826,-0.016512952535833847
1403636969551666432,46.810627,601.1820778543223,6.987238125,0.3595771666666666,-2.157463,-0.0195476876223364,0.0034906585039886,0.0740019602845595,1.8755303886549255,79.20573364228738,-0.02061914300864487
1403636970051666432,60.504914,557.1851259112124,8.245758208333333,0.1470997499999999,-2.9338227916666666,-0.0516617458590321,0.1577777643802873,-0.0209439510239319,3.1951235261813453,82.22035132761592,0.3369227163654358
1403636970551666432,49.860239,585.3161711625011,9.610517,0.2369940416666666,-2.4434902916666665,-0.0132645023151569,-0.182212373908208,0.0432841654494593,15.095025397937539,70.04578615783342,-0.9739479036633867
1403636971051666432,50.57025,632.2526480661052,7.9433865,-0.04903325,-3.317916583333333,0.0726056968829641,0.1284562329467826,0.2408554367752175,11.26378628894464,63.45353021157008,-0.3787122910999088
1403636971551666432,50.107956,753.1076416208344,7.330470875,0.5802267916666666,-3.2443667083333327,-0.0090757121103705,0.124965574442794,-0.0788888821901436,4.869311251763607,67.48465034201345,0.6372289906101116
1403636972051666432,42.207003,798.1506852471423,10.2969825,-0.1634441666666666,-3.2443667083333327,0.0314159265358979,0.075398223686155,0.0460766922526503,4.290953343856943,66.92418853944258,0.23821374488956337
1403636972551666432,47.75238,760.7760899042338,9.275456458333332,0.0408610416666666,-3.693838166666666,-0.0132645023151569,-0.0006981317007977,0.0376991118430775,2.441269234309228,69.20404442971801,0.5969685528408348
1403636973051666432,47.489882,695.1484617791044,7.739081291666666,-0.73549875,-2.549729,-0.2227040125544764,-0.0691150383789754,0.1689478715930511,3.2793477199785537,71.46612084686763,-0.10035320077078325
1403636973551666432,49.154758,874.1814450285533,10.190743791666666,-0.8907707083333333,-3.734699208333333,-0.1033234917180643,0.0237364778271228,0.025830872929516,1.3185402282342025,70.53364528460398,-0.16272340598374058
1403636974051666432,49.836159,720.7368446700003,9.912888708333332,0.367749375,-3.4568441249999995,-0.1633628179866692,-0.0600393262686049,0.2715732316103177,1.2430123680080534,71.06458780904728,0.1744243350271404
1403636974551666432,49.535513,578.6722112384116,11.016136833333332,-0.2369940416666666,-2.729517583333333,-0.6066764479932288,0.1165879940332212,0.2904227875318564,0.925403266708142,71.69399201709763,0.08066223772623005
1403636975051666432,48.678398,694.0016477005163,9.504278291666663,-0.1389275416666666,-3.1054391666666663,-0.4160864936754481,0.0537561409614253,0.3309144261781249,0.6813847936893987,71.12759329703039,0.06690857213413892
1403636975551666432,47.723055,858.9094499601424,9.569655958333334,-0.2369940416666666,-2.868445125,0.0,-0.1473057888683213,0.1172861257340189,1.6970301697868735,71.45156421279756,0.015922250984900188
1403636976051666432,60.907125,594.8578276247749,8.564474333333333,-0.63743225,-2.950167208333333,-0.2757620218151041,0.2534218073895766,0.4482005519121438,0.6774492966628094,71.02563937752097,0.013718240698096906
1403636976551666432,49.973011,516.8721946311755,8.082314041666667,-0.220649625,-2.4516625,-0.5347688828110626,0.0712094334813686,-0.0530580092606276,0.3415521484287695,70.99486305824824,-0.19981432109828745
1403636977051666432,49.259663,813.2525132932594,10.068160666666666,-0.8172208333333333,-3.554910625,-0.0342084533390888,-0.0251327412287183,0.1207767842380075,0.7792269928888883,71.66240784479014,-0.014620164615465114
1403636977551666432,54.378033,803.0487347728936,9.112012291666666,-0.465815875,-4.453853541666667,0.0558505360638185,0.1759291886010284,-0.0223402144255274,0.39529382833312987,71.65450265336248,-0.0009857321119852713
1403636978051666432,49.680471,727.9017049142518,10.2969825,-0.8417374583333332,-2.157463,-0.0726056968829641,0.1130973355292325,-0.0691150383789754,1.2622505424739476,71.57863124474135,-0.046085142866118645
1403636978551666432,46.650886,557.6193122979971,7.79628675,-0.2533384583333333,-2.435318083333333,-0.0677187749773799,-0.0949459113084915,0.0174532925199432,2.4203555009348667,73.90307512414877,0.44096788069875004
1403636979051666432,49.866915,474.17846845161824,9.479761666666668,0.8744262916666666,-4.46202575,0.0230383461263251,0.3686135380212024,0.0670206432765822,1.7720728670730534,75.93479090880442,0.03766169521925633
1403636979551666432,50.459862,727.2284765653782,10.305154708333331,0.6047434166666666,-2.89296175,-0.0314159265358979,-0.1480039205691191,-0.0174532925199432,2.1107954792695844,76.60464929456295,0.1120609446250711
1403636980051666432,47.979116,597.9921148595065,8.793296166666666,-0.7927042083333332,-3.3506054166666663,-0.0446804288510548,0.0349065850398865,0.0991347015132779,1.203075069706624,76.59466281228474,-0.2137706121005465
1403636980551666432,49.996614,657.868775235409,8.131347291666666,-0.0081722083333333,-2.6151066666666667,0.0167551608191455,0.0314159265358979,0.1319468914507713,0.4016498275681432,76.47323593943227,-0.03279600146727546
1403636981051666432,57.202816,641.7626300044147,8.817812791666666,0.3840937916666667,-3.0564059166666664,0.0460766922526503,0.1340412865531645,0.1528908424747032,2.730037762639039,73.5343388549551,-0.07364291219180075
1403636981551666432,50.369263,430.5549296899238,10.926242541666667,0.1144109166666666,-3.661149333333333,-0.1759291886010284,-0.1521927107739055,-0.1801179788058148,1.3976784024225328,74.11199906363326,0.2522169289995446
1403636982051666432,56.676149,554.2913808751351,7.84532,-0.6047434166666666,-2.3372515833333334,-0.0006981317007977,-0.132645023151569,0.1333431548523667,0.6725718306674411,73.95045538938976,-0.06327188800855765
1403636982551666432,50.019503,473.5939043509979,9.822994416666669,-0.5311935416666667,-3.138128,0.0216420827247296,0.1207767842380075,0.0397935069454707,1.5162993797720632,74.81508189978989,0.2935970458481876
1403636983051666432,56.902408,536.6865529760167,8.490924458333334,-0.3023717083333333,-3.358777625,0.0041887902047863,0.1277581012459849,0.0509636141582344,4.033769978545183,78.59923897646432,0.35709223122908895
1403636983551666432,57.6303,566.124000940238,8.221241583333333,0.5148491249999999,-3.849110125,-0.0272271363311115,-0.0104719755119659,0.0446804288510548,12.225924029389489,90.61405234610102,1.6168000717740796
1403636984051666432,46.329498,647.2426963386783,9.80665,0.0817220833333333,-2.0757409166666667,-0.0495673507566389,-0.0474729556542457,0.1005309649148733,3.924876365419003,93.62657560216319,0.010636727620365605
1403636984551666432,49.442768,664.6691953578181,8.368341333333333,0.2288218333333333,-3.048233708333333,-0.0335103216382911,0.1242674427419962,0.0300196631343024,4.563151732216977,97.59553722727975,0.273757228576585
1403636985051666432,50.408602,628.7008786593892,9.112012291666666,0.7763597916666666,-3.334261,0.0104719755119659,-0.054454272662223,0.0691150383789754,3.2440312713719144,100.42403091822798,-0.08092149829671769
1403636985551666432,50.243854,539.6439891185255,8.899534874999999,0.4331270416666666,-4.184170666666667,0.1724385300970397,-0.0027925268031909,-0.0635299847725936,7.430215739582284,107.37053243390555,1.2544040397381764
1403636986051666432,42.583704,582.2851402317176,9.618689208333333,0.3514049583333333,-3.6202882916666654,0.0174532925199432,0.200363798128949,-0.0188495559215387,1.955276862040586,106.97907394071862,0.2954338400530929
1403636986551666432,56.801319,513.8496562003639,10.207088208333332,-0.1307553333333333,-4.592781083333333,0.0411897703470661,-0.0677187749773799,0.1975712713257581,10.748572919744175,95.3428432867013,-0.3975040033256789
1403636987051666432,49.959659,644.4594533290644,9.185562166666664,0.4985047083333333,-3.4568441249999995,-0.0328121899374933,0.1033234917180643,-0.0760963553869527,2.5117752779085243,92.05003337058236,-0.1742448802942249
1403636987551666432,38.666486,495.5027228229201,10.313326916666666,-0.1062387083333333,-3.751043625,0.0432841654494593,0.2261946710584651,-0.0698131700797731,5.402343097234761,86.45015023122401,-0.011684491664098573
1403636988051666432,50.569058,522.7629138391742,8.196724958333332,-0.269682875,-3.072750333333333,0.0991347015132779,-0.2073451151369263,0.2366666465704311,0.8353122957446214,85.07331338359168,-0.551388774573752
1403636988551666432,42.393685,634.0625911189323,9.798477791666668,-0.0572054583333333,-3.898143375,0.0034906585039886,0.1417207352619395,0.0781907504893459,2.087787530856189,82.76703382138861,-0.46381840622935044
1403636989051666432,49.606324,701.3669624439977,10.607526416666667,0.5148491249999999,-2.606934458333333,0.0216420827247296,0.1689478715930511,0.153588974175501,2.908479509567353,80.74893463346044,-0.10590375751301906
1403636989551666432,49.942255,595.5150276954197,10.109021708333332,0.0,-3.636632708333333,-0.0020943951023931,-0.2031563249321399,0.0146607657167523,1.10597593238895,81.35323046399256,0.13663650087893586
1403636990051666432,49.687386,691.8452351292128,10.4931155,-0.2288218333333333,-2.999200458333333,0.0153588974175501,0.179419847105017,0.0719075651821663,1.3765915216840723,82.60007112720966,-0.005272896751549183
1403636990551666432,39.882421,716.6654829939004,9.177389958333332,-0.4004382083333333,-3.685665958333333,0.0383972435438752,-0.0321140582366956,0.0760963553869527,1.08153817836272,82.98180872719968,0.0010926016033039332
1403636991051666432,39.906263,687.6870205235723,8.155863916666666,-0.1062387083333333,-2.803067458333333,-0.0244346095279206,0.0851720674973232,0.0712094334813686,0.9879240615898982,83.00385696418842,-0.12136027766464963
1403636991551666432,49.603462,748.6135886229288,10.583009791666663,-0.8580818749999999,-3.8654545416666655,-0.0300196631343024,0.0265290046303138,0.1591740277818828,2.4812983120672376,83.5014879342618,0.03283054392345264
1403636992051666432,49.97468,653.4053546620504,8.074141833333334,0.6946377083333333,-2.7376897916666665,-0.124965574442794,0.1375319450571531,-0.132645023151569,6.848140960903841,79.03300820287794,-0.4944383576203961
1403636992551666432,50.124884,618.1614898896157,11.359369583333333,0.0898942916666666,-2.329079375,-0.025830872929516,0.0209439510239319,0.0509636141582344,9.511393600228827,75.30346373924328,-0.9330242236611497
1403636993051666432,42.264938,794.3123500205173,9.782133375,-0.171616375,-3.8654545416666655,0.0027925268031909,0.0684169066781777,0.1919862177193762,10.920986147329009,66.07415416285373,-0.4312189846475576
1403636993551666432,30.081272,606.4044818264667,11.089686708333334,0.24516625,-5.54075725,0.4139920985730549,0.046774823953448,-0.0733038285837618,4.564555841919809,62.767648862173516,0.5579678087050226
1403636994051666432,49.756289,720.2802415165828,8.801468374999999,0.196133,-2.941995,0.0195476876223364,0.1284562329467826,-0.0537561409614253,2.854516510176789,61.363954200201874,-0.14156470198450677
1403636994551666432,39.249421,768.9024745020654,11.408402833333332,-1.1114203333333332,-3.702010375,0.0216420827247296,-0.161268422884276,0.3078760800517997,1.441980079149184,60.63344583207565,-0.36116716462841936
1403636995051666432,49.954415,748.7398975172957,10.566665374999998,-0.2288218333333333,-2.974683833333333,-0.0551524043630208,0.0411897703470661,-0.018151424220741,5.437871635665229,56.02974025643379,-0.3935866159841126
1403636995551666432,49.813271,977.2095579540472,8.572646541666666,-0.44129925,-2.705000958333333,0.0132645023151569,-0.0097738438111682,0.0733038285837618,7.323097593948058,53.2345906322212,-0.03326876426822878
1403636996051666432,49.542189,909.9915497797527,9.912888708333332,-0.784532,-3.693838166666666,-0.1026253600172665,-0.0216420827247296,-0.0481710873550434,3.750178716102328,53.38266702185206,-0.32865569170652975
1403636996551666432,51.460028,849.2792598802766,10.198916,-0.4576436666666666,-2.680484333333333,0.2988003679414292,0.0174532925199432,-0.0642281164733913,3.811748930852785,55.09430103136492,0.405315327111218
1403636997051666432,48.368215,715.5234459611025,8.654368624999998,0.4576436666666666,-2.623278875,0.3979350694547071,0.0139626340159546,-0.0893608577021096,6.354977018261994,55.16482467144988,-0.08321849702646489
1403636997551666432,39.699792,1118.331031645616,8.785123958333333,-0.1470997499999999,-2.239185083333333,-0.0069813170079773,-0.0104719755119659,0.0670206432765822,6.077354463195549,56.674162044442525,0.36106914367911713
1403636998051666432,68.48073,1099.1947240690265,8.891362666666666,0.3023717083333333,-3.9144877916666654,-0.0747000919853573,-0.0425860337486616,0.1263618378443894,10.227087555084543,55.35732699803626,1.2635340493641962
1403636998551666432,48.501968,887.1571210663594,8.77695175,-0.0081722083333333,-3.2035056666666666,-0.0104719755119659,0.1689478715930511,0.08307767239493,13.618301311165116,56.31416288781952,-0.12073328298070862
1403636999051666432,51.369668,1158.6065666320076,8.098658458333333,0.0,-3.587599458333333,-0.0523598775598298,-0.0146607657167523,-0.0516617458590321,4.302130820026252,56.760426805546,-0.15438597032356682
1403636999551666432,50.244569,1067.6277027434326,9.447072833333332,0.4985047083333333,-2.353596,-0.0418879020478639,0.1214749159388053,0.1075122819228507,5.46298954044823,58.25043650769419,0.2675130307289777
1403637000051666432,49.868346,1129.7658521307246,8.392857958333332,0.3105439166666667,-2.8766173333333334,-0.0928515162060983,-0.0090757121103705,-0.0216420827247296,2.9149841270321053,59.0589380314129,-0.0013228566739442726
1403637000551666432,53.103447,1105.500126350226,11.155064374999998,0.6210878333333334,-2.655967708333333,-0.0048869219055841,-0.0083775804095727,0.0851720674973232,3.5850867950000738,58.03219868509836,-0.173918336943359
1403637001051666432,38.982153,1038.8865968104706,7.902525458333333,-0.0081722083333333,-2.20649625,-0.0132645023151569,0.132645023151569,0.0530580092606276,1.4157090807800738,57.35134570920177,0.03890514741613771
1403637001551666432,49.741269,1066.1745651517194,9.528794916666666,0.8172208333333333,-3.2361945,-0.0216420827247296,-0.0628318530717958,0.0677187749773799,1.4947555749451356,57.73799375476797,0.06058406419460027
1403637002051666432,52.009105,984.2209717253618,8.499096666666667,-0.8253930416666666,-0.784532,-0.0293215314335047,0.0356047167406843,0.0223402144255274,3.9858103834284675,55.317723292641986,-1.538071987466303
1403637002551666432,49.407721,1030.3745373595864,10.501287708333331,-0.4494714583333333,-3.0400615,-0.0523598775598298,-0.0328121899374933,0.0041887902047863,5.882975473673358,50.594140380394094,-0.7254409726603726
1403637003051666432,49.224854,942.0941687599015,9.226423208333332,0.2860272916666666,-3.571255041666667,-0.0356047167406843,-0.0418879020478639,0.1026253600172665,5.52516711173545,47.89058109777511,-0.08255738713985039
1403637003551666432,60.288667,981.3562664866456,10.305154708333331,0.24516625,-2.770378625,-0.0034906585039886,0.0663225115757845,0.0977384381116824,5.513190218077652,47.122138958316384,-0.23319011289085978
1403637004051666432,61.491966,1011.8645232493864,10.288810291666666,0.34323275,-3.530394,0.0069813170079773,-0.0600393262686049,0.0851720674973232,16.472930781095,40.8962752121982,-0.5518602894714704
1403637004551666432,39.912939,1264.7406632008056,10.681076291666663,-0.5720545833333333,-4.388475875,-0.0537561409614253,0.153588974175501,0.0614355896702004,3.905990527207333,42.037374414421215,0.6318493701345957
1403637005051666432,44.247389,1190.854786607688,8.319308083333333,-0.1144109166666666,-2.30456275,-0.0977384381116824,-0.0642281164733913,-0.0446804288510548,6.056986744104843,47.187609821519914,0.8355462162744232
1403637005551666432,37.53233,616.6715129762996,11.498297125,0.2043052083333333,-2.950167208333333,0.0390953752446729,0.0656243798749867,0.0893608577021096,9.926679461182442,54.264877537236636,1.2186125511719155
1403637006051666432,57.263613,567.3740719165556,8.5317855,0.8662540833333333,-3.505877375,0.0390953752446729,0.1068141502220529,0.1487020522699168,11.486295227493464,61.82661602161239,0.428515466230472
1403637006551666432,49.926043,593.3769071392189,8.87501825,-0.2860272916666666,-2.1738074166666665,0.0851720674973232,0.1829105056090057,0.1528908424747032,9.679530721905254,64.81700399935899,-0.3658011744534946
1403637007051666432,50.290823,465.6609865746785,8.687057458333333,-0.04903325,-2.7867230416666664,0.3686135380212024,0.0677187749773799,-0.1242674427419962,26.467569980821022,88.99534304791266,5.535745448958934
1403637007551666432,50.146341,475.0939881835188,10.084505083333331,0.8580818749999999,-3.489532958333333,0.0251327412287183,-0.0684169066781777,0.0837758040957278,64.15075241999357,145.17235756268826,1.5172485857243885
1403637008051666432,60.850621,564.4818499281464,8.016936375,-0.0572054583333333,-2.378112625,-0.0795870138909414,-0.2024581932313422,0.0579449311662117,22.774184750967287,164.22437358837232,5.7002728260721085
1403637008551666432,46.690941,446.0880144260695,8.981256958333333,-0.0163444166666666,-4.077931958333333,-0.0335103216382911,0.2750638901143063,0.1675516081914556,37.213447879925866,201.18701875076673,3.028148306011019
1403637009051666432,40.144443,529.8082575325797,7.01175475,0.3350605416666666,-2.1738074166666665,-0.1235693110411985,0.1291543646475804,-0.1877974275145898,27.96515830797946,226.84324582112401,2.3780756955772517
