stamp,img_delta,blur,lin_acc.x,lin_acc.y,lin_acc.z,ang_vel.x,ang_vel.y,ang_vel.z,rpe,ate,drift
1403637133388318976,49.863815,514.8504848180705,9.136528916666666,-0.6456044583333332,-2.4843513333333336,-0.1528908424747032,-0.075398223686155,0.0844739357965255,54.57539088004224,359.1665965634971,-9.293228544325984
1403637133888318976,41.855097,380.9937969481648,11.310336333333332,-0.8744262916666666,-3.759215833333333,-0.1382300767579508,-0.0900589894029074,0.1926843494201739,263.22542775470396,187.8260359543564,-40.483149539812786
1403637134388318976,49.722194,353.5186705167905,6.668522,0.0408610416666666,-1.6753027083333332,-0.0851720674973232,0.3316125578789226,0.1368338133563554,188.4214263741407,68.45526221389446,-1.4997326709180356
1403637134888318976,50.188303,190.48364122128936,9.80665,-0.04903325,-4.26589275,0.0781907504893459,-0.4565781323217166,0.2911209192326541,54.05339380448076,95.86388329042656,9.092946119547108
1403637135388318976,51.401853,199.0774915648546,11.195925416666665,-0.3023717083333333,-5.115802416666666,-0.104021623418862,0.3469714552964727,-0.0251327412287183,64.53099600619647,142.7567397194989,-20.974852035955763
1403637135888318976,49.48163,775.7703960080731,5.287418791666666,0.3105439166666667,-1.184970208333333,-0.0565486677646162,0.0677187749773799,0.1305506280491758,124.27654177245395,68.20495818656745,-0.43885137721754575
1403637136388318976,50.675393,206.3642013740836,10.019127416666668,-0.1144109166666666,-4.993219291666667,0.0383972435438752,-0.4858996637552213,0.1096066770252439,70.31093451114228,100.09368568745725,10.928148161655756
1403637136888318976,63.745021,181.9327672065785,9.234595416666666,-0.0653776666666666,-4.4701979583333324,-0.0481710873550434,0.5242969072990966,0.0907571211037051,19.79777203182715,99.2194777359598,-11.426279856419669
1403637137388318976,49.132824,804.4514204025364,6.210878333333333,-0.2615106666666666,-1.372931,0.0809832772925368,0.046774823953448,0.0509636141582344,60.097879330955486,71.99638606946006,0.23627722447936605
1403637137888318976,50.138473,197.67527491884812,12.184762625,0.2043052083333333,-5.655168166666666,0.0726056968829641,-0.28623399732707,0.0132645023151569,88.05637991136503,96.61733420305646,6.110142387911665
1403637138388318976,49.804449,190.42830562424427,7.216059958333333,0.44129925,-3.015544875,-0.2178170906488923,0.7379252077432026,0.0698131700797731,33.52137372168573,99.63098063524298,-3.271746440860724
1403637138888318976,49.830675,276.6115630813092,7.730909083333333,-0.1144109166666666,-3.1463002083333333,0.0460766922526503,-0.3155555287605747,0.0446804288510548,28.862454961465804,73.09441085538525,1.7267527588692246
1403637139388318976,41.774988,299.1144060059882,10.117193916666666,-0.5802267916666666,-4.5519200416666665,0.15079644737231,0.0,-0.0607374579694026,159.65219313825335,180.2586209059055,13.245302972271162
1403637139888318976,50.780057,355.6990097442622,9.259112041666668,-0.9479761666666666,-3.391466458333333,-0.0432841654494593,0.2541199390903744,0.1494001839707146,90.76235389118962,255.59319421222008,3.230608112159672
1403637140388318976,49.706697,566.6644439981552,9.986438583333332,0.024516625,-3.195333458333333,0.0055850536063818,0.093549647906896,0.0376991118430775,18.596177562502696,238.07477032911382,-0.8584175163741747
1403637140888318976,50.085068,578.2237129280962,9.65955025,-0.9398039583333332,-2.533384583333333,-0.0202458193231342,0.0230383461263251,0.0767944870877505,2.336144075825998,236.17760501346748,-0.018840831658110346
1403637141388318976,51.135778,581.7317730948363,9.406211791666664,-0.6292600416666666,-2.6477955,-0.0020943951023931,0.0195476876223364,0.0795870138909414,0.016036265283013044,236.18128767295988,0.007521156978327781
1403637141888318976,44.375658,580.6582609743841,9.332661916666666,-0.7273265416666667,-2.606934458333333,-0.0006981317007977,0.0230383461263251,0.0816814089933346,0.15504267084913886,236.31862591866889,0.05200625297365491
1403637142388318976,48.960925,580.7406857930847,9.340834125,-0.7681875833333334,-2.5660734166666663,-0.0027925268031909,0.0195476876223364,0.0795870138909414,0.03671325905237663,236.3464118780347,0.05945331877470039
1403637142888318976,48.682212,581.4973497911864,9.414383999999998,-0.7191543333333333,-2.557901208333333,0.0,0.0174532925199432,0.0781907504893459,0.05284196880182082,236.3845620187098,0.05269732324725851
1403637143388318976,38.612127,582.0661315831318,9.422556208333331,-0.6701210833333332,-2.4843513333333336,-0.0006981317007977,0.0223402144255274,0.0872664625997164,0.05324803905757786,236.39582934448833,0.035908184940296906
1403637143888318976,60.761214,581.6475362149909,9.422556208333331,-0.6456044583333332,-2.5415567916666664,0.0006981317007977,0.0111701072127637,0.0767944870877505,0.046381849425605616,236.38303975124612,-0.017858300850548403
1403637144388318976,45.442104,531.9235100274782,9.128356708333332,0.0653776666666666,-2.557901208333333,0.0970403064108847,0.0237364778271228,0.0495673507566389,0.18122019742218262,236.26170513128062,0.00659519681164511
1403637144888318976,46.056271,573.0680686369219,9.26728425,0.1307553333333333,-2.79489525,0.0041887902047863,0.0027925268031909,0.0628318530717958,0.06121542834479324,236.2134752104178,-0.06437565423118485
1403637145388318976,60.239553,582.017980692119,9.414383999999998,-1.0215260416666667,-2.476179125,0.0118682389135614,0.0376991118430775,0.0712094334813686,0.21742444513936643,236.35919292859717,-0.003917919936185399
1403637145888318976,39.356709,582.7662442337496,9.291800875,-0.8907707083333333,-2.50069575,-0.0020943951023931,0.0174532925199432,0.0851720674973232,0.05152309931820935,236.3051723018887,0.03171700956497148
1403637146388318976,50.076008,574.1928835958414,9.218251,-1.438308666666667,-2.231012875,-0.0390953752446729,0.0614355896702004,0.0747000919853573,0.18858173161513414,236.24616065544356,-0.294110340338932
1403637146888318976,51.237344,579.1013657905161,9.700411291666663,-0.6456044583333332,-2.6641399166666666,-0.0006981317007977,-0.0090757121103705,0.114493598930828,0.2292800309060131,236.34592966638363,-0.01906816298458125
1403637147388318976,50.157785,576.9571893773734,9.242767625,-0.612915625,-2.623278875,-0.0104719755119659,0.0607374579694026,0.0628318530717958,0.02737087849429699,236.34095960418753,-0.04835824802663069
1403637147888318976,60.436011,580.3284220678464,9.471589458333332,-0.7028099166666667,-2.549729,-0.0097738438111682,0.0349065850398865,0.0600393262686049,0.05323831982042475,236.37673757274396,0.008618790308560165
1403637148388318976,39.521456,580.0540047646211,10.386876791666666,-0.5066769166666666,-2.655967708333333,0.0307177948351002,0.0034906585039886,0.1165879940332212,0.06386238226788593,236.3730799090178,-0.0770552866719072
1403637148888318976,48.357249,570.9562992991895,8.77695175,-0.563882375,-2.1738074166666665,0.0356047167406843,-0.0670206432765822,0.0628318530717958,0.5043512270479166,236.83827763214552,0.0035124790710767684
1403637149388318976,60.622692,569.0782581519878,9.594172583333334,-0.8499096666666667,-2.8766173333333334,0.0062831853071795,-0.0390953752446729,0.0802851455917391,1.2916931402990823,238.02087125299266,0.1429944222239783
1403637149888318976,38.648367,260.5512889564,11.179581,0.1144109166666666,-2.378112625,-0.0809832772925368,-0.278554548618295,-0.122173047639603,17.69759660533757,251.97958442034948,3.556557813488496
1403637150388318976,55.540085,227.48368137436177,8.768779541666666,0.6047434166666666,-3.072750333333333,-0.007679448708775,0.3874630939427411,0.1480039205691191,175.62799348467368,237.96737769438846,-13.250419283675853
1403637150888318976,34.724713,390.568622488307,7.028099166666666,-0.5802267916666666,-2.018535458333333,-0.0230383461263251,0.2192133540504878,0.0551524043630208,212.2220871536921,146.18154637972503,-5.887506555892855
1403637151388318976,49.876451,689.1846598865346,10.558493166666668,0.2778550833333333,-4.028898708333333,0.1096066770252439,-0.104021623418862,0.3427826650916863,94.5195884414741,126.2012324484,-1.4060884638897875
1403637151888318976,50.238609,1180.5396179571917,9.422556208333331,0.0408610416666666,-2.655967708333333,-0.0111701072127637,0.0719075651821663,-0.0321140582366956,34.277557632637425,114.09105159347064,-0.7342634997491473
1403637152388318976,50.231695,1319.6513439131534,9.308145291666667,-0.0572054583333333,-3.67749375,-0.0174532925199432,-0.0139626340159546,0.0872664625997164,24.396787016343854,108.89738656720085,-0.48655951645183393
1403637152888318976,39.41226,1038.2507152461626,8.490924458333334,0.6537766666666667,-4.502886791666667,0.0167551608191455,0.0928515162060983,-0.0118682389135614,10.828452283660175,105.16844840917663,-0.5771161991574303
1403637153388318976,49.023628,1297.1944407245262,10.223432625,0.0,-4.053415333333333,0.0048869219055841,-0.0321140582366956,0.0446804288510548,19.67020266836451,102.87417070764384,-0.4552051062304088
1403637153888318976,34.429073,1088.8525978577586,8.000591958333333,-0.5883989999999999,-2.9583394166666666,-0.0565486677646162,0.0621337213709981,0.1137954672300302,16.10128167948286,98.37189754991951,-0.5739101117605259
1403637154388318976,61.919451,891.3646418163092,8.572646541666666,-0.3350605416666666,-2.557901208333333,-0.0677187749773799,0.1850049007113989,-0.1019272283164688,8.144373536477026,94.52328872217703,-0.5082462892612511
1403637154888318976,50.004483,724.6921314485988,9.618689208333333,0.5883989999999999,-4.36395925,-0.2478367537831947,-0.1200786525372098,0.0537561409614253,15.128089901421243,87.57561974499296,-0.7466270100064776
1403637155388318976,49.925089,597.0057702701191,11.343025166666669,0.0653776666666666,-4.0125542916666666,-0.1752310569002306,0.1382300767579508,0.210835773640915,25.53123073661499,86.61545820977977,0.8264165598435227
1403637155888318976,50.048351,579.8426710361894,9.831166624999998,0.4004382083333333,-2.79489525,-0.4314453910929983,0.0069813170079773,0.1591740277818828,20.575045332312765,89.05232618409242,-0.31201188840229577
1403637156388318976,38.314104,697.6169764719758,8.67888525,-0.34323275,-2.745862,-0.5592034923389831,0.0328121899374933,0.2611012560983517,20.669721058146692,84.7300747502284,-0.618603105469731
1403637156888318976,50.02594,694.6615355191516,9.863855458333331,-0.1797885833333333,-4.233203916666667,-0.2820452071222836,-0.1110029404268393,0.018151424220741,32.31484006357185,79.10737753382988,-0.7632832031614356
1403637157388318976,38.234949,1003.481647393667,10.713765125,-0.0735498749999999,-3.857282333333333,0.1494001839707146,0.0083775804095727,0.3134611336581816,32.33041106303247,70.91524434693366,-0.8954005095352784
1403637157888318976,49.916029,743.677623246554,8.368341333333333,0.0898942916666666,-2.40262925,-0.028623399732707,0.2261946710584651,-0.0907571211037051,46.934291471161586,59.786109897474894,-1.2684072238058022
1403637158388318976,60.836315,332.18816129060565,10.329671333333332,0.6701210833333332,-4.225031708333333,-0.2031563249321399,0.0432841654494593,0.2687807048071267,61.13838951694085,46.95583681961777,-1.188496154500065
1403637158888318976,60.529709,247.92778441099549,10.550320958333334,-0.5148491249999999,-3.505877375,-0.249931148885588,0.0062831853071795,0.057246799465414,67.62820573592892,34.9993618519067,-1.0052848403229788
1403637159388318976,65.577746,317.6524538375158,8.237585999999999,-0.4985047083333333,-2.0675687083333334,0.0586430628670094,0.075398223686155,0.0453785605518525,70.65102839880274,24.843101985178645,-0.9149481269328952
1403637159888318976,50.086499,202.92989343613544,7.853492208333332,-0.2778550833333333,-3.530394,-0.1996656664281513,-0.0747000919853573,0.1473057888683213,76.82206333443555,19.302693173615364,-0.21610929280513602
1403637160388318976,49.528838,168.11567431929822,9.896544291666666,-0.8253930416666666,-3.178989041666666,-0.6164502918043971,-0.0307177948351002,0.3127630019573839,78.09923920026938,22.800633281870454,0.6809471210123235
1403637160888318976,50.633907,475.3704861046564,9.471589458333332,-0.367749375,-3.3506054166666663,-0.2352703831688356,-0.0342084533390888,0.114493598930828,67.69895023660246,30.525626304779145,1.1878620270793476
1403637161388318976,47.348499,669.7598601857367,10.460426666666669,0.0081722083333333,-3.505877375,-0.0376991118430775,-0.0174532925199432,-0.0230383461263251,54.16391660129709,42.872271477656454,1.1994991862276692
1403637161888318976,50.093651,309.8387098454846,7.861664416666666,-0.2369940416666666,-2.6641399166666666,-0.1996656664281513,0.382576172037157,0.0523598775598298,75.58737401148777,54.32907536544139,0.5258151393920585
1403637162388318976,39.1078,475.1575177564613,8.711574083333332,-0.1879607916666666,-3.4813607499999994,0.1123992038284348,-0.1773254520026238,0.2848377339254746,59.09875748121761,65.28851392339891,0.8996313653894106
1403637162888318976,49.093485,370.2103675632756,8.18855275,0.1307553333333333,-2.6886565416666666,-0.486597795456019,0.1598721594826805,0.1061160185212552,70.1420472635427,68.35720115692145,0.5110008096775118
1403637163388318976,49.056768,344.78046304709187,7.518431666666666,-1.5363751666666667,-3.702010375,-0.635299847725936,0.007679448708775,0.3790855135331683,83.93448983676215,69.98219350584591,-0.13442099718228917
1403637163888318976,39.910316,426.0847677517901,10.403221208333331,0.2615106666666666,-4.192342875,-0.0335103216382911,0.0006981317007977,0.1857030324121966,84.27274269062823,69.97950665897848,-0.14778245052541195
1403637164388318976,60.101986,351.78577332361897,6.7502440833333335,-0.7191543333333333,-1.1686257916666667,0.0069813170079773,-0.0488692190558412,-0.0886627260013119,110.70790935925909,67.9301562493033,-0.3304687302485547
1403637164888318976,36.386252,257.72229522691265,10.288810291666666,-1.5527195833333332,-3.023717083333333,-0.2387610416728242,0.0370009801422797,-0.0383972435438752,127.75607930777153,69.24897401407445,0.24834614034762126
1403637165388318976,38.964748,178.53711356484655,10.149882749999998,-1.0705592916666666,-3.4486719166666666,-0.4237659423842232,-0.2303834612632515,0.1682497398922533,134.83168216136133,75.70092919079198,0.8337494001620058
1403637165888318976,49.287081,195.57648679650472,7.224232166666667,0.2778550833333333,-2.745862,-0.007679448708775,0.0607374579694026,-0.1787217154042193,122.034071479638,86.56256837228355,1.2060703736501637
1403637166388318976,49.986363,160.6208859883973,8.278447041666666,-0.1062387083333333,-3.8164212916666655,0.2743657584135086,0.7609635538695276,0.171740398396242,83.85368560678418,101.08597297959076,1.4069996758180991
1403637166888318976,50.104379,179.68612162259856,10.002783,-0.8580818749999999,-2.745862,-0.025830872929516,0.0488692190558412,-0.2631956512007449,46.25860718993533,111.97004476539239,0.8300612277890878
1403637167388318976,49.415111,162.56248846149734,7.453054,-0.3105439166666667,-1.7570247916666666,0.0788888821901436,-0.2436479635784084,0.3134611336581816,17.380734861563752,111.19086896765917,-0.7510847074001106
1403637167888318976,49.893141,163.06519746562324,10.583009791666663,0.4249548333333333,-3.113611375,0.2101376419401172,-0.1487020522699168,-0.0684169066781777,77.75491968324621,102.82339968284784,-0.8317460453978498
1403637168388318976,39.43491,266.9969766430989,8.629852,0.9479761666666666,-1.9776744166666664,0.0328121899374933,0.4091051766674708,-0.0767944870877505,96.28673760165553,87.68612180432763,-0.8012541572662286
1403637168888318976,49.970865,321.7276832688478,8.302963666666667,1.046042666666667,-2.999200458333333,-0.0998328332140756,-0.0774926187885482,-0.0977384381116824,96.65966302626082,80.38433159866423,-0.7437405212963881
1403637169388318976,44.429303,280.10003633898924,11.056997875,0.1470997499999999,-4.2168595,0.4921828490624009,0.1333431548523667,-0.0684169066781777,102.4749871872609,74.59071319360395,-0.5400585132731095
1403637169888318976,39.16049,331.07977892280337,7.093476833333334,-0.8662540833333333,-2.79489525,0.5305800926062761,0.1975712713257581,-0.1989675347273535,118.3120616929167,66.03950862307647,-0.3179738864970716
1403637170388318976,45.11261,242.04143800142091,8.409202375,0.8417374583333332,-2.280046125,0.6855653301833726,0.0921533845053006,0.2708750999095199,135.68796169367272,63.244069884642364,-0.11785652739898467
1403637170888318976,39.327383,405.7701405059015,10.24794925,0.956148375,-2.9256505833333333,0.8063421144213804,-0.0202458193231342,-0.0397935069454707,143.53534901902887,61.2234475185239,-0.7795151626850298
1403637171388318976,38.971662,180.57451241058004,11.089686708333334,1.9041245416666663,-4.143309625,0.1410226035611418,0.0719075651821663,-0.1514945790731078,111.57463607236234,49.47333720636233,-1.5875944543801168
1403637171888318976,50.164938,307.5900985224575,8.572646541666666,0.6701210833333332,-2.557901208333333,-0.0893608577021096,0.0293215314335047,0.1410226035611418,109.80255650385229,23.31019644064451,-1.812031356191845
1403637172388318976,38.798094,142.11117752479674,11.040653458333331,0.5475379583333333,-3.415983083333333,0.0537561409614253,-0.208043246837724,0.4572762640225143,115.62880581778678,17.9457200209185,-0.3010193976109825
1403637172888318976,60.538769,87.116924056412,7.665531416666666,0.9234595416666666,-1.1195925416666666,-0.2659881780039358,-0.4970697709679851,0.1494001839707146,102.25966883627191,28.511869630098897,0.6665868368048002
1403637173388318976,35.371542,113.96385493588434,9.054806833333332,0.661948875,-1.9531577916666665,-0.4440117617073574,0.3546509040052477,0.3225368457685521,71.16369948545058,32.703212394222156,0.7650189907230676
1403637173888318976,49.932242,82.54021335447347,11.293991916666666,0.2288218333333333,-4.16782625,-0.4000294645571003,-0.3085742117525974,0.0788888821901436,27.121699922379626,37.67319005963877,0.3480826549091205
1403637174388318976,49.767971,166.89854198984813,10.166227166666664,-1.0705592916666666,-3.571255041666667,0.0670206432765822,0.2150245638457014,0.2722713633111154,45.77898212583061,35.84497891558896,-0.2629986706622347
1403637174888318976,61.781883,159.45540948501218,10.370532375,-0.44129925,-3.538566208333333,-0.5857324969692971,-0.189891822616983,0.268082573106329,65.98071855442574,39.58202738515685,0.3524218601788007
1403637175388318976,49.232244,197.81288266761177,8.319308083333333,-0.7927042083333332,-2.30456275,-0.0607374579694026,0.1075122819228507,0.1850049007113989,76.91052009559834,46.934662720792645,1.2594630480152276
1403637175888318976,39.773226,180.6838891266009,9.299973083333333,-1.1767979999999998,-3.571255041666667,-0.08307767239493,0.0048869219055841,-0.2631956512007449,91.7807711561743,61.248903104336584,1.9200483651253464
1403637176388318976,49.89171,468.4749495746563,7.453054,-0.4331270416666666,-2.288218333333333,-0.0872664625997164,-0.0865683308989187,0.0314159265358979,107.06856944417333,83.37541257674576,2.5568548752403757
1403637176888318976,51.621437,436.3474315665683,7.690048041666667,0.416782625,-2.2555295,-0.1207767842380075,-0.1172861257340189,0.0635299847725936,113.52729032441738,111.29324657601659,2.800186746892493
1403637177388318976,65.113306,478.52435281302536,9.782133375,-0.318716125,-2.745862,-0.0663225115757845,-0.0404916386462684,-0.0300196631343024,120.65763466610542,137.8938368880626,2.6137906076550053
1403637177888318976,45.802117,404.96654194624006,8.38468575,0.3840937916666667,-1.7488525833333333,-0.296705972839036,0.1549852375770964,0.2534218073895766,114.23336342943517,159.86099194640218,1.6942991067571143
1403637178388318976,49.837589,368.4472781089476,10.002783,-0.0408610416666666,-4.4211647083333325,-0.2555162024919699,0.1787217154042193,-0.0621337213709981,76.88270025268778,164.43201868988746,-0.4191248211302536
1403637178888318976,39.074182,290.22828174328384,8.253930416666666,-0.0572054583333333,-2.7213453750000003,0.1577777643802873,0.1870992958137921,0.4733332931408622,28.034407970761066,154.05981338434088,-1.3554362425851423
1403637179388318976,49.989938,585.4857377850159,10.378704583333333,0.367749375,-4.584608875,0.0167551608191455,0.0139626340159546,-0.064926248174189,43.57247774130715,147.35536078966834,-1.1566778405668288
1403637179888318976,60.520172,551.3895004767425,7.951558708333333,-0.8253930416666666,-2.811239666666667,-0.1654572130890624,0.0788888821901436,-0.2541199390903744,56.73627273429235,136.45116778265913,-1.05048329533264
1403637180388318976,49.849272,300.41330523422846,9.978266375,0.196133,-3.718354791666666,0.0537561409614253,-0.3351032163829112,0.210835773640915,81.97255859675114,126.48776444687965,-1.1544910369914874
1403637180888318976,48.411608,503.0171364908987,6.905516041666667,0.4331270416666666,-3.6284605,-0.1542871058762987,0.122173047639603,-0.268082573106329,81.36565881748957,110.84170806162352,-1.2372423480076833
1403637181388318976,49.84212,303.188435864997,10.256121458333332,0.220649625,-3.195333458333333,-0.0509636141582344,0.0844739357965255,0.0251327412287183,111.09677268080954,98.05284219992527,-1.277747206188451
1403637181888318976,39.135933,331.6408284821728,8.253930416666666,0.5148491249999999,-2.2555295,0.0,0.0349065850398865,0.1549852375770964,125.68136169912447,87.74491851228196,-0.7211668247217347
1403637182388318976,59.995175,274.6269784765789,8.981256958333333,0.93163175,-2.549729,0.161268422884276,0.2778564169174973,0.2317797246648469,123.10617206650345,79.37018143989998,-0.7606327767454388
1403637182888318976,60.982466,416.33579336596665,8.932223708333334,0.6701210833333332,-2.623278875,0.0397935069454707,-0.028623399732707,0.2345722514680378,108.72618989687189,71.7012654727474,-0.9372807656511384
1403637183388318976,51.698208,556.9810211841695,9.896544291666666,0.809048625,-3.4731885416666666,-0.0300196631343024,0.0907571211037051,0.046774823953448,85.22322397902512,61.64063592624635,-0.9007743283966434
1403637183888318976,49.052477,494.2962626956256,9.814822208333332,0.7600153749999999,-2.745862,0.0083775804095727,-0.1570796326794896,0.2415535684760151,58.88748367907931,53.03563758546057,-0.9929644237117969
1403637184388318976,39.255142,438.3759830718038,8.360169125,-0.5475379583333333,-2.1983240416666665,-0.1417207352619395,-0.0356047167406843,-0.3197443189653611,39.85216605149808,40.64018474609847,-1.7190073675522513
1403637195688318976,49.399137,297.01391125843026,10.174399375,0.2369940416666666,-4.445681333333333,0.0733038285837618,-0.0020943951023931,-0.0537561409614253,951.472767541825,157.42359250666829,-0.7693730053337902
1403637196188318976,49.779653,221.50674144841005,8.981256958333333,-0.5965712083333333,-3.1299557916666663,-0.0963421747100869,0.3064798166502042,-0.1710422666954443,55.23886149582894,147.6896764835456,-1.0739148687838167
1403637196688318976,39.121866,297.493820319647,10.256121458333332,0.4004382083333333,-4.4701979583333324,0.0579449311662117,0.0404916386462684,0.2373647782712288,81.74832226956514,135.29543999253036,-1.445216851367661
1403637197188318976,65.307617,245.4129991365417,10.149882749999998,0.809048625,-1.887780125,0.4049163864626844,-0.0139626340159546,0.1123992038284348,116.20326806751832,119.78289106922253,-1.683152267779903
1403637202838319104,50.660371,905.679103787462,8.7279185,0.0735498749999999,-1.9204689583333328,-0.0872664625997164,0.0342084533390888,-0.1619665545850737,511.5534327778241,45.73426692671629,-0.43083099271149905
1403637203338319104,50.109148,968.6844678178916,8.989429166666666,-0.5475379583333333,-3.930832208333333,-0.0062831853071795,0.0307177948351002,0.1123992038284348,42.290067074570736,41.517259728594965,-0.35361980747977384
1403637203838319104,33.549309,696.2489738475178,9.765788958333331,0.9152873333333332,-3.342433208333333,0.0048869219055841,0.0321140582366956,0.0488692190558412,33.23435028653965,37.04593134547759,-0.28331707685837415
1403637204338319104,50.16923,496.9512763241091,10.877209291666668,-0.0898942916666666,-4.020726499999999,-0.0321140582366956,0.0097738438111682,0.1556833692778942,23.399877519726004,36.92606169380632,1.2441285118491692
1403637204838319104,49.78466,400.6167831142217,9.210078791666666,0.24516625,-2.231012875,-0.0642281164733913,-0.0502654824574366,-0.0272271363311115,11.069944222438318,38.20341358758884,0.2260726734755707
1403637205338319104,33.968926,371.4416498245048,10.918070333333333,0.2941994999999999,-3.138128,0.1207767842380075,-0.0153588974175501,0.0237364778271228,6.113672508114107,41.233874644554305,0.09203079594743713
1403637205838319104,39.295674,475.0163301857768,9.496106083333332,1.12776475,-3.947176625,0.0314159265358979,0.0740019602845595,0.122173047639603,5.53251915972521,42.30755432920085,0.1139823335964607
1403637206338319104,50.587416,511.51516901018056,10.272465875,0.63743225,-2.124774166666666,0.0209439510239319,0.0314159265358979,0.036302848441482,11.210658229666523,44.89278321055554,0.2881533576271167
1403637206838319104,50.73142,578.7888309731152,9.046634625,0.2369940416666666,-2.8847895416666667,-0.0342084533390888,0.0809832772925368,0.0293215314335047,10.21729548521263,46.95836413301894,0.22212613456706265
1403637207338319104,50.125837,586.516162807376,7.730909083333333,0.4004382083333333,-4.788914083333333,0.025830872929516,0.0691150383789754,0.122173047639603,8.677198420163613,50.193205755014304,0.2560955727872454
1403637207838319104,49.936533,448.0812185267155,10.893553708333332,0.465815875,-3.8899711666666654,-0.0677187749773799,0.1005309649148733,-0.0020943951023931,12.712281682475842,53.48301814759,0.43125452195732805
1403637208338319104,46.40913,465.6572783369199,8.768779541666666,0.171616375,-2.1411185833333333,0.0404916386462684,0.0977384381116824,0.2345722514680378,8.713444142578474,54.98573338683141,0.31596889019604646
1403637208838319104,61.151981,519.7740469666281,7.297782041666666,0.1062387083333333,-2.50069575,-0.0593411945678072,0.0272271363311115,-0.046774823953448,2.448814012769862,56.50846868715051,0.17313643451769423
1403637209338319104,50.191879,342.66389361021044,9.545139333333331,0.122583125,-4.4701979583333324,0.2911209192326541,-0.0383972435438752,0.0586430628670094,14.086504135758101,58.375719768290594,0.3278222958439869
1403637209838319104,44.93475,595.6301669762281,8.425546791666665,0.3759215833333333,-3.1544724166666662,0.0397935069454707,-0.064926248174189,0.1075122819228507,15.591528337852417,59.576195134353085,0.08981858155858902
1403637210338319104,49.29471,656.897633184016,10.027299625,0.1797885833333333,-3.138128,0.0516617458590321,0.0055850536063818,0.200363798128949,22.500460670100427,54.6322635992423,-0.34539262781725455
1403637210838319104,39.412737,737.266384891955,8.744262916666667,-0.4903325,-3.4486719166666666,0.057246799465414,0.1424188669627373,0.2799508120198904,43.971534525978086,45.84107586348525,-0.794574602191318
1403637211338319104,48.952579,727.6238746785746,11.318508541666665,-0.83356525,-4.1024485833333335,-0.0642281164733913,0.2045525883337354,0.0488692190558412,38.574750236208146,35.88091702977497,-0.95191822626321
1403637211838319104,50.582409,752.3288650991158,10.909898125,0.2369940416666666,-2.8357562916666668,0.1082104136236484,-0.1123992038284348,0.3295181627765294,20.1271406304076,27.85793267509077,-0.536390130962026
1403637212338319104,39.563418,703.761115349272,9.536967125,0.8172208333333333,-4.519231208333333,-0.0097738438111682,0.1375319450571531,0.0635299847725936,43.72023338332633,26.500942531323883,0.3791130140860517
1403637212838319104,59.157371,720.1512652614293,9.970094166666666,-0.5311935416666667,-2.018535458333333,-0.0642281164733913,-0.0760963553869527,-0.0432841654494593,47.63631537764978,34.33094916023079,0.9382548072707166
1403637213338319104,49.821377,677.1488006213876,8.450063416666666,0.3759215833333333,-2.6641399166666666,0.0069813170079773,0.0879645943005142,0.0872664625997164,54.72651274713209,45.73514668593715,1.2329785175725192
1403637213838319104,50.477743,740.519163680508,8.629852,0.024516625,-4.993219291666667,-0.0453785605518525,-0.0174532925199432,-0.0293215314335047,39.13386998236747,58.058162448669535,0.9607755207731898
1403637214338319104,60.462952,490.3439122225177,8.67888525,0.318716125,-4.0125542916666666,0.3818780403363593,0.1584758960810851,-0.1877974275145898,37.423718527198616,69.95515337917844,1.5070949789722476
1403637214838319104,50.218105,595.5379715069356,7.559292708333333,-0.4004382083333333,-3.2443667083333327,0.1850049007113989,0.0516617458590321,-0.025830872929516,49.07100519133488,81.52265471501319,0.9095396873226917
1403637215338319104,49.191236,521.9084097289807,8.850501625,0.220649625,-2.0267076666666664,0.189891822616983,0.1165879940332212,0.1996656664281513,60.595946994923075,86.4253417303687,0.1974682676284658
1403637215838319104,36.786556,305.017632533662,9.545139333333331,-0.34323275,-3.28522775,0.5557128338349946,-0.2743657584135086,0.0411897703470661,81.789733746563,87.39449930286948,0.017398992699767746
1403637216338319104,57.606697,446.2567329592936,9.283628666666663,-0.5230213333333333,-2.508867958333333,0.1235693110411985,0.1912880860185785,0.0551524043630208,92.07675903126753,88.24279499709017,0.04839948165655983
1403637216838319104,50.64559,543.1893077837102,9.798477791666668,0.3268883333333333,-3.8245935,-0.1005309649148733,0.1563815009786919,0.0272271363311115,82.52153391201387,86.96209887863489,-0.18082661680952583
1403637217338319104,36.010027,598.200848394313,8.302963666666667,0.1144109166666666,-3.023717083333333,-0.0160570291183478,-0.0397935069454707,0.2478367537831947,67.96090005833446,84.64371859676596,-0.4155406523783398
1403637217838319104,50.296783,373.7524818148637,10.958931375,0.3595771666666666,-3.8409379166666655,0.4167846253762458,-0.0230383461263251,-0.4488986836129415,48.864440831535525,77.53449112200693,-0.7860673868377859
1403637218338319104,50.866127,435.56573990652566,8.368341333333333,0.2124774166666666,-2.941995,0.0265290046303138,-0.0223402144255274,-0.0425860337486616,43.40949515066042,66.81975689416487,-1.1517309352639273
1403637218838319104,58.634281,411.57880825285446,9.373522958333332,0.5148491249999999,-3.015544875,-0.0914552528045028,-0.0691150383789754,-0.0244346095279206,69.40172285715605,55.78933749506869,-0.9629405095761285
1403637219338319104,60.337543,678.2058988987327,10.141710541666669,-0.0653776666666666,-2.9338227916666666,-0.0223402144255274,-0.0251327412287183,0.1452113937659282,88.43187153761087,44.62024312919144,-1.1661303414317956
1403637219838319104,39.623738,957.049558987602,8.049625208333332,-0.3268883333333333,-3.3996386666666667,0.025830872929516,0.1054178868204575,0.0879645943005142,82.75430187797902,40.97573568972843,0.08841888214659832
1403637220338319104,49.321413,672.9559964153583,8.752435125,0.269682875,-3.57942725,0.0886627260013119,0.2813470754214859,0.314857397059777,84.17125021508099,46.499154499415496,0.8356948784583835
1403637220838319104,60.705662,1011.7605083055996,8.065969625,0.6782932916666666,-2.966511625,-0.0418879020478639,-0.0523598775598298,0.0551524043630208,75.05918307862581,54.65994188517194,0.7449647622170588
1403637221338319104,39.374352,1651.7912314695088,8.548129916666667,0.367749375,-1.96133,-0.2324778563656447,0.0209439510239319,0.2038544566329376,61.9643092958447,61.50601793043459,0.6072643408235123
1403637221838319104,55.283069,2188.110946954416,8.564474333333333,0.8662540833333333,-2.5905900416666663,-0.1158898623324234,0.0048869219055841,0.2164208272472968,53.54802311903251,64.80058387806918,0.18236845079803743
1403637222338319104,52.088975,2332.131374372339,8.915879291666666,0.53936575,-2.280046125,-0.3022910264454179,0.2150245638457014,0.2436479635784084,46.13313658525487,64.363344301289,-0.07561490697048612
1403637222838319104,38.779973,1433.4645456136618,10.926242541666667,0.661948875,-3.489532958333333,-0.0118682389135614,-0.2024581932313422,0.075398223686155,29.722978351802094,64.20195257302129,0.04177045889056785
1403637223338319104,61.209679,1088.204230090425,10.681076291666663,0.2615106666666666,-3.015544875,0.0356047167406843,0.2869321290278678,0.0188495559215387,6.359458545490273,67.03155715894849,0.301725784084212
1403637223838319104,50.848008,2274.709218147661,8.932223708333334,-0.0653776666666666,-3.407810875,-0.0174532925199432,0.085870199198121,0.0460766922526503,26.291415273786274,69.39843066133,0.12015049494181085
1403637224338319104,62.870264,2706.490561655072,9.814822208333332,0.34323275,-2.950167208333333,0.0153588974175501,0.0279252680319092,0.0802851455917391,5.175332150422575,69.4129812163419,-0.05826207217184276
1403637224838319104,49.42441,2829.909087248749,9.692239083333332,-0.04903325,-4.690847583333333,-0.0160570291183478,0.0230383461263251,0.0139626340159546,10.84402447130188,68.81627765591631,0.06985471675068311
1403637225338319104,38.939476,2393.8143476830987,10.158054958333333,-0.5148491249999999,-3.5957716666666664,-0.0397935069454707,0.046774823953448,0.0760963553869527,13.092227125274292,68.16717591885195,-0.08888390023551551
1403637225838319104,48.889875,2584.0343011051173,11.310336333333332,0.3268883333333333,-3.6448049166666654,0.0216420827247296,-0.0670206432765822,0.1375319450571531,10.924758890574141,70.00248066353029,0.4207641290532109
1403637226338319104,49.977302,2230.416694044869,7.191543333333333,0.8907707083333333,-3.554910625,0.0048869219055841,-0.1905899543177807,0.0069813170079773,21.183918338660824,74.44052524289661,0.3909034800457931
1403637226838319104,59.903145,2549.985892233564,8.940395916666665,-0.7763597916666666,-3.710182583333333,-0.0013962634015954,0.007679448708775,0.1452113937659282,22.66138998626957,78.33729175622788,0.4791444603472428
1403637227338319104,67.208767,2822.758912260241,9.022118,0.0163444166666666,-3.587599458333333,-0.1193805208364121,0.0621337213709981,-0.0684169066781777,23.034222978257443,83.14421440006844,0.31890916215535015
1403637227838319104,50.253153,2625.122882036783,9.062979041666669,-0.4576436666666666,-4.053415333333333,0.0041887902047863,0.1996656664281513,-0.0069813170079773,11.496019071995791,85.16036498177458,0.003041427676791386
1403637228338319104,50.451756,2776.2601513869577,10.133538333333334,0.6047434166666666,-3.759215833333333,0.0132645023151569,-0.0209439510239319,-0.0314159265358979,6.994965531371255,85.09711916524607,0.048561170279654675
1403637228838319104,50.399542,2320.9704345816635,9.161045541666669,-0.93163175,-3.652977125,0.0202458193231342,-0.200363798128949,0.208043246837724,7.970278634788097,86.72475617554706,0.23311608098079262
1403637229338319104,33.277512,1815.965124531858,9.422556208333331,0.3023717083333333,-4.143309625,-0.1473057888683213,-0.0139626340159546,0.2345722514680378,11.443176730201436,88.16319085165959,0.15590337729081227
1403637229838319104,50.032139,533.5262110725808,9.291800875,0.1552719583333333,-3.1463002083333333,-0.7407177345463933,0.3141592653589793,-0.0272271363311115,19.05184021741547,89.88791690177467,-0.10024842380764198
1403637230338319104,39.673567,1895.516320397104,10.288810291666666,0.3840937916666667,-3.57942725,-0.228987197861656,0.122173047639603,0.1473057888683213,15.30570158367364,88.92869233053469,0.044082198292556996
1403637230838319104,60.085297,954.9668609488588,8.695229666666666,0.0,-2.3862848333333333,-0.476125819944053,-0.3546509040052477,0.3769911184307752,12.032445916814948,89.88673874151573,0.18774685815348846
1403637231338319104,60.826778,655.2993288720769,6.676694208333332,0.980665,-1.936813375,-0.8398524360596713,0.1340412865531645,0.4670501078336825,10.423752301685168,90.07406046065589,0.10135266592929781
1403637231838319104,65.509319,519.5832581839238,11.637224666666668,-0.269682875,-4.633642125,-0.7463027881527753,-0.0418879020478639,0.3441789284932817,39.19904785093065,86.79729546303179,-0.4607619602283677
1403637232338319104,66.274881,448.3083264589268,8.866846041666665,-0.3840937916666667,-2.999200458333333,-0.5738642580557356,0.2024581932313422,0.0237364778271228,36.485751262635645,77.20190060188922,-0.7346133500060432
1403637232838319104,49.721956,450.953423196357,10.370532375,-0.04903325,-4.772569666666667,-0.4356341812977846,-0.2764601535159017,0.2722713633111154,50.67805252216603,72.59635261020908,-0.5830238996978778
1403637233338319104,49.690008,739.153554669694,8.09048625,1.4709975,-3.636632708333333,0.0216420827247296,-0.2408554367752175,0.0090757121103705,69.57879677355061,82.45702630841704,0.17504464890168947
1403637233838319104,60.232401,422.4426794634296,8.360169125,0.0735498749999999,-4.388475875,-0.1375319450571531,0.2645919146023404,-0.2527236756887789,79.55496110119721,66.18146044909658,-0.4900071385335991
1403637234338319104,50.699234,326.2780763334811,10.239777041666668,0.8417374583333332,-4.028898708333333,0.0614355896702004,0.1724385300970397,0.4293509959906051,21.452174511895112,56.27958353057786,-0.9009507509607815
1403637234838319104,64.780474,309.82812798552965,10.354187958333334,0.6946377083333333,-4.641814333333333,0.4914847173616032,-0.0356047167406843,0.3043854215478111,94.05444521568039,49.37859591397775,-0.3888291279460816
1403637235338319104,49.156428,342.63213441110315,10.24794925,0.7681875833333334,-3.702010375,0.2694788365079245,-0.2883283924294632,0.0558505360638185,106.77284830414541,51.676102378780065,0.18209407709086634
1403637235838319104,38.66601,326.6659985266523,9.700411291666663,0.2533384583333333,-3.726527,0.2213077491528809,0.3658210112180114,-0.400727596257898,95.85372005962644,55.80105280563904,0.3111990038292092
1403637236338319104,41.392564,403.0156966360658,10.525804333333332,0.9888372083333332,-3.407810875,0.4516912104161324,0.0998328332140756,-0.0328121899374933,118.9984638122037,58.56937437288501,-0.07688999262484941
1403637236838319104,50.047159,289.74467209995146,9.643205833333331,0.4086104166666666,-3.8409379166666655,0.3658210112180114,0.3001966313430246,0.1096066770252439,154.07463874264013,56.89255742290131,-0.1368950502492723
1403637237338319104,58.760643,589.285654913144,9.422556208333331,0.1307553333333333,-4.298581583333333,0.3155555287605747,-0.0970403064108847,0.1598721594826805,162.72382451559133,52.72626873510138,-0.3580075170534798
1403637237838319104,38.742304,875.6059378715269,8.654368624999998,0.8580818749999999,-3.1463002083333333,0.0006981317007977,-0.1731366617978375,0.3693116697220001,157.27612493982477,42.635293259075574,-1.1269680549489394
1403637238338319104,45.353413,580.8274203967756,9.716755708333332,0.34323275,-2.034879875,-0.668810169364227,0.0244346095279206,0.5976007358828584,125.14490473667992,23.152842130571976,-1.330096731329224
1403637242938319104,49.458027,238.8110106101074,9.733100125,0.2615106666666666,-4.200515083333333,0.2359685148696333,0.1368338133563554,0.0656243798749867,869.5253428579582,56.587558342227716,0.015027221182428718
1403637243438319104,49.35956,294.23394474024747,7.755425708333333,-0.1797885833333333,-3.693838166666666,-0.0034906585039886,-0.0356047167406843,0.0642281164733913,65.58152003572353,57.22091210590139,-0.29768485651469945
1403637243938319104,50.022602,303.0634425514183,9.471589458333332,0.7191543333333333,-3.08909475,0.0090757121103705,-0.0453785605518525,0.2981022362406315,87.06894167187552,52.40845770350252,-0.428771083911883
1403637244438319104,50.894499,510.8022867144024,10.272465875,0.2124774166666666,-3.669321541666666,0.0607374579694026,-0.1445132620651305,0.0020943951023931,78.80165623699163,49.50176498756218,-0.3676022933186758
1403637244938319104,61.502695,357.36949692140854,8.368341333333333,0.1470997499999999,-3.0564059166666664,0.1989675347273535,-0.0963421747100869,0.1668534764906579,70.305745254603,51.44656426415462,0.1858151250707536
1403637245438319104,49.757004,552.9627061857898,9.112012291666666,1.1359369583333332,-4.8216029166666665,0.0293215314335047,0.0551524043630208,-0.0809832772925368,66.74924889569246,55.15944355849417,0.6316982032205871
1403637245938319104,49.461126,341.96501892510435,12.838539291666663,-0.3023717083333333,-4.404820291666666,0.6450736915371043,0.1487020522699168,-0.1542871058762987,66.10714535227024,62.98399021202691,0.9079927954127811
1403637246438319104,49.178124,363.25875126803527,7.698220249999999,0.784532,-3.489532958333333,0.8915141819187036,0.1961750079241626,-0.4551818689201211,65.54530883166485,71.78438524513328,0.9657377480489657
1403637246938319104,55.099726,352.6724766498775,10.844520458333331,0.024516625,-3.170816833333333,0.6583381938522611,-0.2736676267127109,-0.1850049007113989,54.487964491166274,76.47555979277556,0.48833341257947893
1403637247438319104,49.67761,406.6096936031395,7.338643083333332,0.5230213333333333,-3.2035056666666666,0.0139626340159546,0.4593706591249075,0.1836086373098034,49.85166492782734,75.07250610049206,-0.33851791427191813
1403637247938319104,59.976339,514.9379335317766,10.207088208333332,0.8580818749999999,-3.219850083333333,0.3909537524467298,0.2611012560983517,0.1975712713257581,59.93379553741225,67.61226837879045,-0.5378044333932195
1403637248438319104,62.372207,479.7135402076683,7.878008833333333,0.7109821249999999,-3.015544875,0.0837758040957278,0.1193805208364121,0.0523598775598298,78.42611243522587,56.46994553108179,-1.2411627139515815
1403637250538319104,49.188614,327.07841619500493,8.87501825,-0.0653776666666666,-3.1054391666666663,0.0740019602845595,-0.018151424220741,0.1968731396249603,421.7979742197351,15.332529141466688,1.5770442100036668
1403637251038319104,50.025701,910.137963326986,10.934414749999998,-0.0326888333333333,-3.28522775,0.0900589894029074,-0.0335103216382911,0.0977384381116824,77.78318990452708,30.461049257589394,1.7422353346979946
1403637251538319104,55.08256,734.5416158741866,8.262102624999999,0.196133,-2.9174783749999995,0.2841396022246769,0.0537561409614253,-0.0900589894029074,57.74807093589763,39.736805687494495,0.7392260155384278
1403637252038319104,38.297891,1065.674464340628,11.269475291666666,-0.196133,-3.963521041666666,0.0565486677646162,0.1633628179866692,-0.0502654824574366,37.70862469646746,44.78326139637625,0.3862682567390152
1403637252538319104,65.755606,1029.7949882029936,8.956740333333332,-0.73549875,-2.30456275,-0.0202458193231342,-0.1521927107739055,0.122173047639603,23.729779595164775,47.97775015695229,0.29764130249336773
1403637253038319104,49.306393,1134.0718810263045,10.076332875,-0.5557101666666666,-5.311935416666666,-0.0670206432765822,0.0272271363311115,-0.0335103216382911,17.416631010869413,50.28297889903863,0.1647556654731943
1403637253538319104,39.30521,1224.7876425885063,9.9047165,0.0163444166666666,-3.857282333333333,-0.0104719755119659,0.1068141502220529,0.1172861257340189,5.744930595593446,51.26349105758361,0.013986240662632099
1403637254038319104,55.577039,964.3430525647304,9.945577541666664,0.7436709583333333,-3.4731885416666666,-0.0202458193231342,0.2282890661608583,0.0516617458590321,5.622959248707505,51.614777541625614,0.05776164015320262
1403637254538319104,44.852734,1000.31573535417,8.433719,0.53936575,-3.6448049166666654,0.1521927107739055,-0.0691150383789754,0.064926248174189,9.277158950289511,53.52315695049212,0.22167527538223908
1403637255038319104,38.36155,1173.5506192256216,7.608325958333333,0.4821602916666666,-4.118792999999999,0.036302848441482,0.0760963553869527,-0.0055850536063818,13.734582944792948,55.89091334700499,0.2505174700879209
1403637255538319104,49.326419,867.4910298570196,10.533976541666666,0.7191543333333333,-2.827584083333333,0.2883283924294632,0.0237364778271228,-0.0530580092606276,18.44527818477994,59.646428329410696,0.30227778433076224
1403637256038319104,73.407174,720.3669824687541,7.828975583333331,0.1307553333333333,-1.9776744166666664,0.1947787445225671,0.0118682389135614,-0.0733038285837618,25.37790547711985,63.47000025029585,0.40564403730074616
1403637256538319104,39.438724,976.689627651715,9.1201845,1.005181625,-3.162644625,-0.0048869219055841,0.0914552528045028,0.064926248174189,32.79479764638067,68.37701812266378,0.5422537079466281
1403637257038319104,50.029278,773.6244507084534,10.452254458333334,0.8907707083333333,-3.571255041666667,0.1284562329467826,0.0942477796076938,-0.1165879940332212,40.05152367864368,74.35161720578988,0.542847486857923
1403637257538319104,49.638748,876.8372199621235,10.019127416666668,0.1389275416666666,-3.415983083333333,0.0823795406941323,-0.0998328332140756,0.0698131700797731,35.53600685113458,79.24848813383062,0.50852393049027
1403637258038319104,50.153256,596.0314680877142,8.948568125,0.220649625,-2.4516625,0.3050835532486088,-0.046774823953448,0.0321140582366956,40.83684807593253,84.96807790479463,0.6517683905700693
1403637258538319104,50.276994,381.0845743612175,10.852692666666666,-0.1797885833333333,-3.87362675,0.1494001839707146,-0.1340412865531645,0.1891936909161853,41.07798172275379,91.8360918384011,0.6758095987372883
1403637259038319104,48.385859,583.6613552597106,10.476771083333333,0.0408610416666666,-3.554910625,-0.0411897703470661,0.0153588974175501,0.2101376419401172,35.23514426001883,97.5519203384797,0.5572485150149618
1403637259538319104,49.829483,702.4387081280286,7.812631166666666,-0.2369940416666666,-2.40262925,0.0,-0.0034906585039886,0.1291543646475804,25.536359675608928,101.53128736300714,-0.23776501524790206
1403637260038319104,51.056147,907.104162495724,8.793296166666666,-0.0326888333333333,-2.868445125,-0.0321140582366956,0.018151424220741,-0.0041887902047863,9.532510119463014,101.6597357154998,-0.0963710668327451
1403637260538319104,43.162823,368.292012652897,8.294791458333332,0.34323275,-3.08909475,0.0188495559215387,-0.3085742117525974,0.1424188669627373,14.603838079717116,99.21539058428654,-0.1294758353931087
1403637261038319104,58.079243,496.78815409790695,8.834157208333334,0.0898942916666666,-4.257720541666666,0.0300196631343024,-0.0872664625997164,0.1033234917180643,28.78651163294329,90.36943352238124,0.0299910636840508
1403637261538319104,49.662113,407.0130958223649,8.695229666666666,-0.6292600416666666,-1.7325081666666666,-0.0118682389135614,-0.1829105056090057,0.0907571211037051,22.732463840165792,86.19441082091556,-0.27193795338791915
1403637262038319104,50.334454,712.7291887335109,8.065969625,-0.6782932916666666,-2.3209071666666663,0.0069813170079773,0.2010619298297467,0.1375319450571531,10.836700772480613,87.46144232092735,0.18084732455221797
1403637262538319104,58.928967,319.219277710119,17.423148166666664,-1.5527195833333332,-5.074941374999999,-0.3364994797845067,0.5745623897565333,-0.1654572130890624,8.485585956493127,85.92426612706518,-0.1977049308632104
1403637263038319104,49.237013,715.4073597087778,10.517632125,-0.6946377083333333,-2.754034208333333,-0.0474729556542457,-0.0104719755119659,0.0349065850398865,0.358484786498775,85.71897683396095,-0.03238661630548734
1403637263538319104,50.410032,745.8733677508862,9.144701125,-0.2124774166666666,-2.3862848333333333,-0.0034906585039886,0.0153588974175501,0.0865683308989187,0.05475448195548393,85.70998661528314,0.01670606688155374
1403637264038319104,49.955129,744.5863157285405,9.299973083333333,-0.4494714583333333,-2.631451083333333,-0.007679448708775,0.025830872929516,0.0670206432765822,0.017084996003430813,85.71081982967873,0.002429572325212348
