stamp,img_delta,blur,lin_acc.x,lin_acc.y,lin_acc.z,ang_vel.x,ang_vel.y,ang_vel.z,rpe,ate,drift
1403638129445096960,50.168276,297.531084944057,8.499096666666667,-1.4628252916666666,-2.950167208333333,0.0139626340159546,-0.0048869219055841,0.3623303527140228,11.047046949684413,11.047046949684402,0.22736600281770158
1403638129945096960,49.98374,162.7236040770634,10.1008495,-0.122583125,-4.56009225,0.028623399732707,-0.1130973355292325,-0.0886627260013119,3.0535832746860567,9.48298568848,0.5048183983247743
1403638130445096960,59.91745,335.3425773842339,8.817812791666666,-0.7109821249999999,-3.4813607499999994,0.1082104136236484,-0.0335103216382911,-0.0921533845053006,3.713499250936689,12.777413401209353,0.3232442818606174
1403638130945096960,57.27768,577.8571249712156,8.204897166666667,-0.7927042083333332,-2.6477955,-0.0593411945678072,0.2597049926967562,0.1361356816555577,5.947295973147522,18.39108462656824,0.34757520263589115
1403638131445096960,49.962282,658.6880199578851,9.26728425,-0.6864655000000001,-3.2361945,-0.0328121899374933,0.0726056968829641,0.1228711793404008,3.104332904072183,19.73086213030571,-0.34395201160536004
1403638131945096960,50.620794,220.0081355792352,10.648387458333334,-1.0133538333333332,-3.4650163333333333,-0.0691150383789754,0.0167551608191455,-0.0118682389135614,3.5693752833190184,20.660861020408785,0.40573203138360014
1403638132445096960,50.593376,136.40003399545532,9.643205833333331,0.5557101666666666,-3.366949833333333,0.179419847105017,0.2066469834361286,0.3700098014227978,3.116950572321537,23.800266364973556,0.008354042787313887
1403638132945096960,50.115823,804.6171170539602,7.84532,-0.0817220833333333,-2.0512242916666668,0.0837758040957278,0.3099704751541929,0.2715732316103177,4.349967816068986,20.545108430631366,-0.11248158365067695
1403638133445096960,60.152054,593.768912736808,9.283628666666663,-0.318716125,-3.5957716666666664,-0.4649557127312894,-0.0139626340159546,0.1556833692778942,5.947498535887696,22.493905834310464,0.1130709886447896
1403638133945096960,50.101996,481.0074360818145,10.223432625,-2.803067458333333,-2.353596,-0.1270599695451872,0.0781907504893459,0.1026253600172665,2.803223434669674,19.94214285723079,-0.3193479027920034
1403638134445096960,49.636126,1231.2842584471357,9.422556208333331,-0.6864655000000001,-3.587599458333333,0.0851720674973232,-0.1319468914507713,0.1933824811209717,6.762057846912324,18.926861167089786,-0.6089448776387414
1403638134945096960,61.122894,768.0327958015154,8.033280791666666,-0.5311935416666667,-3.4731885416666666,-0.0153588974175501,0.189891822616983,0.1214749159388053,4.169730234575384,18.01059243471636,0.0376725639618023
1403638135445096960,54.128885,437.2644287307085,8.77695175,0.661948875,-3.92266,-0.182212373908208,-0.0125663706143591,-0.0293215314335047,6.050823058300506,13.819989365998827,-0.01240033949970254
1403638135945096960,40.190459,271.50096678063454,10.329671333333332,-0.1797885833333333,-4.347614833333333,-0.1242674427419962,-0.2492330171847902,-0.1801179788058148,5.08777581349704,13.890482083190808,0.07185749611369907
1403638136445096960,59.795141,467.52034429482336,10.084505083333331,-2.6477955,-3.4486719166666666,-0.1284562329467826,-0.036302848441482,0.0628318530717958,6.3906218339592025,16.115444120707615,0.2609277637642151
1403638136945096960,40.157795,260.4909747721768,7.256920999999999,-1.005181625,-2.778550833333333,0.3385938748868999,0.3783873818323706,0.4426154983057619,2.663199689246049,17.21888722871406,0.20640799328386095
1403638137445096960,40.314913,137.3639546485365,9.594172583333334,-0.7518431666666666,-3.603943875,-0.0914552528045028,-0.2101376419401172,-0.153588974175501,1.5028138243222031,17.844850851010648,-0.011665217932403493
1403638137945096960,49.724341,93.97433134215692,9.07115125,0.2043052083333333,-4.519231208333333,-0.08307767239493,-0.3141592653589793,-0.1850049007113989,2.2038401712748863,17.817194758327844,0.07807586440879533
1403638138445096960,50.303936,222.9460604223056,9.667722458333332,-0.2043052083333333,-4.257720541666666,-0.0139626340159546,0.0376991118430775,0.046774823953448,8.315345689815185,17.41652988518086,-0.31258900417545377
1403638138945096960,48.83933,220.9185412732124,8.548129916666667,0.6782932916666666,-3.9390044166666662,-0.0726056968829641,0.0062831853071795,0.0090757121103705,3.2761250873685026,18.63513872852026,-0.37659669017243047
1403638139445096960,60.135842,224.4677061683214,9.087495666666666,0.2043052083333333,-3.97169325,-0.0062831853071795,0.0188495559215387,0.0851720674973232,3.1425528006603485,20.303742090160245,0.10578000527247156
1403638139945096960,59.556961,225.2368961544026,9.038462416666666,0.0572054583333333,-3.9880376666666666,-0.0013962634015954,0.0188495559215387,0.0788888821901436,0.19367880437673315,20.25233853090752,0.005681255758339887
1403638140445096960,49.476862,224.85329845773276,8.940395916666665,0.0,-3.930832208333333,-0.0041887902047863,0.0230383461263251,0.0747000919853573,0.5529176864134849,20.575642466528326,0.043321475570071044
1403638140945096960,39.96253,225.61659350515163,8.981256958333333,0.0735498749999999,-3.996209875,-0.0020943951023931,0.0174532925199432,0.0747000919853573,0.8439119754838819,20.904939367319923,0.03649358580939932
1403638141445096960,50.454855,224.99859880521737,8.956740333333332,0.04903325,-3.97169325,-0.0020943951023931,0.0188495559215387,0.0747000919853573,0.9812474014156328,21.45067420574036,0.06310324230811659
1403638141945096960,40.587187,222.45706259123503,8.981256958333333,0.0817220833333333,-3.947176625,0.0,0.0195476876223364,0.0802851455917391,0.6291362962308236,21.92982972748283,0.19503215912237692
1403638142445096960,59.863806,213.47292453206165,8.613507583333332,2.083913125,-3.930832208333333,-0.0342084533390888,0.0607374579694026,0.1103048087260416,0.6603955440233725,22.532829181356263,0.3723256134678792
1403638142945096960,49.762726,220.9406291868993,8.490924458333334,1.046042666666667,-3.8164212916666655,0.0,-0.0020943951023931,0.0949459113084915,1.541821281566622,23.594139564305156,0.1320345126939877
1403638143445096960,49.638271,224.79902930136956,9.144701125,-0.4249548333333333,-4.16782625,-0.0223402144255274,0.0174532925199432,0.0767944870877505,0.7093249506250772,23.818369096121916,0.06837403933166186
1403638143945096960,40.349484,224.91352220713247,9.079323458333333,0.0735498749999999,-4.0615875416666665,-0.0006981317007977,0.0188495559215387,0.064926248174189,0.9457164252442387,24.402127981269015,-0.029266832753393146
1403638144445096960,50.279855,225.61481560363976,8.7279185,-0.196133,-3.702010375,-0.0006981317007977,0.0230383461263251,0.075398223686155,0.315700144044621,24.712968329801445,0.0903882055009042
1403638144945096960,49.732685,224.5831030808773,9.177389958333332,0.2615106666666666,-4.126965208333333,0.0139626340159546,0.0328121899374933,0.0900589894029074,0.35532816328897576,24.970849411317104,-0.06483696416856333
1403638145445096960,59.53908,224.1395868305824,8.817812791666666,0.7191543333333333,-4.135137416666667,-0.0160570291183478,0.0,0.0942477796076938,0.12701392809642018,24.851251714398074,-0.10472798139780437
1403638145945096960,49.410104,224.16027326133425,8.262102624999999,0.269682875,-3.4977051666666665,0.0041887902047863,0.0062831853071795,0.0809832772925368,0.5592979191876472,25.299124749256976,0.07030050053144166
1403638146445096960,59.779167,219.9516570481496,9.504278291666663,0.3023717083333333,-3.587599458333333,0.0083775804095727,-0.0432841654494593,0.0837758040957278,0.8319986868636369,25.657854334303646,0.11685649573674795
1403638146945096960,37.725687,219.01578779080225,10.632043041666666,-0.809048625,-4.543747833333333,-0.0139626340159546,0.0383972435438752,0.0837758040957278,0.7093532681611893,26.191597181399,0.06523295920934302
1403638147445096960,59.611082,215.7170844319032,6.603144333333333,0.4903325,-2.0920853333333334,0.0272271363311115,0.0921533845053006,0.0879645943005142,2.271838217364852,28.29754155635531,-0.20572832050583756
1403638147945096960,49.66402,121.0684934731771,10.967103583333332,-0.907115125,-4.584608875,-0.0642281164733913,0.2268928027592628,0.1270599695451872,11.697864347623533,30.62286370251516,0.5089335617675417
1403638148445096960,49.737215,301.8237997048933,7.722736874999999,0.3759215833333333,-2.7867230416666664,0.0530580092606276,-0.0146607657167523,0.0425860337486616,14.604933560028133,41.107846401168366,0.14071001897603708
1403638148945096960,50.694227,343.9095213316029,11.106031125,-0.171616375,-4.1024485833333335,0.0516617458590321,0.0244346095279206,0.1054178868204575,7.498740937679295,39.55962043504861,0.5810295191017971
1403638149445096960,59.11994,1259.681834046603,7.060788,0.4494714583333333,-2.655967708333333,-0.018151424220741,0.0125663706143591,0.0237364778271228,5.812337541921091,45.00831103708553,0.4674417914325488
1403638149945096960,59.514761,1110.99868273416,7.869836625,-0.0735498749999999,-3.268883333333333,-0.0055850536063818,-0.0397935069454707,0.0342084533390888,4.695816030731242,48.78854845310424,0.2751784655295708
1403638150445096960,50.261736,766.9353045688988,10.664731875,-0.1879607916666666,-3.097266958333333,0.2178170906488923,-0.179419847105017,0.2478367537831947,4.638275670158879,52.64008162661041,0.5692242478036107
1403638150945096960,49.798966,705.652926634637,8.499096666666667,-0.9970094166666666,-2.043052083333333,0.1500983156715123,0.1598721594826805,-0.0733038285837618,5.779525248696407,58.44140353556997,0.4651149489580675
1403638151445096960,59.99279,523.7216406413862,9.602344791666663,0.0,-3.881798958333333,0.48939032225921,-0.0509636141582344,-0.1179842574348166,6.0376529505047944,64.08938343478783,0.6369606424855476
1403638151945096960,49.549342,712.8219214894954,10.681076291666663,0.8008764166666666,-4.094276375,0.0530580092606276,0.0097738438111682,-0.0041887902047863,4.849229495967499,68.94586159486022,0.47940505483542495
1403638152445096960,49.892903,483.0160038387999,7.910697666666666,-0.4004382083333333,-2.770378625,-0.0621337213709981,0.0195476876223364,0.0132645023151569,4.244779262675098,72.99575686802187,0.29987240780052105
1403638152945096960,50.449371,275.1504038579106,8.997601374999999,-0.0081722083333333,-4.453853541666667,0.2673844414055313,0.1123992038284348,-0.0272271363311115,4.713026959541032,78.09876011670721,0.6142495703807356
1403638153445096960,56.491136,245.01128312630075,10.452254458333334,0.0,-4.077931958333333,0.2234021442552742,-0.0600393262686049,-0.2366666465704311,4.325062424556696,82.88526831719606,0.4318368856265806
1403638153945096960,49.932957,267.4642922258701,7.453054,0.8825985,-3.334261,0.2331759880664424,0.1968731396249603,0.1235693110411985,2.202295043866278,84.51330950336843,0.28637085748302127
1403638154445096960,49.741745,535.6885289805195,8.77695175,0.0408610416666666,-3.77556025,-0.0013962634015954,0.2673844414055313,0.1843067690106012,9.648566861085396,92.915644206835,2.1419961334824364
1403638154945096960,43.82968,646.8682692702045,11.980457416666669,-0.1797885833333333,-4.494714583333333,0.1319468914507713,0.0370009801422797,-0.1340412865531645,12.245086393834656,104.20796504821466,1.000581399477099
1403638155445096960,56.673288,803.0049332364237,7.232404375,0.5883989999999999,-3.391466458333333,0.2136283004441059,0.0991347015132779,-0.08307767239493,17.797490972071728,119.97434919021221,-0.30452175029205364
1403638155945096960,49.786568,468.18655106768944,9.839338833333333,-0.2533384583333333,-4.903325,0.5215043804959056,-0.2073451151369263,-0.0390953752446729,2.8138312686108082,120.28817263891736,0.4340369586678605
1403638156445096960,49.860239,810.3821948854888,8.302963666666667,0.5720545833333333,-2.353596,0.2555162024919699,-0.153588974175501,-0.0439822971502571,3.0505521909682125,120.14094338469452,-0.024351555280460957
1403638156945096960,50.045252,1027.1786681637016,8.450063416666666,-0.2288218333333333,-3.334261,-0.0628318530717958,-0.057246799465414,0.0530580092606276,4.028149976130471,119.27222524807637,0.27874710305883355
1403638157445096960,48.702955,775.4656325116667,7.150682291666666,0.6456044583333332,-2.2718739166666664,0.0774926187885482,0.1368338133563554,-0.0090757121103705,3.9092262887214653,117.72653400869675,-0.3472790766014384
1403638157945096960,40.06648,586.8309617010948,9.692239083333332,0.7681875833333334,-3.138128,0.4356341812977846,0.0209439510239319,-0.0565486677646162,3.030713986786292,117.24598154510453,0.17142214355210683
1403638158445096960,49.779892,909.0252198303292,7.976075333333333,0.6292600416666666,-2.2963905416666663,-0.0502654824574366,0.0907571211037051,-0.0977384381116824,3.946450831083396,121.13999475438231,0.8441814006273489
1403638158945096960,50.637722,782.3802333014658,10.6892485,-0.5883989999999999,-4.674503166666667,0.0118682389135614,-0.1082104136236484,0.0781907504893459,6.245860983886384,125.19435751136385,0.30393045478584213
1403638159445096960,59.870243,345.4068867484848,8.891362666666666,0.0817220833333333,-4.298581583333333,0.075398223686155,0.5173155902911193,0.2527236756887789,6.174313339450315,129.18964255063602,0.3479437092869375
1403638159945096960,49.540281,652.3025513464047,8.065969625,-0.1307553333333333,-3.358777625,-0.0390953752446729,0.0558505360638185,-0.2303834612632515,15.5636739637115,123.13249022740571,-3.353941877512952
1403638160445096960,50.27771,788.8818388928205,8.033280791666666,-0.1062387083333333,-2.582417833333333,-0.0251327412287183,-0.1019272283164688,0.0621337213709981,15.208040504107656,119.21360161269227,1.1274838967863587
1403638160945096960,59.793949,402.43331394797104,8.572646541666666,0.7273265416666667,-2.378112625,-0.2904227875318564,0.21851522234969,0.1577777643802873,3.6166685621229724,121.36381042594799,0.11788289146420539
1403638161445096960,49.510479,444.4386136776208,9.422556208333331,0.0980665,-2.941995,-0.4028219913602912,-0.15079644737231,0.2422517001768129,8.67186304878327,121.30106320709801,0.18125322408587863
1403638161945096960,49.890757,577.5349643755515,7.722736874999999,0.5557101666666666,-2.8847895416666667,-0.2317797246648469,0.0237364778271228,0.1068141502220529,8.0602652535368,123.89132529902034,0.19928668052784815
1403638162445096960,39.480209,712.2675005424045,8.368341333333333,0.7028099166666667,-3.08909475,-0.0111701072127637,0.1528908424747032,0.0726056968829641,6.536406169172102,127.91794905907427,0.23658725948165227
1403638162945096960,48.40517,487.8932199705234,9.586000375,-0.3350605416666666,-5.532585041666667,-0.0195476876223364,0.1605702911834783,0.3232349774693498,5.438530529644497,131.97996473747597,0.39134248297989416
1403638163445096960,49.542665,628.0130171547072,6.758416291666666,0.122583125,-1.96133,-0.3553490357060455,0.0418879020478639,0.122173047639603,5.055400595854042,135.9682852336802,1.4365488556144612
1403638163945096960,53.971529,933.8513563774446,11.392058416666666,0.4331270416666666,-4.159654041666666,0.0020943951023931,0.0069813170079773,0.0956440430092892,6.285727335404921,141.00058538770674,1.2877259689202845
1403638164445096960,40.413618,755.5513791369485,8.719746291666667,0.8417374583333332,-3.538566208333333,0.0293215314335047,0.0684169066781777,0.1207767842380075,5.050092963458769,144.36477746482979,-0.06923059821656352
1403638164945096960,59.677601,481.4104304487356,9.308145291666667,-0.8907707083333333,-3.4813607499999994,-0.0865683308989187,0.1780235837034216,0.1284562329467826,7.561738783490883,141.67044729355104,0.9436419157438252
1403638165445096960,49.956084,510.3116885625723,8.139519499999999,-0.024516625,-3.072750333333333,-0.08307767239493,0.0411897703470661,0.114493598930828,6.776704265205491,137.1617351616392,-1.3193778192242007
1403638165945096960,50.038814,303.98958609264054,9.978266375,-0.6047434166666666,-2.868445125,-0.036302848441482,-0.1773254520026238,-0.0293215314335047,4.856746993610932,137.0455951279222,-0.06778300410579163
1403638166445096960,49.490213,525.5303141624107,10.068160666666666,0.2369940416666666,-4.592781083333333,0.0460766922526503,-0.0733038285837618,0.0607374579694026,9.057782121212007,126.55576259321046,-2.6277154040544417
1403638166945096960,40.228605,359.043779679001,8.351996916666666,-0.5720545833333333,-2.8847895416666667,0.0453785605518525,-0.2841396022246769,0.239459173373622,6.951875987257951,119.75614957858302,-0.10942441292603178
1403638167445096960,56.784153,463.3798634741013,9.528794916666666,-0.0817220833333333,-3.3260887916666664,-0.0195476876223364,0.1075122819228507,0.0886627260013119,4.431999143438295,122.65516490562314,0.819616218763187
1403638167945096960,61.233283,374.3695026755554,9.487933875,-0.1634441666666666,-3.8409379166666655,-0.3155555287605747,0.0509636141582344,0.2492330171847902,3.9599187126468745,125.9075799969379,0.3217808088486436
1403638168445096960,49.910307,351.11000677637287,8.049625208333332,-0.0735498749999999,-3.3506054166666663,-0.325329372571743,-0.018151424220741,-0.0656243798749867,3.116373292946292,127.93366411943256,0.3087911212903549
1403638168945096960,40.418148,524.5911117643433,7.60015375,0.3350605416666666,-3.1544724166666662,0.0300196631343024,-0.0390953752446729,0.1843067690106012,1.60740990059178,128.43690642853656,-0.7242646682819895
1403638169445096960,39.910316,370.6826327664927,11.45743608333333,-0.44129925,-4.249548333333333,-0.153588974175501,0.1668534764906579,0.4167846253762458,4.113832286694934,128.10448160678135,0.24594426915415113
1403638169945096960,49.809694,246.84150552168924,9.80665,-0.220649625,-3.881798958333333,-0.635299847725936,0.1151917306316257,-0.1354375499547599,6.8533195848673625,134.17019172445933,-0.1306651631643092
1403638170445096960,49.756765,352.3830036087461,7.395848541666666,-0.0572054583333333,-2.181979625,-0.5145230634879283,-0.1068141502220529,0.2038544566329376,2.2296008213410783,134.15772552412867,0.10977988346908774
1403638170945096960,39.068699,483.3044933330412,9.250939833333334,0.2860272916666666,-2.941995,-0.43703044469938,0.007679448708775,0.2408554367752175,8.475374609540433,141.26587480298312,0.12224402359055375
1403638171445096960,39.39271,613.7837980117441,8.768779541666666,-0.661948875,-3.3260887916666664,-0.1117010721276371,0.0795870138909414,0.1675516081914556,8.451315347833885,137.5174578761294,0.032841796956574854
1403638171945096960,60.726166,545.1638317371905,8.858673833333333,-0.392266,-4.2168595,-0.2024581932313422,0.057246799465414,-0.0684169066781777,7.576143171414971,132.3633180368265,0.07948166836030168
1403638172445096960,39.81638,739.6413383149945,7.444881791666666,-0.4576436666666666,-1.7815414166666663,0.025830872929516,0.075398223686155,0.028623399732707,15.660764287865,136.80639305492957,0.35841410620702163
1403638172945096960,49.981833,624.2259933723499,7.518431666666666,-0.2124774166666666,-2.974683833333333,0.0837758040957278,-0.075398223686155,0.1500983156715123,8.458110728486218,134.30460805413665,0.273373353886484
1403638173445096960,49.666405,277.5981857205402,6.186361708333333,-0.1552719583333333,-3.064578125,-0.0893608577021096,0.0474729556542457,-0.2715732316103177,12.117351521460352,138.0756798112306,0.4403799779893518
1403638173945096960,49.553871,580.2795678463801,11.571846999999998,-1.6753027083333332,-4.568264458333333,-0.0530580092606276,0.0481710873550434,0.143116998663535,13.873555156793657,149.11291606504804,11.717402298844547
1403638174445096960,49.881458,640.9366531248808,8.97308475,0.0,-3.9390044166666662,-0.0209439510239319,-0.0865683308989187,-0.0083775804095727,11.246555264031045,150.4327945646783,0.3373335617865507
1403638174945096960,50.117016,541.237663996708,10.198916,-0.24516625,-2.672312125,-0.0237364778271228,-0.0300196631343024,0.1110029404268393,14.938300338455232,159.4572283173108,1.4042837060600561
1403638175445096960,50.119638,354.78512105413444,8.662540833333333,-0.1879607916666666,-3.2035056666666666,-0.0781907504893459,-0.189891822616983,-0.0530580092606276,15.566931666742553,165.56036418782634,-0.2811583339835977
1403638175945096960,61.524391,526.9844879921275,8.098658458333333,0.0653776666666666,-2.214668458333333,-0.0816814089933346,0.1459095254667259,-0.2401573050744197,8.28624966707804,166.8303833834208,0.6577459842841336
1403638176445096960,48.884153,742.4010901188979,9.953749749999998,-0.1470997499999999,-4.020726499999999,-0.0404916386462684,-0.0146607657167523,0.0670206432765822,24.00731819122998,170.49207556173744,1.1956493239829626
1403638176945096960,50.483227,709.7317901936367,7.7472535,0.612915625,-2.680484333333333,-0.0048869219055841,0.0844739357965255,0.1082104136236484,6.67216123083489,178.37440347160054,0.4130575396116285
1403638177445096960,60.743809,689.6707190974087,10.190743791666666,-0.1634441666666666,-4.314926,0.0376991118430775,-0.018151424220741,0.3099704751541929,9.915621760857393,171.54060428490175,-0.9382461962715638
1403638177945096960,39.77561,556.0960546599619,8.891362666666666,0.5883989999999999,-3.391466458333333,-0.0788888821901436,0.2192133540504878,0.1158898623324234,13.88885037922702,159.83978150289644,0.31044787348972136
1403638178445096960,50.66514,488.5565632095365,7.50208725,0.5148491249999999,-3.2280222916666665,-0.4181808887778414,0.0272271363311115,0.3029891581462156,3.0930470973103046,161.1019384412469,-0.25249365555859526
1403638178945096960,48.124074,487.02036001142216,9.250939833333334,-0.1797885833333333,-4.151481833333333,-0.3385938748868999,-0.0949459113084915,0.1954768762233649,4.574562251327023,157.2451905473183,-0.47547223242114
1403638179445096960,49.503803,285.0632758583539,8.646196416666667,0.024516625,-2.909306166666666,-0.3001966313430246,0.2422517001768129,0.2911209192326541,2.538404189604622,156.46785196371215,-0.20999182236167258
1403638179945096960,50.118447,305.7576748277924,10.019127416666668,-0.7028099166666667,-3.2035056666666666,-0.4293509959906051,0.0202458193231342,0.2457423586808016,5.635250319905696,152.090640262911,-0.7738485091844041
1403638180445096960,61.233282,391.1705909361061,8.97308475,0.24516625,-2.8357562916666668,-0.0230383461263251,0.0383972435438752,-0.0307177948351002,4.626212878024006,148.93445962021474,-0.16376817966875024
1403638180945096960,38.838149,379.4272082248754,8.376513541666666,0.1389275416666666,-2.966511625,0.0397935069454707,-0.0209439510239319,0.0551524043630208,6.818849356226687,145.71354494359957,-0.1259931793650253
1403638181445096960,60.723305,220.3369349842178,9.863855458333331,0.1879607916666666,-4.053415333333333,-0.2932153143350474,0.2268928027592628,0.3700098014227978,8.61327397104768,141.86555264572374,-0.39185715043501546
1403638181945096960,50.259114,211.5298285384509,9.528794916666666,-0.7028099166666667,-2.7213453750000003,-0.4042182547618868,-0.0558505360638185,0.1410226035611418,8.225866070416268,138.69062305365213,0.09777183860464334
1403638182445096960,50.367356,273.15698891312707,7.624670374999999,0.2124774166666666,-3.8082490833333327,-0.085870199198121,-0.0397935069454707,-0.0740019602845595,3.160866538019823,138.40515794221798,-0.11331385681964434
1403638182945096960,39.594174,235.8476754319733,10.149882749999998,-0.2369940416666666,-4.159654041666666,0.0495673507566389,0.1752310569002306,0.1270599695451872,12.766528464906848,136.61982754923307,-0.1475313127084803
1403638183445096960,31.031847,219.7297484262012,9.389867375,-0.5230213333333333,-3.8409379166666655,0.007679448708775,-0.1836086373098034,0.0956440430092892,9.067019694828215,136.9424604588163,0.015322616030601921
1403638183945096960,50.189972,236.2267814049011,9.242767625,0.9398039583333332,-3.6448049166666654,-0.0230383461263251,0.085870199198121,0.0740019602845595,6.3192599815481785,137.03388997786786,0.025187456188177748
1403638184445096960,51.041603,205.7667632689082,8.360169125,0.1307553333333333,-2.729517583333333,-0.0335103216382911,0.1123992038284348,0.0425860337486616,13.769304176130218,137.96204207657993,-0.06397097171492305
1403638184945096960,50.451755,234.70692928929935,9.577828166666666,-0.1307553333333333,-4.9114972083333335,-0.0579449311662117,0.1263618378443894,0.0153588974175501,6.582127252237292,137.48376120304542,-0.03872355831254026
1403638185445096960,39.49809,192.97539371570872,8.376513541666666,-0.1797885833333333,-3.514049583333333,0.0656243798749867,0.1130973355292325,-0.0111701072127637,6.211315855165878,137.08189828272822,-0.15236961087401824
1403638185945096960,59.950591,206.46547659433452,8.319308083333333,0.1389275416666666,-2.549729,0.1186823891356144,-0.0300196631343024,0.2143264321449036,7.275394135477038,135.08911818151248,-0.1945683882522644
1403638186445096960,39.045572,241.2655869166844,9.013945791666666,-0.196133,-5.123974625,-0.0579449311662117,0.0425860337486616,0.1368338133563554,3.920878487610463,134.4961455389008,-0.12407073597586304
1403638186945096960,49.522639,182.29341186198025,9.103840083333331,0.318716125,-2.9174783749999995,0.3448770601940795,0.0551524043630208,-0.0760963553869527,3.014371764110114,134.24277756138372,0.029927967772920283
1403638187445096960,60.262441,167.03395529780823,9.340834125,-0.34323275,-3.8245935,0.3532546406036522,0.0481710873550434,0.0390953752446729,5.205681732081641,132.49837924613604,-0.16846352739395343
1403638187945096960,71.181774,204.9877205691,8.858673833333333,-0.2941994999999999,-2.4189736666666666,-0.0795870138909414,0.2052507200345331,-0.085870199198121,5.861930343791092,130.65029304707954,-0.46626393195117544
1403638188445096960,50.390959,184.88573149644685,7.175198916666666,0.2615106666666666,-4.4211647083333325,0.0293215314335047,0.325329372571743,0.3134611336581816,5.421639898754957,126.91347420412495,-0.18550321098098266
1403638188945096960,49.938441,179.6535377868235,10.550320958333334,0.6701210833333332,-2.606934458333333,0.1137954672300302,-0.1996656664281513,0.0837758040957278,11.648311847920473,127.85476837454581,-0.3496406822887934
1403638189445096960,50.319195,117.05230348723556,10.615698625,-0.0408610416666666,-3.87362675,0.3162536604613725,-0.3120648702565861,-0.0628318530717958,5.933767049815933,128.79472839878176,0.8081833819461224
1403638189945096960,60.142755,179.71326651602396,8.515441083333332,-0.1144109166666666,-2.5660734166666663,-0.0356047167406843,0.0914552528045028,0.0020943951023931,5.4399665881678905,129.60487554698815,-0.277601914862629
1403638190445096960,39.161682,145.03702903356512,7.150682291666666,0.4985047083333333,-2.214668458333333,0.0481710873550434,0.0942477796076938,-0.289026524130261,1.2397954889547982,129.40650232669952,0.005958079566823926
1403638190945096960,50.112486,176.5969923064865,9.357178541666666,-0.4903325,-3.4404997083333333,0.0432841654494593,-0.0781907504893459,0.1165879940332212,4.357078699886862,131.91694079289456,0.14284898266379287
1403638191445096960,59.450865,167.37678551121238,7.052615791666666,0.3268883333333333,-2.459834708333333,-0.0272271363311115,-0.0886627260013119,0.1487020522699168,2.55432188186179,132.0226805457535,-0.000937333135453855
1403638191945096960,60.224057,160.90126363458498,8.87501825,0.0898942916666666,-3.5222217916666665,-0.0481710873550434,-0.0111701072127637,0.0991347015132779,1.384189636725683,130.69100917642393,-0.007578049840475387
1403638192445096960,49.777031,166.9413763279376,10.117193916666666,-0.1144109166666666,-3.6448049166666654,0.0167551608191455,0.064926248174189,0.1459095254667259,8.733416890441555,132.6436603655891,0.17176634284149372
1403638192945096960,49.762726,137.97262801117824,10.337843541666668,0.4821602916666666,-3.97169325,0.0816814089933346,0.3979350694547071,0.3686135380212024,7.816567467362642,137.29859813656984,0.3524320559509988
1403638193445096960,50.249338,218.5545885892152,9.577828166666666,-0.2369940416666666,-2.0512242916666668,0.0048869219055841,0.0383972435438752,-0.1947787445225671,10.134533943724357,143.03418388571365,1.0345938765873655
1403638193945096960,49.702167,201.0674635550949,9.422556208333331,0.0653776666666666,-2.819411875,0.046774823953448,-0.1158898623324234,0.1172861257340189,13.529679524812055,146.09930487531503,0.3846673999817938
1403638194445096960,49.615621,181.0145092392065,10.272465875,-0.1062387083333333,-3.3506054166666663,0.0048869219055841,-0.1054178868204575,0.1151917306316257,7.772549641373525,147.51177087700043,0.7994678175719798
1403638194945096960,32.547712,218.60068705523332,8.964912541666667,0.6292600416666666,-2.508867958333333,-0.0202458193231342,-0.057246799465414,-0.0048869219055841,3.916745231096365,149.75708276202917,0.2367962008537745
1403638195445096960,38.527012,190.86179274955492,7.910697666666666,0.5802267916666666,-2.672312125,0.0090757121103705,0.2261946710584651,0.1123992038284348,3.1349698864582227,149.1719673639005,0.4608726104040386
1403638195945096960,39.016723,248.2459124109926,9.880199875,-0.4494714583333333,-2.3699404166666667,-0.0006981317007977,-0.2282890661608583,0.0607374579694026,4.844607880648163,153.63528855420128,-0.39789874150267224
1403638196445096960,49.705506,340.77779806634135,9.602344791666663,-0.4494714583333333,-3.138128,0.0048869219055841,-0.0502654824574366,0.0914552528045028,3.3399671517977367,152.01116795699855,0.18806393312556224
1403638196945096960,49.937964,283.42556556585384,8.981256958333333,0.4331270416666666,-4.135137416666667,-0.0062831853071795,0.1473057888683213,0.1242674427419962,3.948283802797813,154.53504968001369,0.44403077591024953
1403638197445096960,39.537907,321.77024131865085,9.896544291666666,0.0163444166666666,-2.941995,-0.0188495559215387,0.2234021442552742,0.0251327412287183,1.243015201245555,154.7064965891293,0.038780565897781116
1403638197945096960,49.41082,221.162419044,9.112012291666666,-0.6292600416666666,-3.685665958333333,0.028623399732707,0.2911209192326541,0.2038544566329376,3.1882374896498464,153.7014803298853,-0.09686942632589535
1403638198445096960,49.929142,275.677215486343,8.539957708333333,0.3105439166666667,-3.38329425,-0.0370009801422797,-0.0614355896702004,-0.0481710873550434,12.782344170774678,156.5091149873663,0.8343157597902007
1403638198945096960,39.99877,315.618054552878,10.109021708333332,0.4249548333333333,-3.8899711666666654,0.0160570291183478,-0.0216420827247296,0.0495673507566389,7.355615291052336,159.15388202901536,0.44897362089014337
1403638199445096960,49.678326,377.3676448086866,10.141710541666669,0.6864655000000001,-4.388475875,-0.0244346095279206,0.0579449311662117,0.0321140582366956,9.623829004096688,165.20255613409722,0.479882683893635
1403638199945096960,40.094376,429.6250514769345,8.809640583333332,0.93163175,-3.718354791666666,0.1424188669627373,-0.1047197551196597,0.1745329251994329,2.0957132555063547,166.77266800294092,0.1693707826530897
1403638200445096960,50.049305,562.9182863759278,9.398039583333333,1.005181625,-3.4731885416666666,0.268082573106329,0.0146607657167523,-0.2017600615305445,4.3902548485672375,166.82499950732102,-0.2977032359489158
1403638200945096960,59.80134,722.6281141236401,8.899534874999999,0.1634441666666666,-3.8409379166666655,0.1598721594826805,0.007679448708775,0.2590068609959585,3.652009666983689,169.87674602297284,0.20490747613189342
1403638201445096960,50.781011,790.8661444923158,9.005773583333333,0.6210878333333334,-2.0512242916666668,-0.0174532925199432,0.0565486677646162,0.1207767842380075,2.8328634261808805,170.5944479138331,-0.3006504742055256
1403638201945096960,63.570261,724.1041628131642,8.883190458333333,0.9970094166666666,-3.211677875,0.143116998663535,-0.0453785605518525,0.028623399732707,8.52365723009477,172.89862284603436,0.4035468831673086
1403638202445096960,50.09532,855.9538436975687,7.935214291666666,1.184970208333333,-2.0757409166666667,0.0991347015132779,0.0216420827247296,0.1117010721276371,6.331798772907307,177.16018250094095,0.6329791321964819
1403638202945096960,49.214601,403.01336989360976,9.455245041666666,0.6047434166666666,-4.135137416666667,-0.0090757121103705,-0.0516617458590321,0.2666863097047335,5.88840899578806,183.79659290669804,0.26853669842466843
1403638203445096960,60.579538,312.2814747993481,7.265093208333333,1.12776475,-1.7978858333333332,0.0104719755119659,-0.1026253600172665,0.1089085453244461,11.022927886850969,182.53010248877428,-0.8515762477821056
1403638203945096960,58.516264,370.29853506903066,8.915879291666666,0.7436709583333333,-2.5660734166666663,0.0349065850398865,0.0321140582366956,0.0705113017805709,34.835204490778,185.8872718109628,3.3085854549585747
1403638204445096960,50.022364,322.9910642823625,8.964912541666667,-0.1634441666666666,-3.178989041666666,0.0509636141582344,-0.0495673507566389,0.268082573106329,11.506932248259497,197.12678704568063,0.8669170742616359
1403638204945096960,63.219071,276.1327334789212,6.243567166666667,-0.0163444166666666,-2.0675687083333334,0.4977679026687828,0.0684169066781777,-0.3630284844148205,24.809117407107586,215.99883025784447,2.1255334554255967
1403638205445096960,39.414645,455.8594434981937,10.386876791666666,-0.1797885833333333,-5.058596958333333,0.897797367225883,0.1563815009786919,-0.2820452071222836,8.45285865476917,224.34558767593074,0.2699893789101395
1403638205945096960,49.958468,359.589352658135,9.545139333333331,0.4739880833333333,-3.489532958333333,0.4565781323217166,0.104021623418862,-0.0230383461263251,11.601474379835878,224.9394543323519,-0.4720519040883744
1403638206445096960,35.687685,356.56606047388226,10.44408225,0.3759215833333333,-2.811239666666667,0.3511602455012591,0.064926248174189,0.2541199390903744,9.198538711384085,221.47475933515196,0.21746608255958222
1403638206945096960,49.878836,278.4225557478296,8.768779541666666,0.416782625,-3.097266958333333,0.1137954672300302,0.0397935069454707,0.0314159265358979,13.723900356268429,221.09241756703128,1.2504142624120789
1403638207445096960,38.31315,290.2763548421258,10.215260416666666,0.4739880833333333,-3.751043625,0.3609340893124273,0.0928515162060983,-0.0216420827247296,6.480419787922101,229.7106822548694,1.2081160333672472
1403638207945096960,49.812317,369.63467462541496,10.002783,0.563882375,-3.4813607499999994,0.085870199198121,-0.2122320370425104,0.1172861257340189,6.731381364260196,230.25539767856057,1.1074858076246983
1403638208445096960,26.793957,381.1339371678481,10.051816249999998,-0.5475379583333333,-3.38329425,-0.0223402144255274,-0.1410226035611418,0.0628318530717958,1.5843831144299843,231.22165526880258,0.49519824095190756
1403638208945096960,49.926996,633.0040978411394,7.673703624999999,0.4331270416666666,-2.8357562916666668,0.1207767842380075,0.046774823953448,-0.0006981317007977,3.6138025128772817,232.9565066883732,-0.015693387185962138
1403638209445096960,50.194502,782.8903241233581,9.210078791666666,0.4576436666666666,-3.554910625,0.0034906585039886,0.007679448708775,0.1165879940332212,2.481439256371817,236.14042449051885,1.2676822196322064
1403638209945096960,50.17519,827.2365813552307,9.128356708333332,0.4249548333333333,-4.126965208333333,-0.0132645023151569,0.2024581932313422,0.0614355896702004,1.5000685948272388,235.10826194050148,0.14964692794194434
1403638210445096960,50.2913,748.0128347535557,7.886181041666666,0.8172208333333333,-3.67749375,-0.0202458193231342,0.0488692190558412,0.0460766922526503,10.308318372513954,225.1807710706591,-0.8002494231030823
1403638210945096960,61.435938,607.0215996762462,9.316317499999998,0.7436709583333333,-2.9256505833333333,0.057246799465414,-0.124965574442794,0.1117010721276371,7.27098787758777,217.19716018758697,-0.32838069530444614
1403638211445096960,49.083233,618.9891935136313,8.466407833333333,-0.220649625,-2.705000958333333,-0.2045525883337354,0.0237364778271228,0.1968731396249603,3.0035503746036727,212.95707935186513,-0.494916092109861
1403638211945096960,50.017119,494.7233384863003,9.814822208333332,0.4494714583333333,-2.8847895416666667,-0.55710909723659,0.1061160185212552,0.372104196525191,4.6782437109375845,206.66398647754772,-0.5963564935870238
1403638212445096960,50.474167,579.7414530113768,10.533976541666666,-0.6946377083333333,-2.868445125,-0.5396558047166466,-0.0698131700797731,0.208043246837724,4.236761556783751,201.02945499598763,-0.5150293372217618
1403638212945096960,45.800686,559.0659757560583,10.909898125,-0.122583125,-3.661149333333333,-0.5941100773788698,0.0027925268031909,0.2275909344600605,10.811681138380559,199.6282111125186,1.1520546031855474
1403638213445096960,49.468756,158.19315481481885,8.817812791666666,-0.93163175,-4.118792999999999,-0.5159193268895238,0.0041887902047863,0.5480333851262195,10.782065050509962,200.28443624267447,-0.6703814626116582
1403638213945096960,49.237967,196.42185979010875,9.177389958333332,-0.5720545833333333,-3.7919046666666665,0.0397935069454707,0.0314159265358979,0.2122320370425104,5.511408410417143,197.3519673665463,-0.09029811929684683
1403638214445096960,59.825182,223.52677474319364,9.553311541666666,-0.8253930416666666,-2.6641399166666666,0.0733038285837618,0.1424188669627373,0.0251327412287183,12.671172245537749,187.292659637327,-0.8845891492838405
1403638214945096960,50.329924,220.11238253104017,9.586000375,-0.6456044583333332,-3.546738416666667,0.0335103216382911,0.0705113017805709,0.0677187749773799,7.6436577820400435,182.5594529376081,-0.09417055984005174
1403638215445096960,49.856901,219.69718013211775,10.329671333333332,-0.5802267916666666,-2.9338227916666666,-0.0747000919853573,0.0998328332140756,-0.0663225115757845,4.427188603100663,175.34689584829073,0.1626630390602486
1403638215945096960,60.777426,221.568990089106,9.226423208333332,0.0326888333333333,-3.612116083333333,-0.0781907504893459,0.1117010721276371,0.132645023151569,2.770708179872564,171.53043257690513,-0.1508972399601305
1403638216445096960,59.64756,289.86946291785614,9.577828166666666,-0.784532,-4.0125542916666666,-0.0090757121103705,0.0446804288510548,0.1277581012459849,4.450527995901594,169.49077276639437,-0.6106240257060449
1403638216945096960,49.435139,411.35171438193856,9.299973083333333,0.1389275416666666,-2.705000958333333,-0.1738347934986352,0.0907571211037051,0.1891936909161853,0.9715097821070001,168.30805857666644,-0.10075170656310206
1403638217445096960,51.141977,763.687319880982,11.293991916666666,0.0326888333333333,-3.685665958333333,-0.1256637061435917,0.0146607657167523,0.1005309649148733,4.603545060979554,170.84799430171466,-0.05298709941536117
1403638217945096960,42.15765,1138.3791263309663,9.700411291666663,0.1144109166666666,-3.4568441249999995,-0.0174532925199432,0.0977384381116824,-0.1103048087260416,2.237766722885579,169.13937818913462,0.01859121186234347
1403638218445096960,56.897879,1195.8655995028253,9.414383999999998,-0.73549875,-3.1217835833333334,0.0851720674973232,0.0432841654494593,0.1808161105066125,2.7797231670529374,166.48350214040352,0.27056939348318565
1403638218945096960,56.927205,960.3426716591208,10.599354208333333,0.3514049583333333,-3.1544724166666662,-0.0062831853071795,0.0767944870877505,0.4628613176288962,5.276244575013618,164.9972921744824,-0.08368096309149564
1403638219445096960,56.276798,1041.4481353957704,8.155863916666666,0.5230213333333333,-1.4873419166666666,-0.0335103216382911,0.2087413785385218,-0.0167551608191455,3.2421103489963063,167.5657994941331,0.11825037350186562
1403638219945096960,50.174475,1029.5971661635444,8.572646541666666,0.122583125,-1.7325081666666666,0.0760963553869527,-0.1256637061435917,0.2743657584135086,2.5698113014912,170.47405691028612,-0.010566592703753486
1403638220445096960,57.295084,1144.39596235676,10.967103583333332,0.3759215833333333,-4.053415333333333,-0.0565486677646162,0.0160570291183478,-0.0006981317007977,2.574961078574758,172.4219899374118,0.3934928012068042
1403638220945096960,50.064802,1133.7136929240007,7.485742833333332,-0.24516625,-2.69682875,0.0139626340159546,-0.0342084533390888,0.1186823891356144,2.042714288813525,172.42316206614905,0.175661780196549
1403638221445096960,56.08964,1107.4696992828076,8.629852,0.563882375,-2.0593965,0.018151424220741,0.0132645023151569,0.0823795406941323,0.625400281122658,173.24568840024887,0.16609465529296585
1403638221945096960,58.281899,1203.7707973513875,8.28661925,0.1062387083333333,-2.909306166666666,-0.0069813170079773,0.025830872929516,0.0006981317007977,0.8012998123514676,174.5578215585246,-0.05912043822269197
1403638222445096960,60.818672,1175.7736903201985,8.997601374999999,-1.046042666666667,-3.0400615,-0.0411897703470661,-0.075398223686155,0.0328121899374933,2.9649256640903037,176.38809595390077,-0.09798489166897184
1403638222945096960,60.301065,1194.3655532523003,8.719746291666667,0.7600153749999999,-2.672312125,0.0404916386462684,0.1117010721276371,0.1033234917180643,1.939058488698342,176.97584566133207,-0.26806118129437095
1403638223445096960,49.486637,715.2057593591214,8.327480291666665,0.220649625,-2.3372515833333334,0.1012290966156711,0.1277581012459849,0.2911209192326541,3.3117140254223534,174.1886477759856,-0.1931520607691084
1403638223945096960,50.142288,380.56559557169726,8.441891208333333,0.3023717083333333,-3.334261,-0.0509636141582344,0.104021623418862,-0.0747000919853573,4.711128606404303,169.77220683428052,-1.5807895532028056
1403638224445096960,49.040317,313.4183339511374,9.316317499999998,0.465815875,-3.7673880416666665,0.0837758040957278,0.1926843494201739,0.2408554367752175,1.2169865554340338,169.15865044005324,0.35487516791911844
1403638224945096960,50.112724,204.50956236235697,9.749444541666666,0.3595771666666666,-3.92266,0.1026253600172665,0.2624975194999471,0.2792526803190927,0.6235399992289934,169.57753691367722,0.5617356534540647
1403638225445096960,60.37879,202.57048366365692,9.275456458333332,1.1359369583333332,-3.415983083333333,-0.0349065850398865,0.3993313328563026,0.0586430628670094,10.647952954702912,166.0058807243486,-0.7840458656226872
1403638225945096960,50.008774,108.99798923743217,8.605335375,0.0326888333333333,-3.4813607499999994,0.0020943951023931,-0.2611012560983517,0.0530580092606276,4.314501486263618,163.34815243996331,0.08202739628498534
1403638226445096960,59.780598,219.3835172946021,4.429336916666666,0.784532,-2.132946375,-0.0677187749773799,0.0865683308989187,0.1054178868204575,5.2023683208556415,160.98573505991376,-0.225451339755665
1403638226945096960,50.340653,281.8447930223204,8.450063416666666,0.269682875,-3.734699208333333,-0.0188495559215387,0.0020943951023931,0.1130973355292325,2.6438502102012365,160.61200372791046,-0.008878580130897262
1403638227445096960,37.513017,279.7076320215819,8.891362666666666,0.24516625,-3.742871416666666,0.0090757121103705,-0.0041887902047863,0.0921533845053006,5.865782600236731,160.78468786454732,0.26979771878413317
