stamp,img_delta,blur,lin_acc.x,lin_acc.y,lin_acc.z,ang_vel.x,ang_vel.y,ang_vel.z,rpe,ate,drift
1403636860051666432,49.85857,905.8482114822206,6.644005375,0.4576436666666666,-1.9286411666666663,-0.0774926187885482,-0.0153588974175501,0.085870199198121,24.433406857676584,13.044816569264933,0.5085335853132165
1403636860551666432,49.196005,242.92309133828712,10.019127416666668,-0.5311935416666667,-5.254729958333334,0.0265290046303138,-0.3274237676741362,0.1494001839707146,25.77521601010508,8.868375977830274,-0.2291990751225299
1403636861051666432,48.945189,258.71307758798514,9.602344791666663,-0.2043052083333333,-4.797086291666667,0.0188495559215387,0.2513274122871834,0.0600393262686049,3.121463806973739,10.077729830141962,0.22115591905386722
1403636861551666432,36.934853,937.7339526591225,5.965712083333332,0.024516625,-1.9286411666666663,-0.0977384381116824,0.0747000919853573,0.0411897703470661,26.50863164761066,14.630466232006652,-0.030730457276341383
1403636862051666432,39.544821,264.15596488663675,10.092677291666664,-0.3105439166666667,-4.257720541666666,0.0635299847725936,-0.3658210112180114,0.2010619298297467,29.901138461652316,9.234023495713691,0.19630190986522678
1403636862551666432,50.568342,250.6280990371409,9.888372083333332,0.2124774166666666,-4.576436666666666,-0.1626646862858715,0.228987197861656,0.0307177948351002,1.9194344546011928,9.987643009316026,0.19570356263126776
1403636863051666432,45.65382,609.1443125262304,5.720545833333333,0.1879607916666666,-1.9695022083333331,-0.0216420827247296,0.2597049926967562,-0.0432841654494593,30.05187155157827,18.321951602022402,0.5397304017260538
1403636863551666432,60.201406,280.0822443187539,9.790305583333332,0.0,-3.9880376666666666,0.1494001839707146,-0.2904227875318564,0.2673844414055313,27.818094458382227,9.303051307555805,-0.48112447430322547
1403636864051666432,44.824362,278.8061056347937,10.419565625,-0.3350605416666666,-5.426346333333333,0.0886627260013119,0.1494001839707146,0.0481710873550434,10.757503314799594,9.729058128352822,0.17522894940577416
1403636864551666432,39.889098,310.7482179200618,7.191543333333333,-0.465815875,-2.655967708333333,0.0642281164733913,0.478918346747244,0.3036872898470133,32.217959553939465,19.023372537898382,0.9588504934893791
1403636865051666432,49.779654,322.64625811883315,9.005773583333333,-0.3023717083333333,-4.045243125,-0.0027925268031909,-0.2261946710584651,0.057246799465414,20.082807751475986,10.368377301995157,-0.8675295883481482
1403636865551666432,60.179711,703.8651131068156,11.204097625,-0.612915625,-5.777751291666666,0.0209439510239319,-0.1647590813882647,-0.0090757121103705,19.14261325048643,9.465246919256519,0.4763783765321339
1403636866051666432,46.098709,230.37808813170025,8.245758208333333,-0.0817220833333333,-3.2443667083333327,-0.0558505360638185,0.6066764479932288,0.1598721594826805,30.363287663665844,15.971522460396134,-0.12127980209844935
1403636866551666432,50.146341,439.1490649262327,8.482752249999999,-0.0081722083333333,-2.974683833333333,-0.046774823953448,-0.1996656664281513,0.0370009801422797,2.1708618866714167,16.404784047051116,-1.7377942352347944
1403636867051666432,50.245523,439.8757752371727,10.084505083333331,-0.1470997499999999,-4.576436666666666,-0.0209439510239319,-0.2450442269800038,0.1556833692778942,23.024828095958945,9.345506724582085,-0.09073606786617816
1403636867551666432,49.785614,263.2658679278425,7.763597916666666,0.1797885833333333,-4.985047083333333,-0.0893608577021096,-0.5145230634879283,-0.0446804288510548,3.688313693947713,10.358087354934451,0.030943158165293028
1403636868051666432,40.233135,321.25255036779595,5.696029208333333,-0.4576436666666666,-7.698220249999999,-0.0132645023151569,0.3106686068549906,0.1214749159388053,2.998613138263847,10.76549787219361,0.007743755938525609
1403636868551666432,47.460318,542.8708004303384,6.513250041666667,-0.2369940416666666,-7.093476833333334,-0.1075122819228507,0.1954768762233649,0.1661553447898601,3.202126458022719,10.936045074690911,0.0007679761458625478
1403636869051666432,51.797867,649.1736563303532,6.398839124999999,-0.392266,-7.117993458333333,0.1082104136236484,0.1075122819228507,0.0579449311662117,3.6609254850592223,11.060632642338978,0.009072310195611166
1403636869551666432,39.84785,743.7233294104561,6.61948875,0.2615106666666666,-7.134337875,-0.0146607657167523,0.0321140582366956,0.0816814089933346,0.4711618063094649,11.172762024505303,-0.001861691993715553
1403636870051666432,49.707174,211.3936807402405,6.554111083333333,0.0326888333333333,-7.003582541666666,-0.1263618378443894,0.0300196631343024,0.2234021442552742,21.598014053316298,10.609297093103427,0.1820824013415745
1403636870551666432,46.249151,203.0358009890217,6.464216791666666,-0.3105439166666667,-7.093476833333334,-0.0335103216382911,-0.0900589894029074,0.2750638901143063,32.274228737207466,10.063214956177633,0.20036885270050142
1403636871051666432,50.144672,324.7340369975525,6.627660958333332,-0.5475379583333333,-6.946377083333333,0.0642281164733913,-0.064926248174189,0.2450442269800038,11.845267437380505,9.7541511798898,0.005249810978583014
1403636871551666432,43.137788,224.42215411955496,6.627660958333332,-1.0296982499999998,-7.175198916666666,0.0663225115757845,0.0048869219055841,0.0719075651821663,12.034239143594462,9.194546147186356,-0.04402820227765858
1403636872051666432,54.762364,207.1396765429293,6.840138375,-0.1797885833333333,-6.913688249999999,0.2171189589480945,0.122173047639603,-0.007679448708775,35.33596400338691,9.633683380741992,0.11693091471078176
1403636872551666432,50.102949,665.7593718168758,7.10982125,0.7927042083333332,-7.330470875,0.0495673507566389,0.0495673507566389,0.0,29.011075298929644,10.296578915806636,0.044990971170040694
1403636873051666432,54.959298,238.97645073315007,6.970893708333333,0.196133,-7.126165666666666,-0.1661553447898601,0.0460766922526503,0.132645023151569,15.178384913525388,10.655983997706482,-0.06506440946541936
1403636873551666432,45.39299,159.0211452020058,6.047434166666666,-1.1686257916666667,-7.265093208333333,-0.1947787445225671,-0.0586430628670094,0.1605702911834783,40.554998246115545,9.565966976173756,-0.22034765420269942
1403636874051666432,50.192594,598.1202736821118,6.554111083333333,-1.2748645,-7.338643083333332,-0.0516617458590321,0.0335103216382911,0.1151917306316257,16.886112311310498,9.566974941463545,0.5634642723658807
1403636874551666432,54.676294,156.59959839836552,6.194533916666667,-1.372931,-7.363159708333333,0.0684169066781777,0.1228711793404008,-0.0041887902047863,19.02645456780209,9.165548820514148,-0.0058568053694667555
1403636875051666432,50.254583,382.14025932231806,7.379504124999999,0.2941994999999999,-6.962721499999999,-0.0230383461263251,0.2352703831688356,0.140324471860344,36.060040331212065,9.939113095608624,-0.00713094785392876
1403636875551666432,59.99279,365.3561565332283,6.823793958333333,0.0817220833333333,-7.322298666666667,-0.057246799465414,-0.0949459113084915,0.3064798166502042,14.439431883915796,9.339177221291019,0.08203748089851892
1403636876051666432,49.580336,124.44160848785349,7.918869874999999,-0.5311935416666667,-6.161845083333333,-0.5557128338349946,0.1647590813882647,0.3106686068549906,28.040510504637297,12.692886695771627,2.3802754219696762
1403636876551666432,50.020218,166.59542455582366,7.518431666666666,-1.7570247916666666,-6.202706124999999,-0.1256637061435917,0.2275909344600605,0.0041887902047863,36.70442450465,12.93443768477706,0.09499819833057188
1403636877051666432,46.418667,188.54189371290428,6.390666916666666,-1.9041245416666663,-7.265093208333333,0.6639232474586428,0.1193805208364121,-0.4237659423842232,32.80635035822767,9.901357597755219,-0.256415214386454
1403636877551666432,49.110651,158.62216162730743,6.333461458333334,0.5066769166666666,-7.526603874999999,0.450294947014537,-0.2534218073895766,-0.0788888821901436,46.92637373899071,12.40950536921786,0.7153796899238447
1403636878051666432,49.389839,292.93757058449813,7.40402075,0.8417374583333332,-6.554111083333333,-0.4125958351714595,-0.0733038285837618,0.2960078411382383,20.024495997658374,19.40389130038744,2.7569592946854655
1403636880401666560,60.157061,279.57778966729944,7.681875833333333,-0.8744262916666666,-6.733899666666666,-0.5801474433629151,0.1696460032938488,0.3337069529813158,20.683432006535018,10.50472775184629,0.06354153211806945
1403636880901666560,48.707008,247.15995618138737,8.164036124999999,-0.93163175,-5.213868916666666,0.2548180707911721,0.1291543646475804,-0.0160570291183478,15.161338084781473,10.330953840791523,-0.008598648666358955
1403636881401666560,60.365677,535.9947386362613,7.976075333333333,0.907115125,-5.123974625,0.1710422666954443,0.0774926187885482,-0.2562143341927675,23.723921691595926,10.56599298797749,-0.014299813165621345
1403636881901666560,60.763836,311.2741349795858,7.060788,0.3023717083333333,-6.742071875,-0.1668534764906579,-0.0404916386462684,0.2310815929640492,27.045320537177663,9.794510972148426,-0.10368788830660769
1403636882401666560,39.700985,383.0919995874178,7.804458958333332,-1.846919083333333,-5.581618291666667,0.0684169066781777,0.0970403064108847,0.0509636141582344,28.03571066113942,11.076104990923122,0.019577538092736546
1403636882901666560,60.646534,320.3936926261242,8.368341333333333,-0.4004382083333333,-3.9144877916666654,0.5319763560078716,0.2708750999095199,-0.0593411945678072,12.409547669396353,11.907206014828224,0.09035953154075038
1403636883401666560,50.438643,492.0248414255538,9.536967125,-0.3268883333333333,-3.9390044166666662,0.1473057888683213,0.1033234917180643,0.0907571211037051,11.771492676611134,12.664055484270442,0.02012369074219933
1403636883901666560,56.569576,572.6244853185045,9.471589458333332,-0.4249548333333333,-3.0073726666666665,0.0376991118430775,0.0432841654494593,0.0418879020478639,3.109536417068223,13.057481018602001,0.046145362119528244
1403636884401666560,49.53146,654.029337503673,9.422556208333331,-0.5148491249999999,-2.427145875,0.0055850536063818,0.0223402144255274,0.0907571211037051,0.4170743778420206,13.102711662391735,-0.006054603222089838
1403636884901666560,61.0466,659.961374818844,9.357178541666666,-0.612915625,-2.508867958333333,0.0125663706143591,0.0069813170079773,0.1026253600172665,0.06301683449243832,13.078040887267955,-0.0011470332437770736
1403636885401666560,49.589157,666.7162092290238,9.46341725,-0.4739880833333333,-2.672312125,-0.0069813170079773,0.0160570291183478,0.0712094334813686,0.04832943716652298,13.11385303212044,0.0026817087578425713
1403636885901666560,50.388098,666.6270093401489,9.340834125,-0.2941994999999999,-2.5660734166666663,-0.0013962634015954,0.0055850536063818,0.0942477796076938,0.02991043592561762,13.10398713047729,-0.0054279983691536415
1403636886401666560,50.212384,665.2425272317846,9.471589458333332,-0.3023717083333333,-2.557901208333333,-0.0048869219055841,0.018151424220741,0.0705113017805709,0.017362268469523375,13.107013244330668,0.00021136095283402767
1403636886901666560,54.44932,663.2109270698912,9.455245041666666,-0.392266,-2.59876225,-0.0027925268031909,0.0216420827247296,0.075398223686155,0.002740074930266378,13.104267693362504,0.001080150740987662
1403636887401666560,49.891471,662.056063554951,9.430728416666666,-0.4985047083333333,-2.655967708333333,-0.0055850536063818,0.0139626340159546,0.0719075651821663,0.011657646573794247,13.099656106598983,-0.0021246349047210344
1403636887901666560,46.973229,660.385284334828,9.381695166666669,-0.4331270416666666,-2.574245625,-0.0027925268031909,0.0083775804095727,0.0712094334813686,0.008209684349117296,13.099925132857384,2.6660051219096204e-05
1403636888401666560,46.033144,660.4175367458596,9.430728416666666,-0.3268883333333333,-2.606934458333333,-0.0013962634015954,0.0202458193231342,0.0865683308989187,0.017148772213006935,13.100344471993877,0.0009733296419707216
1403636888901666560,60.807944,646.221318065359,8.785123958333333,-1.5118585416666666,-2.231012875,0.0020943951023931,0.0328121899374933,0.0446804288510548,0.059835124796980214,13.12752782517582,-0.014716955808978582
1403636889401666560,49.252033,651.8528374342166,9.275456458333332,-0.5802267916666666,-2.574245625,-0.0293215314335047,0.0509636141582344,0.0879645943005142,0.041056356536906105,13.103734018849195,0.005605583505166933
1403636889901666560,39.241791,573.380409142029,9.357178541666666,1.5363751666666667,-2.950167208333333,-0.0118682389135614,0.0481710873550434,0.1137954672300302,0.022390643049220223,13.096277895004782,-0.0041288722993133575
1403636890401666560,40.140867,541.3250800058738,8.115002875,0.0408610416666666,-2.655967708333333,-0.1214749159388053,0.0390953752446729,0.1389282084587486,0.06407546834284988,13.107131338356925,-0.014978697491265791
1403636890901666560,60.2839,629.6248741321823,11.138719958333333,-0.0735498749999999,-2.778550833333333,-0.0202458193231342,0.0328121899374933,0.0998328332140756,0.07995030844181912,13.042163744156312,0.009374332542476438
1403636891401666560,59.41844,656.6924951503439,9.46341725,-0.196133,-2.4925235416666665,0.0,0.0202458193231342,0.0900589894029074,0.05181216603470416,13.069082949246475,-0.004032751818705549
1403636891901666560,60.692787,658.7866375882547,9.586000375,-0.465815875,-2.557901208333333,0.0013962634015954,0.0174532925199432,0.0712094334813686,0.01654276522818951,13.065599052668176,-0.0061956223600301286
1403636892401666560,59.951306,633.1023074263227,9.299973083333333,0.1470997499999999,-2.50069575,-0.0307177948351002,0.064926248174189,0.0879645943005142,0.015197329455132028,13.068047649252732,0.0034578976671344464
1403636892901666560,62.011003,648.7794454498696,9.438900625,-0.0817220833333333,-2.639623291666666,-0.0125663706143591,0.0314159265358979,0.0907571211037051,0.011262727953343852,13.061247524261624,0.0037118418556580934
1403636893401666560,49.447775,652.0664157103112,9.994610791666668,-0.6782932916666666,-2.941995,-0.0097738438111682,0.0125663706143591,0.0705113017805709,0.008601562856764451,13.05899065874484,-0.003430146089156594
1403636893901666560,50.246954,654.6614848251577,9.283628666666663,-0.8253930416666666,-2.427145875,0.0041887902047863,0.0055850536063818,0.0642281164733913,0.01877690318227555,13.074123570870436,-0.0022616669169721604
1403636894401666560,60.57477,655.6376689762873,9.438900625,-0.2533384583333333,-2.533384583333333,-0.0027925268031909,0.0314159265358979,0.0788888821901436,0.007932767065456443,13.071286093163437,0.0033084227454214243
1403636894901666560,60.679912,652.439454333331,9.586000375,-0.1389275416666666,-2.533384583333333,0.0223402144255274,0.018151424220741,0.0788888821901436,0.018870274280479504,13.062797843549282,-1.5492132112271406e-05
1403636895401666560,50.272465,653.4315704662223,9.438900625,-0.1470997499999999,-2.435318083333333,0.0272271363311115,0.0307177948351002,0.0663225115757845,0.02213822932494294,13.071856787029093,-0.004915721163362363
1403636895901666560,39.457559,653.2207115871845,9.626861416666666,-0.1797885833333333,-2.950167208333333,-0.0006981317007977,0.0174532925199432,0.0565486677646162,0.08152574761199614,13.104025791403782,0.014594592205897428
1403636896401666560,49.153567,648.8906944177888,9.626861416666666,-0.3350605416666666,-1.936813375,0.0132645023151569,-0.0349065850398865,0.1354375499547599,0.08266301385664847,13.077891443446049,-0.006822338260430882
1403636896901666560,60.763836,635.8804401221447,7.649186999999999,-0.3759215833333333,-1.871435708333333,0.0069813170079773,0.0272271363311115,0.0879645943005142,0.05285116497198813,13.090421030252978,0.02699347847665301
1403636897401666560,53.107261,436.8548901206856,10.991620208333332,-0.809048625,-4.919669416666666,-0.140324471860344,-0.179419847105017,0.0411897703470661,1.2101877386568682,13.241490284043083,-0.02342342859989799
1403636897901666560,39.470434,384.1225632354351,9.684066875,1.1931424166666666,-3.718354791666666,-0.0328121899374933,-0.1766273203018261,0.0188495559215387,5.709653523329469,13.409733094576776,-0.17085291637302547
1403636898401666560,46.794414,534.7228654269683,10.149882749999998,0.1389275416666666,-4.298581583333333,0.0733038285837618,-0.0411897703470661,0.0621337213709981,11.413391901190371,12.98698417619623,-0.03682957581620272
1403636898901666560,64.117432,643.9559701789291,9.447072833333332,0.04903325,-2.729517583333333,0.0495673507566389,-0.0090757121103705,0.2275909344600605,15.071827138971802,12.612731109412845,-0.01479516456792851
1403636899401666560,60.14824,294.8454544057405,8.482752249999999,-0.4086104166666666,-2.7622064166666664,-0.4405211032033687,0.1068141502220529,0.2506292805863857,13.565445896822737,11.180213821238572,-0.19761706428282544
1403636899901666560,46.684265,499.38572089869183,10.076332875,-0.0898942916666666,-3.8164212916666655,-0.1556833692778942,0.0495673507566389,0.0069813170079773,13.292863756836585,8.597997011562834,-0.08779445249414408
1403636900401666560,50.104141,862.502157602874,9.136528916666666,-0.63743225,-4.927841624999999,0.0600393262686049,-0.179419847105017,0.1012290966156711,17.413911146800817,8.243906324366275,-0.18125416384700088
1403636900901666560,50.015688,1027.537682824991,7.559292708333333,0.5802267916666666,-3.260711125,0.1033234917180643,0.0300196631343024,0.3707079331235955,20.179460629278527,7.689892984323807,-0.14123564454977622
1403636901401666560,45.838118,889.9183714463359,9.839338833333333,-0.171616375,-2.0920853333333334,-0.0209439510239319,-0.0321140582366956,-0.0390953752446729,23.241718304832286,7.221413867008468,0.1370380337909216
1403636901901666560,50.070763,1030.241007214085,8.025108583333333,0.34323275,-2.557901208333333,-0.0062831853071795,0.0153588974175501,0.0397935069454707,32.7267734623776,10.917101630945664,0.08708487090384587
1403636902401666560,50.145865,878.409056801912,5.360968666666666,0.4494714583333333,-1.6671305,-0.0397935069454707,0.0188495559215387,0.0963421747100869,29.18589080579003,12.94161097011245,0.3743521608202265
1403636902901666560,60.100317,956.7651991971164,10.967103583333332,-0.1144109166666666,-5.083113583333333,0.0425860337486616,0.1137954672300302,0.0788888821901436,31.058534687525167,16.324477995759217,0.04127086186111484
1403636903401666560,40.346861,907.7276081803476,9.692239083333332,1.3402421666666664,-3.652977125,0.0104719755119659,0.0642281164733913,-0.0251327412287183,27.943443736824157,16.914899815212685,0.17072862957043
1403636903901666560,49.464226,740.703391300031,10.83634825,-0.5557101666666666,-3.358777625,0.0083775804095727,0.0097738438111682,0.054454272662223,24.422190678357204,17.419454559952722,-0.05398077919912936
1403636904401666560,54.108858,698.6423963727904,7.5511205,-1.0950759166666666,-1.7978858333333332,-0.0237364778271228,0.064926248174189,0.0656243798749867,32.654910486061446,16.941887399414963,0.06915578677925183
1403636904901666560,50.493479,754.0299937855261,7.820803375,0.1634441666666666,-4.347614833333333,-0.0579449311662117,-0.0139626340159546,-0.0062831853071795,35.942027295632656,18.24092280786327,0.04701634197291682
1403636905401666560,49.786329,885.4981983592172,9.978266375,-0.6946377083333333,-3.8164212916666655,-0.0174532925199432,-0.1207767842380075,0.0565486677646162,31.95934741832169,18.998240292174547,0.12846377841302115
1403636905901666560,41.39924,832.5465507074142,6.791105125,-0.0653776666666666,-2.582417833333333,0.0432841654494593,0.0069813170079773,0.0963421747100869,24.013077987076283,18.806594752053925,-0.05510537813810856
1403636906401666560,49.78323,673.1682845945384,8.989429166666666,-0.1144109166666666,-2.4434902916666665,0.0928515162060983,0.0781907504893459,0.3588396942100341,14.92265088355712,17.42884434878456,-0.17140666769141077
1403636906901666560,40.250301,792.2467929382154,9.651378041666666,-0.5066769166666666,-4.46202575,-0.025830872929516,-0.0474729556542457,-0.0418879020478639,17.842228614437868,16.573452780436266,-0.0847914608024567
1403636907401666560,60.163736,795.7671852996444,8.490924458333334,0.6701210833333332,-5.336452041666667,0.0069813170079773,-0.0321140582366956,0.1494001839707146,16.96992344567407,15.215601718554824,-0.1424794879886644
1403636907901666560,60.425282,555.9134348358866,8.621679791666667,-0.0081722083333333,-3.587599458333333,-0.0530580092606276,0.2017600615305445,-0.0621337213709981,27.76506949802021,14.547692820014158,-0.0284420545366757
1403636908401666560,50.146341,590.5763124590259,7.542948291666666,0.3350605416666666,-2.729517583333333,0.0335103216382911,0.0321140582366956,0.0300196631343024,29.936208564167146,13.242400062662222,-0.08031243351819128
1403636908901666560,50.037145,543.1725093598906,10.288810291666666,0.53936575,-4.748053041666666,0.0335103216382911,-0.0083775804095727,0.1389282084587486,26.823021488420206,12.252951600509743,0.02552117422792577
1403636909401666560,50.111771,383.2801610302046,8.237585999999999,0.0898942916666666,-3.0809225416666663,-0.0593411945678072,0.0621337213709981,0.018151424220741,36.90478960748375,11.014601108433485,-0.210065825031041
1403636909901666560,49.626112,324.84133217632706,8.409202375,-0.1307553333333333,-2.69682875,-0.1682497398922533,-0.0006981317007977,-0.2268928027592628,31.43140174805497,9.74999803149877,0.027512810674860333
1403636910401666560,50.051927,443.3290319429106,10.190743791666666,0.0817220833333333,-3.8082490833333327,-0.0090757121103705,-0.057246799465414,0.1033234917180643,19.39447980720849,7.908049511246933,-0.1493602120092241
1403636910901666560,39.671421,410.2356531518788,9.013945791666666,-0.5557101666666666,-2.043052083333333,0.0579449311662117,0.0383972435438752,0.1151917306316257,17.485536368333083,6.906719178301785,-0.04008104106939747
1403636911401666560,49.874067,377.2762905815173,8.850501625,-0.2615106666666666,-3.661149333333333,-0.007679448708775,0.0942477796076938,0.1396263401595463,18.415467031236226,4.86819972704539,-0.17031810145516335
1403636911901666560,49.805403,325.8645310594128,8.499096666666667,0.7600153749999999,-3.4731885416666666,0.1054178868204575,-0.1703441349946465,0.3225368457685521,21.143999060219393,3.877947159376661,-0.19957685796180158
1403636912401666560,50.385952,393.6029011206078,10.599354208333333,0.0735498749999999,-4.494714583333333,-0.0111701072127637,-0.0558505360638185,0.1291543646475804,18.569323154690196,3.3214000564207673,-0.0624154398580159
1403636912901666560,60.429335,486.55337550954425,8.768779541666666,0.0817220833333333,-3.702010375,-0.0307177948351002,0.1117010721276371,0.0160570291183478,22.330936666378676,3.1423651775945247,0.1434565536004131
1403636913401666560,52.810192,586.8826472224013,10.44408225,0.563882375,-4.225031708333333,0.0132645023151569,-0.1305506280491758,0.1368338133563554,29.319345741140634,3.9125037123580424,-0.0945828145803147
1403636913901666560,38.157463,617.8079183492549,9.65955025,0.1797885833333333,-3.6448049166666654,-0.0202458193231342,0.0321140582366956,0.0670206432765822,31.606362815505936,4.457104424391202,0.08018558145639787
1403636914401666560,60.997963,632.4608922483001,10.043644041666663,-0.4985047083333333,-3.048233708333333,-0.0774926187885482,-0.046774823953448,0.0579449311662117,33.49236545999831,5.169657184504068,0.06871749876133126
1403636914901666560,41.294336,636.8024386143006,7.673703624999999,-0.24516625,-2.680484333333333,-0.0013962634015954,0.0488692190558412,0.0530580092606276,33.27770892239689,5.66047983566733,0.058751734621023566
1403636915401666560,61.054945,653.0932423002006,10.509459916666668,-0.1144109166666666,-3.28522775,0.0195476876223364,0.0621337213709981,0.0663225115757845,25.438836502976965,5.8584115036138185,-0.012917927166467003
1403636915901666560,45.493603,591.2555476718477,9.9047165,-0.5230213333333333,-3.358777625,-0.0174532925199432,0.0020943951023931,0.0474729556542457,26.50936663015931,6.094648442339184,0.13506009133762653
1403636916401666560,49.644232,570.3264127309369,9.643205833333331,0.220649625,-4.870636166666666,-0.0153588974175501,-0.0705113017805709,0.057246799465414,32.65610479283505,6.917830176375893,0.08075232331392179
1403636916901666560,46.964645,670.0128817183677,7.591981541666666,0.465815875,-1.5363751666666667,-0.1452113937659282,-0.0034906585039886,-0.0230383461263251,25.87140224029855,7.266476493970589,0.0068408939167285965
1403636917401666560,48.244953,462.5634337688076,9.430728416666666,0.5883989999999999,-2.40262925,-0.4237659423842232,0.0188495559215387,0.140324471860344,15.389877797219656,7.960221778723133,0.13384639897069306
1403636917901666560,49.79372,642.5284851801813,10.820003833333333,-0.5475379583333333,-3.849110125,-0.143116998663535,0.093549647906896,0.1577777643802873,13.057236543323231,8.581129220426531,0.04204447981628334
1403636918401666560,50.068617,476.5368306388527,8.768779541666666,-0.3105439166666667,-3.138128,0.0146607657167523,-0.2143264321449036,0.0670206432765822,1.464047680079123,9.002926513812612,-0.007493418991305845
1403636918901666560,51.076174,407.95136172499775,9.716755708333332,0.196133,-2.508867958333333,0.0307177948351002,0.2457423586808016,0.3895574890451343,21.927286067133096,8.926695424549717,0.1632912164889877
1403636919401666560,41.123867,594.9314443335844,8.834157208333334,-0.1470997499999999,-2.982856041666666,-0.179419847105017,-0.0006981317007977,-0.0048869219055841,31.752931575883448,9.783268515987272,0.11418137638495018
1403636919901666560,50.078154,728.7768669542565,10.484943291666664,0.8253930416666666,-3.6448049166666654,0.0349065850398865,0.0404916386462684,0.1068141502220529,19.680744202595168,10.298701902915731,0.02771426874651084
1403636920401666560,48.494101,526.6718867645718,10.190743791666666,-0.1307553333333333,-4.739880833333333,-0.0321140582366956,0.0523598775598298,-0.0809832772925368,17.912555386897612,9.939496602859045,0.054794044589231206
1403636920901666560,52.038431,718.4994670064227,9.161045541666669,0.1797885833333333,-2.770378625,-0.0006981317007977,-0.0726056968829641,0.0991347015132779,17.888590521500017,9.93175923948372,0.02817902742249956
1403636921401666560,49.68524,672.0356465948513,10.149882749999998,-0.3514049583333333,-4.020726499999999,0.0551524043630208,0.0984365698124801,0.2736676267127109,11.008000227947504,9.953506698790353,-0.028416472980767438
1403636921901666560,57.053327,703.360693624349,7.967903124999999,-0.0326888333333333,-2.018535458333333,-0.0537561409614253,0.2694788365079245,-0.0069813170079773,19.228378824655508,9.827335559853964,0.04718713209125447
1403636922401666560,41.032791,522.1215299684244,7.175198916666666,0.2288218333333333,-1.5527195833333332,-0.0488692190558412,-0.054454272662223,0.0621337213709981,18.671243658637852,10.02293505188212,0.0029943808908505787
1403636922901666560,48.03729,674.8547153436174,7.976075333333333,-0.0163444166666666,-4.429336916666666,-0.0530580092606276,0.2143264321449036,0.2659881780039358,12.291152897202851,10.254049764246716,0.030530798616549504
1403636923401666560,49.226284,408.0034147370886,10.092677291666664,-0.907115125,-3.947176625,-0.2122320370425104,-0.2722713633111154,0.0726056968829641,11.851129399317498,10.124492396898574,0.07345393300050596
1403636923901666560,49.963236,764.6646793586636,7.0689602083333325,-0.6210878333333334,-1.838746875,0.0390953752446729,-0.0349065850398865,0.2010619298297467,11.862886163880072,10.290462224278764,0.04815929206537106
1403636924401666560,48.287869,588.9768059428393,7.412192958333333,0.2941994999999999,-1.9531577916666665,0.1123992038284348,0.1808161105066125,0.268082573106329,5.735904633454054,11.2116936427487,0.12616350750064598
1403636924901666560,49.564839,699.2900803059455,9.455245041666666,-0.0163444166666666,-2.631451083333333,-0.1214749159388053,0.114493598930828,0.1179842574348166,16.29345922358986,12.115926293619248,0.13208001425532778
1403636925401666560,57.446718,470.6965645098837,8.809640583333332,-0.1552719583333333,-2.288218333333333,-0.1137954672300302,-0.2052507200345331,0.0816814089933346,21.957929815763112,12.972010942728227,0.01613844460859859
1403636925901666560,50.058842,455.57135720322,10.632043041666666,-0.2043052083333333,-4.4211647083333325,-0.0237364778271228,0.3783873818323706,0.0321140582366956,13.649107433504632,12.925419339725558,0.16240880827965753
1403636926401666560,50.45867,666.3979207009783,8.433719,0.5148491249999999,-3.489532958333333,0.0656243798749867,0.0244346095279206,0.1452113937659282,19.8712665047794,14.372798566522127,0.030608329351395014
1403636926901666560,50.252437,487.31548024896085,8.899534874999999,0.563882375,-3.563082833333333,-0.1668534764906579,-0.057246799465414,0.2841396022246769,11.610572139135506,6.812958608784873,0.1075670974530274
1403636927401666560,56.479931,304.40892780194,10.509459916666668,-0.3514049583333333,-4.0125542916666666,-0.3190461872645634,-0.2192133540504878,0.0397935069454707,21.102224443893736,7.277883125548145,-0.055431047812800394
1403636927901666560,49.679041,610.7790235472766,8.736090708333332,-0.0735498749999999,-2.574245625,-0.0013962634015954,0.124965574442794,0.1263618378443894,16.19535006672169,6.129518180163422,0.08603580118948795
1403636928401666560,49.571514,609.4198689998459,6.529594458333333,-0.2615106666666666,-2.0267076666666664,0.0125663706143591,0.171740398396242,0.0851720674973232,20.46965819813268,7.107607948282125,0.11936377147392019
1403636928901666560,49.962759,553.0884831261433,10.566665374999998,0.1879607916666666,-4.511059,-0.0272271363311115,-0.0356047167406843,0.0795870138909414,14.435826418876232,8.651603424645058,0.10645556059227879
1403636929401666560,50.020695,611.9949434144066,9.447072833333332,0.7763597916666666,-3.4404997083333333,-0.0174532925199432,0.0223402144255274,-0.0558505360638185,36.77017278839271,8.893689284812103,0.06081440187223741
1403636929901666560,49.666166,614.2503371618749,10.092677291666664,-0.024516625,-4.437509125,0.0216420827247296,0.0376991118430775,0.1556833692778942,21.880307888304312,9.421623825188403,0.028804028024485007
1403636930401666560,50.055743,501.97897674481504,10.73828175,-0.6864655000000001,-3.3751220416666667,-0.046774823953448,-0.0139626340159546,-0.0020943951023931,23.038805462307884,9.725895481714772,0.010631346892365556
1403636930901666560,49.287081,523.2095153521162,9.610517,0.0817220833333333,-3.2280222916666665,0.0230383461263251,-0.0055850536063818,0.3050835532486088,21.14865277384538,9.488912077749635,-0.0035162082532202987
1403636931401666560,49.013853,466.46855129005735,10.623870833333331,0.04903325,-4.404820291666666,-0.114493598930828,0.0481710873550434,-0.0139626340159546,28.862933118829282,9.813178794263656,-0.015454514868782354
1403636931901666560,49.364567,502.1138185075881,9.447072833333332,-0.4331270416666666,-3.3751220416666667,0.0356047167406843,-0.182212373908208,0.2562143341927675,25.83492138186544,9.495922359957317,-0.011055774013282615
1403636932401666560,49.874545,531.3179234991827,10.664731875,0.4086104166666666,-4.110620791666666,-0.0970403064108847,0.1005309649148733,-0.0621337213709981,19.071230459940892,8.977812263419791,-0.11344493285475998
1403636932901666560,50.377607,543.7991099970776,9.054806833333332,-0.4494714583333333,-2.2963905416666663,-0.1766273203018261,-0.1047197551196597,0.1598721594826805,8.170139091563797,6.237153825218065,-0.10136916857718603
1403636933401666560,50.073862,581.8215334843086,8.229413791666666,-0.196133,-2.950167208333333,-0.0404916386462684,-0.1731366617978375,0.1103048087260416,14.051179720868365,5.462765448061672,-0.06496713593245218
1403636933901666560,49.848079,697.0394486863589,9.308145291666667,0.0735498749999999,-3.67749375,0.0062831853071795,0.1766273203018261,0.1494001839707146,16.56066821132654,4.712237503244324,-0.0926495310646418
1403636934401666560,49.645901,407.96839087399593,8.597163166666666,0.5066769166666666,-2.89296175,-0.4970697709679851,0.0307177948351002,0.4098033083682685,15.112389817014748,4.309029737048967,0.12676584426002613
1403636934901666560,47.466994,610.921567454459,11.293991916666666,0.0735498749999999,-4.870636166666666,-0.2324778563656447,-0.1487020522699168,0.0607374579694026,21.375887821552713,5.514516232051793,-0.005879597693803973
1403636935401666560,49.668074,799.8440458238422,8.3356525,-0.3350605416666666,-3.342433208333333,0.0760963553869527,0.0153588974175501,0.140324471860344,26.05720124057346,5.91104304100003,-0.04443789030480172
1403636935901666560,49.732685,482.52729590145066,9.586000375,0.2124774166666666,-2.974683833333333,0.0034906585039886,-0.1598721594826805,-0.0055850536063818,26.921029942332964,5.37654548457702,-0.08098971986010728
1403636936401666560,45.934438,592.1862871836142,10.084505083333331,0.3268883333333333,-4.314926,-0.0370009801422797,0.1947787445225671,0.0670206432765822,33.51913928006101,5.373743353620943,0.10851602417962969
1403636936901666560,40.373564,795.0911802200324,8.711574083333332,-0.392266,-2.1983240416666665,-0.0628318530717958,0.0111701072127637,0.028623399732707,29.049579573107586,5.376950572441301,-0.06513284955477694
1403636937401666560,49.355745,814.5345047476378,10.051816249999998,-0.0980665,-3.8082490833333327,-0.0174532925199432,0.0090757121103705,0.0956440430092892,25.341659453164954,3.8929624256827666,-0.015401358264649279
1403636937901666560,48.463106,643.1966033101728,10.844520458333331,-1.2176590416666666,-3.178989041666666,-0.0998328332140756,0.2052507200345331,0.0097738438111682,23.419551579749122,4.148193764851068,-0.022970877798038636
1403636938401666560,49.677849,584.5354145913301,7.788114541666666,0.5311935416666667,-3.3751220416666667,0.0530580092606276,-0.0900589894029074,0.5592034923389831,22.70231519575394,5.442837786044227,0.294528031059186
1403636938901666560,41.307449,647.9846615938751,8.77695175,0.24516625,-2.018535458333333,-0.1710422666954443,-0.0565486677646162,-0.2771582852166995,23.233164397301493,6.204709250583204,0.011155597657277028
1403636939401666560,56.370258,804.0755100560431,10.820003833333333,0.4004382083333333,-3.9390044166666662,0.0356047167406843,0.0837758040957278,0.0593411945678072,38.137926633178616,6.482975799818975,0.021234297669534108
1403636939901666560,49.797058,698.5848680157727,8.155863916666666,-0.220649625,-3.219850083333333,0.0390953752446729,0.0041887902047863,0.1808161105066125,38.68819868619872,7.528400547788179,0.10289818667034822
1403636940401666560,42.20128,591.8078739196463,9.398039583333333,-0.3595771666666666,-3.92266,-0.0551524043630208,0.0034906585039886,0.1989675347273535,46.98064180600366,8.625344265895874,0.4176342496625409
1403636940901666560,53.261996,591.4377785321444,8.662540833333333,-0.563882375,-2.59876225,-0.0886627260013119,-0.0998328332140756,-0.0397935069454707,52.999240977437054,11.588286236182254,0.3004254695777213
1403636941401666560,38.264036,692.6348894107732,7.690048041666667,-0.7191543333333333,-2.79489525,0.0446804288510548,0.0823795406941323,-0.0251327412287183,50.31407717010492,13.37665446874765,0.19398347772980884
1403636941901666560,50.267219,720.3605223647769,9.520622708333333,-0.5311935416666667,-3.603943875,-0.0279252680319092,-0.0383972435438752,0.0048869219055841,46.61420354989184,15.057117437783374,0.16924848576196894
1403636942401666560,39.730787,716.6912656290955,7.79628675,-0.1062387083333333,-2.1002575416666667,0.0230383461263251,0.0376991118430775,0.1626646862858715,42.71724959116275,17.521483752428814,0.11159688762651854
1403636942901666560,37.407875,717.1119629623943,9.275456458333332,0.1634441666666666,-4.306753791666666,-0.0781907504893459,0.1158898623324234,-0.0223402144255274,51.61127997403019,20.686022518776124,0.2659182960903266
1403636943401666560,60.190439,804.1592929265726,7.567464916666665,-0.7927042083333332,-2.459834708333333,-0.046774823953448,0.0244346095279206,0.0628318530717958,51.05346986973524,23.197400526395306,-0.12262069694998345
1403636943901666560,47.726155,447.9583678893368,7.305954249999999,-0.6782932916666666,-1.8224024583333327,0.1123992038284348,-0.1850049007113989,0.0020943951023931,51.491815767885285,25.450666782809105,0.3053026197627453
1403636944401666560,60.18591,560.7906245048358,10.852692666666666,0.3759215833333333,-2.7213453750000003,-0.0356047167406843,0.317649923862968,-0.1389282084587486,47.01391323236829,29.052629192125934,-0.2530440376231802
1403636944901666560,52.006721,559.8756494712799,11.007964625,-0.1797885833333333,-3.3751220416666667,0.124965574442794,0.0090757121103705,0.1242674427419962,28.98772903979679,29.68017517068847,0.7442938105184638
1403636945401666560,47.290802,710.6760693371347,10.182571583333331,0.3023717083333333,-4.110620791666666,-0.0125663706143591,-0.0062831853071795,0.0719075651821663,14.754184768338044,31.713413917463395,0.15985587082845143
1403636945901666560,50.012111,679.2073012764499,10.558493166666668,-0.5311935416666667,-4.233203916666667,-0.0013962634015954,-0.0153588974175501,0.1619665545850737,11.086422391351052,33.174094926385834,0.04508300364642537
1403636946401666560,59.932232,675.6486617531216,9.773961166666666,-0.2615106666666666,-2.1492907916666666,-0.0160570291183478,0.0488692190558412,0.0970403064108847,23.793805481335774,33.125329949687824,-0.09110597290343492
1403636946901666560,49.822807,554.2262563658801,7.453054,1.1114203333333332,-3.636632708333333,0.0349065850398865,0.0167551608191455,0.2143264321449036,33.05402653702303,34.459695839110125,0.03065124177019385
1403636947401666560,50.494432,392.40806736102775,9.36535075,-0.4903325,-4.707191999999999,-0.0879645943005142,-0.1661553447898601,-0.0760963553869527,26.448943092020162,34.86631668776546,0.05953924084609952
1403636947901666560,59.965849,517.9967694296874,8.907707083333333,-0.6946377083333333,-3.2525389166666665,-0.0663225115757845,0.0516617458590321,-0.0851720674973232,14.740525097177743,33.83193087605778,-0.07724008475064181
1403636948401666560,49.685001,554.5616425482399,9.332661916666666,0.0572054583333333,-4.233203916666667,0.0139626340159546,0.0335103216382911,-0.007679448708775,2.5280506232288604,32.72825409882564,-0.1405928830767209
1403636948901666560,49.508333,373.22024205396,9.242767625,0.04903325,-3.8654545416666655,0.1912880860185785,0.1864011641129944,0.4635594493296939,21.22346689224582,30.40421117627705,-0.24798014911167598
1403636949401666560,50.569534,512.7066106581154,9.651378041666666,-0.1307553333333333,-4.797086291666667,0.064926248174189,0.0209439510239319,0.2303834612632515,36.48184627871531,28.381630567724557,-0.20070174353127612
1403636949901666560,47.707558,413.6291654089084,8.3356525,0.465815875,-2.8439285,-0.0565486677646162,-0.1542871058762987,-0.0195476876223364,29.058035261950927,27.376247430622964,-0.16648410842126538
1403636950401666560,62.377215,511.9867509783492,9.896544291666666,0.416782625,-5.025908124999999,-0.0188495559215387,0.2590068609959585,-0.0062831853071795,20.41613132914962,25.707161147439166,-0.18515938300184231
1403636950901666560,49.465656,587.8795189295929,9.56148375,-0.2533384583333333,-4.16782625,0.0279252680319092,0.0370009801422797,0.1884955592153876,21.935914974223657,23.92851674934159,-0.22391682408102653
1403636951401666560,49.959659,483.5938451483393,8.842329416666665,-0.1307553333333333,-2.9338227916666666,-0.0740019602845595,-0.2087413785385218,-0.0048869219055841,28.611438531166428,22.17993406086921,-0.15078853897802347
1403636951901666560,60.780287,362.74190124906977,9.471589458333332,-0.0980665,-2.132946375,-0.0998328332140756,0.0293215314335047,-0.104021623418862,23.575754695012627,19.521480455827724,-0.36594960762861817
1403636952401666560,48.208475,308.3020183765201,8.629852,0.0572054583333333,-3.0400615,0.0621337213709981,0.0272271363311115,0.228987197861656,29.58498868368934,16.301149940952193,-0.1629284118343719
1403636952901666560,59.051275,239.90214698592337,6.693038625,0.0653776666666666,-1.985846625,0.007679448708775,-0.1940806128217694,0.1808161105066125,28.672408917074794,14.634968126580212,-0.03359852523940532
1403636953401666560,61.630965,278.9647816041013,9.684066875,-0.024516625,-3.342433208333333,-0.0069813170079773,0.1521927107739055,-0.0446804288510548,26.959810301680555,13.804606529689908,-0.14222465151219943
1403636953901666560,42.771339,276.6522643576248,10.411393416666668,-0.7436709583333333,-3.947176625,0.0272271363311115,0.0460766922526503,0.1766273203018261,24.046200309724572,12.486018739735332,-0.03958969137460677
1403636954401666560,49.444914,322.85521923756903,7.387676333333332,0.1634441666666666,-2.8847895416666667,-0.0321140582366956,-0.0677187749773799,-0.007679448708775,38.25717203912867,11.868520739789448,-0.08625573589613111
1403636954901666560,40.39216,328.67573153399326,8.752435125,-0.0081722083333333,-4.0125542916666666,-0.0551524043630208,0.1179842574348166,0.21851522234969,41.46735800845847,11.38476290077155,-0.06902513087210771
1403636955401666560,60.302735,370.40832219500834,8.319308083333333,0.6210878333333334,-3.28522775,-0.1298524963483781,-0.0691150383789754,0.0740019602845595,42.35462496707196,10.445524792798935,-0.5225242720362733
1403636955901666560,47.935724,410.3364468740373,10.73828175,0.0817220833333333,-3.072750333333333,-0.0083775804095727,0.0621337213709981,0.1975712713257581,50.618177441458414,10.87669275716841,0.061382044576957284
1403636956401666560,49.922466,570.779518465305,10.926242541666667,0.1470997499999999,-4.3312704166666665,-0.1480039205691191,-0.0851720674973232,-0.1836086373098034,50.83361146912534,10.907624818266996,-0.12050985759585586
1403636956901666560,53.431749,323.1777550718768,8.270274833333334,-1.1686257916666667,-1.6916471249999998,0.5222025121967034,-0.1068141502220529,-0.1103048087260416,40.94427999548704,9.523327777001851,-0.07598544327379564
1403636957401666560,50.293445,418.0768117996169,7.828975583333331,0.122583125,-2.3699404166666667,0.2946115777366427,-0.0537561409614253,0.0307177948351002,28.608820113873428,5.802166981448824,0.02171361369935454
1403636957901666560,50.004482,323.82907666997414,8.082314041666667,0.4331270416666666,-2.476179125,0.6220353454107791,0.0942477796076938,-0.0893608577021096,20.066032860581757,5.237260130355491,0.21308310862392155
1403636958401666560,49.872875,468.4154832340991,10.231604833333332,0.2778550833333333,-4.028898708333333,0.296705972839036,0.0244346095279206,-0.1584758960810851,12.490311724647299,6.898846594623864,-0.3744389873079461
1403636958901666560,47.593116,579.0867872935461,7.959730916666666,-0.3840937916666667,-3.170816833333333,-0.028623399732707,-0.0760963553869527,0.0802851455917391,11.51908216133322,4.26963526660042,0.07782387776987854
1403636959401666560,50.082683,646.1392723309833,8.638024208333333,-0.1552719583333333,-2.770378625,-0.0614355896702004,0.0272271363311115,0.025830872929516,3.0677658542047928,6.605731104616368,0.0919345048920368
1403636959901666560,60.482025,635.540782184147,9.520622708333333,0.2778550833333333,-3.4813607499999994,-0.0565486677646162,0.0202458193231342,0.075398223686155,10.970595582458179,8.493224584043297,0.04628009331520211
1403636960401666560,60.704708,578.4087804387324,8.147691708333333,-0.220649625,-2.982856041666666,0.0237364778271228,0.1591740277818828,0.0,14.075247760579709,7.827782354440588,0.06529150117241933
1403636960901666560,45.926094,396.3613683127792,9.234595416666666,-0.83356525,-4.208687291666666,0.3441789284932817,-0.1438151303643327,0.0600393262686049,23.38297280464865,8.980079015259015,0.19682747657511968
1403636961401666560,40.754795,455.48348396739135,7.935214291666666,-0.0408610416666666,-3.4731885416666666,0.3755948550291797,-0.0041887902047863,-0.1480039205691191,28.34971665113964,11.492874420040218,0.23856455802845566
1403636961901666560,63.263178,412.67907782740417,9.250939833333334,-0.9234595416666666,-3.113611375,0.3895574890451343,0.0034906585039886,-0.007679448708775,33.39362364169873,11.684747849658908,0.1346032650002531
1403636962401666560,39.503098,378.4982902169274,10.158054958333333,0.1879607916666666,-5.418174124999999,0.4300491276914028,0.0509636141582344,-0.0942477796076938,30.02796930462454,11.352119022989612,0.2595026917605665
1403636962901666560,50.275087,445.354725990616,7.779942333333333,-0.3759215833333333,-2.69682875,0.2275909344600605,0.0481710873550434,0.1026253600172665,32.43349712739845,15.334965789731736,0.1985033246931618
1403636963401666560,39.82544,666.0775046665523,7.493915041666666,1.054214875,-3.309744375,-0.0516617458590321,0.0139626340159546,0.1710422666954443,33.5947406200111,15.106898713449802,0.07860288709079022
1403636963901666560,46.87357,582.4034297517419,8.221241583333333,0.171616375,-2.770378625,-0.0425860337486616,0.0195476876223364,0.0607374579694026,32.663971321222014,16.25437739814962,0.28611368373057644
1403636964401666560,49.957991,539.0292772110021,8.793296166666666,-0.3268883333333333,-2.40262925,0.0048869219055841,0.0307177948351002,0.0335103216382911,37.83213142073088,19.510373064052295,0.3231523292984342
1403636964901666560,50.166607,289.6829581692757,9.36535075,-0.0980665,-3.162644625,0.5012585611727715,0.0712094334813686,0.0774926187885482,42.86755970289664,19.748687763456807,-3.0553054907995687
1403636965401666560,49.749613,311.4265865618616,10.623870833333331,0.8825985,-3.6202882916666654,0.124965574442794,-0.4454080251089529,0.0684169066781777,59.23978080269201,24.879629446282873,0.6200662514305932
1403636965901666560,50.084114,470.7416895847369,9.038462416666666,0.2288218333333333,-3.4731885416666666,-0.1305506280491758,0.057246799465414,-0.0733038285837618,71.49575113625497,32.60891983029826,0.7981620128111828
1403636966401666560,50.382614,333.7290390195856,9.75761675,-0.416782625,-4.380303666666666,0.1110029404268393,0.0956440430092892,0.4412192349041665,62.60835507614192,40.55639538960192,0.5069050910346178
1403636966901666560,49.751521,456.4969404600132,9.438900625,0.465815875,-2.672312125,-0.0006981317007977,-0.0104719755119659,0.1417207352619395,53.85477321780308,44.38735350994546,0.41853233819584545
1403636967401666560,48.024892,536.7169297031386,11.694430124999998,-0.367749375,-3.636632708333333,-0.0293215314335047,-0.0146607657167523,0.0781907504893459,45.40567751123632,47.636311695968544,0.2801674977988995
1403636967901666560,40.65299,494.921145744886,9.978266375,0.34323275,-4.584608875,0.0146607657167523,0.075398223686155,0.0691150383789754,63.121908388704476,17.516995997330998,0.23629192780132158
1403636968401666560,37.168741,438.26793725319936,8.956740333333332,0.2124774166666666,-3.268883333333333,-0.0125663706143591,0.054454272662223,0.0663225115757845,58.800325405418455,17.216610949673715,-0.07540649692663237
1403636968901666560,52.794694,416.25261231693696,8.556302125,0.5311935416666667,-2.966511625,0.0663225115757845,0.0097738438111682,0.2227040125544764,50.967128004969,16.941008875382607,-0.016688222197263514
1403636969401666560,49.995422,606.6429117127448,10.239777041666668,0.0980665,-3.211677875,-0.0020943951023931,-0.1787217154042193,0.0795870138909414,51.797018640583005,4.967497435007781,0.048002986005683645
1403636969901666560,52.139521,640.5054994191681,8.343824708333333,0.3514049583333333,-2.819411875,-0.054454272662223,0.0921533845053006,-0.0125663706143591,49.895728341840275,6.143839713603868,-0.5977823047217159
1403636970401666560,60.240507,481.508736228845,9.161045541666669,0.6456044583333332,-3.636632708333333,-0.0132645023151569,-0.1703441349946465,0.0223402144255274,51.47548146269511,5.6731985711998565,0.07229889310261495
1403636970901666560,47.334671,660.589128555997,9.504278291666663,-0.1062387083333333,-4.094276375,0.0300196631343024,-0.2024581932313422,0.0872664625997164,49.09795940389869,7.027600719882707,0.1250894637516664
1403636971401666560,50.187588,749.6072527323402,7.575637124999999,-0.4739880833333333,-3.260711125,0.0460766922526503,0.15079644737231,0.1347394182539622,44.53496920352116,7.468129212279684,0.12173987832526212
1403636971901666560,49.803972,751.9643874564399,9.872027666666666,-0.7028099166666667,-4.020726499999999,-0.0104719755119659,0.0851720674973232,0.0370009801422797,27.719562677672016,7.829933753518563,0.010929898482262779
1403636972401666560,56.833983,818.1710173874089,10.329671333333332,0.1062387083333333,-5.173007875,-0.0328121899374933,0.0614355896702004,-0.0041887902047863,13.333211311997214,7.990361366414993,0.030518176497581706
1403636972901666560,50.286769,856.5541171960165,8.613507583333332,0.7109821249999999,-2.754034208333333,-0.0628318530717958,0.0083775804095727,0.0453785605518525,7.021659777687733,8.016934501116319,0.004940579626781627
1403636973401666560,43.026209,851.5153295108827,7.395848541666666,-0.3840937916666667,-2.0267076666666664,-0.1452113937659282,-0.0034906585039886,0.0509636141582344,8.740454294908602,8.114320507864246,-0.002698391249502663
1403636973901666560,39.390325,879.8731110713913,11.661741291666669,0.5230213333333333,-3.1054391666666663,0.0293215314335047,0.0970403064108847,0.1110029404268393,16.628266579300988,7.909714187081039,-0.014749318896074115
1403636974401666560,49.881936,559.492411944814,7.804458958333332,-0.8662540833333333,-2.312734958333333,-0.5878268920716901,0.0712094334813686,0.260403124397554,6.567155380401878,8.121663002909388,0.01839030726969071
1403636974901666560,49.330711,562.512164340526,8.97308475,-0.5311935416666667,-4.396648083333333,-0.3881612256435388,-0.1054178868204575,0.4021238596594935,14.906475735109536,8.03013646480876,-0.004257735205714042
1403636975401666560,49.836159,950.9688581979772,8.474580041666666,-0.0326888333333333,-2.5905900416666663,-0.1528908424747032,-0.0446804288510548,0.0216420827247296,5.445429962054236,7.837922240327765,-0.08363253325860587
1403636975901666560,62.05821,872.0455131543349,9.912888708333332,-0.0081722083333333,-3.97169325,-0.189891822616983,-0.0083775804095727,0.2513274122871834,2.714749624741515,7.619268044865433,-0.013759722406000208
1403636976401666560,42.063237,608.4138101432219,8.883190458333333,-0.2288218333333333,-3.963521041666666,-0.520806248795108,0.0614355896702004,0.2666863097047335,5.670578794546816,6.39571910471526,-0.1303542339325663
1403636976901666560,49.046039,604.5397668078191,10.615698625,-0.4903325,-3.710182583333333,-0.0705113017805709,-0.0390953752446729,0.1186823891356144,21.739599451656115,6.715059251115751,0.05377155438787984
1403636977401666560,50.366878,606.9414102554533,9.1201845,-0.661948875,-3.18716125,0.0223402144255274,0.0865683308989187,-0.0027925268031909,17.192471237811233,7.007068611912377,-0.011171123615293155
1403636977901666560,61.020851,768.601753690923,11.52281375,-0.4331270416666666,-3.603943875,-0.0586430628670094,-0.0006981317007977,0.0376991118430775,23.268845352023558,6.936526539539782,0.03619293918718558
1403636978401666560,55.086374,658.1050245289736,8.523613291666665,-0.171616375,-4.233203916666667,-0.0390953752446729,-0.1410226035611418,0.0006981317007977,28.106125409395815,7.736716026956159,0.01702766158016278
1403636978901666560,50.111055,500.97025676247017,9.724927916666667,0.1879607916666666,-2.1983240416666665,0.0432841654494593,0.1584758960810851,0.1340412865531645,26.813031871837858,7.713744028405143,0.06848181042988077
1403636979401666560,50.024509,543.227695057926,9.618689208333333,0.2941994999999999,-4.208687291666666,-0.0481710873550434,-0.2199114857512855,0.025830872929516,18.89288979865455,7.0972843779831205,-0.015342732048328145
1403636979901666560,47.821522,484.3625930664944,8.074141833333334,-0.2124774166666666,-3.563082833333333,-0.0453785605518525,0.0977384381116824,0.1570796326794896,20.929960020499365,5.549888137193109,-0.172272388580752
1403636980401666560,43.384075,652.1035998959434,7.779942333333333,0.5066769166666666,-2.190151833333333,0.0216420827247296,0.1738347934986352,0.1884955592153876,18.766329654563688,4.65074439473154,0.39155052215828423
1403636980901666560,45.177222,623.9486475387627,10.844520458333331,0.0408610416666666,-4.731708625,-0.0279252680319092,-0.1738347934986352,-0.0376991118430775,5.618768079214401,3.6839176395638726,0.01660324293801052
1403636981401666560,49.571991,668.5711413642297,7.387676333333332,0.5883989999999999,-2.181979625,-0.0188495559215387,0.0342084533390888,0.1850049007113989,16.046135472477683,11.629967795752396,-0.07387611062461197
1403636981901666560,49.590111,550.4896157623397,8.564474333333333,-0.1307553333333333,-2.2555295,-0.0740019602845595,-0.1815142422074102,0.0328121899374933,6.829400315632769,10.168716466228146,-0.6853171933367044
1403636982401666560,49.688816,372.63057522532506,10.6892485,-0.6456044583333332,-4.037070916666667,0.0635299847725936,0.2555162024919699,0.2213077491528809,25.960675579973834,7.5986561745354955,-0.2607679019809295
1403636982901666560,42.981386,626.5319654120896,8.981256958333333,0.0898942916666666,-2.974683833333333,-0.0586430628670094,-0.0628318530717958,-0.0474729556542457,29.734509713464924,4.9200823951218045,-0.21834808041410536
1403636983401666560,49.268484,626.102542768603,10.207088208333332,0.5557101666666666,-2.819411875,-0.0495673507566389,0.0209439510239319,0.0048869219055841,19.29765731736132,3.366303078230464,-0.11413528060479639
1403636983901666560,46.146393,639.4254703654392,10.746453958333332,0.3268883333333333,-4.159654041666666,-0.0886627260013119,-0.0460766922526503,0.1012290966156711,18.50182854387567,2.754072279752316,-0.06665092835368691
1403636984401666560,39.150715,591.0763128819599,6.840138375,0.6292600416666666,-2.8766173333333334,-0.0404916386462684,0.0663225115757845,0.0740019602845595,35.25356739082145,3.279914348072831,0.6890778332313219
1403636984901666560,49.788475,596.3737524469017,8.687057458333333,-0.2533384583333333,-3.685665958333333,0.0460766922526503,-0.0376991118430775,0.265290046303138,31.1613969384136,3.7821347444490514,1.265832366582723
1403636985401666560,56.607008,566.7343539371765,10.337843541666668,-0.2043052083333333,-3.18716125,0.1626646862858715,-0.0153588974175501,-0.0251327412287183,32.111058774084825,3.630608494608721,-0.0006601541736332983
1403636985901666560,50.591946,278.91611733365164,9.087495666666666,0.7600153749999999,-2.811239666666667,0.075398223686155,0.4796164784480418,0.0160570291183478,39.98156904316787,3.982486085220502,-0.014429236092230902
1403636986401666560,50.584555,508.7130416918162,9.112012291666666,0.196133,-3.170816833333333,0.0607374579694026,-0.0551524043630208,0.2150245638457014,41.34386124747974,4.3022311488098275,0.1187131323403694
1403636986901666560,49.697876,610.9950277464435,8.907707083333333,0.8580818749999999,-3.603943875,0.0621337213709981,0.0488692190558412,0.0998328332140756,46.623190685088176,6.20615684987354,0.17076782580301586
1403636987401666560,49.71242,525.7144803786815,9.283628666666663,-0.171616375,-2.4516625,0.0244346095279206,0.1207767842380075,0.0202458193231342,46.776246509364135,7.059649817026843,0.09118926878725286
1403636987901666560,47.635794,566.5884016881647,9.250939833333334,0.0408610416666666,-3.6284605,0.0774926187885482,-0.0977384381116824,0.1773254520026238,39.129401970510855,6.97298252517823,0.06042149925068152
1403636988401666560,50.246,504.0908936263343,10.73828175,0.8499096666666667,-3.4977051666666665,0.0307177948351002,0.2115339053417127,0.1158898623324234,32.36585514591886,7.44608386360373,0.13439269404525866
1403636988901666560,38.814545,670.7827345133966,9.7085835,-0.44129925,-4.339442625,-0.0251327412287183,0.0677187749773799,0.1619665545850737,13.356267972030587,7.642505953545414,-0.046535767162120045
1403636989401666560,49.941539,366.7809898484607,9.888372083333332,-0.465815875,-2.7131731666666665,-0.0809832772925368,-0.2806489437206881,-0.0914552528045028,13.701567582299292,7.131087448478213,-0.11352424603558209
1403636989901666560,50.673485,600.5815171008468,9.635033625,0.0653776666666666,-3.3260887916666664,0.0460766922526503,0.1298524963483781,0.1549852375770964,23.12874121353346,6.699823907613293,0.0029546165024498805
1403636990401666560,60.344457,662.1595823156126,8.621679791666667,-0.4004382083333333,-2.557901208333333,0.0446804288510548,-0.0579449311662117,0.1047197551196597,22.54509297894291,7.955375184135429,0.2860606292832264
1403636990901666560,50.124407,755.5967833652883,8.351996916666666,-0.907115125,-2.288218333333333,0.0244346095279206,-0.0516617458590321,0.1459095254667259,23.228110030889283,8.989833642222623,0.35391266015649414
1403636991401666560,60.390234,760.1294951295351,11.089686708333334,-0.024516625,-3.702010375,-0.0418879020478639,0.0279252680319092,0.0921533845053006,31.786397627697948,8.360118153810795,0.12058282504239948
1403636991901666560,47.5564,802.1097766626513,9.422556208333331,0.0408610416666666,-4.2168595,0.0006981317007977,0.0376991118430775,0.1633628179866692,11.637711826076863,9.318228463938802,0.2153855828538287
1403636992401666560,50.094605,675.8110006675646,9.291800875,0.0980665,-2.778550833333333,-0.0558505360638185,-0.0600393262686049,0.0125663706143591,19.051709191619846,9.494484177524528,-0.0020689484518996437
1403636992901666560,50.169945,861.0932351524469,9.471589458333332,0.5311935416666667,-2.8847895416666667,-0.0914552528045028,0.0740019602845595,0.0188495559215387,14.554059587771699,9.322092751591244,0.009899211087860849
1403636993401666560,47.209263,626.3444296259813,11.375714,-0.3350605416666666,-3.415983083333333,0.3469714552964727,-0.0237364778271228,-0.0125663706143591,11.507333839441653,10.227871021133213,0.12408745318530734
1403636993901666560,39.309025,815.4270559644873,7.485742833333332,-0.122583125,-1.3647587916666666,0.1082104136236484,-0.0062831853071795,-0.1075122819228507,3.453262534740878,10.40221764669928,0.1279231400590337
1403636994401666560,42.794943,909.3642648509532,10.190743791666666,-0.0980665,-3.2443667083333327,-0.054454272662223,0.1445132620651305,0.0670206432765822,17.85962998586345,11.847081640284832,-0.20120437418974646
1403636994901666560,47.687769,856.7871302232214,9.177389958333332,-0.5965712083333333,-2.312734958333333,0.0300196631343024,-0.143116998663535,0.2178170906488923,19.638840212520194,12.78368161565534,0.19046636904752212
1403636995401666560,38.825751,819.5533081817284,10.207088208333332,-0.4004382083333333,-2.8357562916666668,-0.0314159265358979,-0.1158898623324234,0.0104719755119659,19.67973857163474,14.13866704142979,0.3504500303468987
1403636995901666560,37.81724,862.5199441977311,8.270274833333334,0.4903325,-2.018535458333333,0.0390953752446729,-0.0223402144255274,0.208043246837724,8.160683794376359,15.23957399935694,0.09787385658703407
1403636996401666560,49.100399,985.0236698502264,11.073342291666666,-0.5883989999999999,-3.3751220416666667,0.1103048087260416,-0.018151424220741,0.0719075651821663,15.332264220656006,15.820557498178148,0.1622199913072695
1403636996901666560,61.469316,699.6464822625467,7.7472535,0.4821602916666666,-2.770378625,0.4691445029360757,0.0404916386462684,-0.1012290966156711,8.73041247994627,17.222970416473483,0.18074817028483636
1403636997401666560,48.971176,1014.1552581669224,11.612708041666664,0.5720545833333333,-4.306753791666666,0.0865683308989187,0.0300196631343024,0.0586430628670094,28.63132031270451,15.18868642852597,0.14368184229891234
1403636997901666560,49.654007,1149.4604004853047,9.087495666666666,-0.318716125,-2.778550833333333,0.0153588974175501,0.0481710873550434,0.1333431548523667,15.513820902211211,16.448332063521118,0.1266889371136628
1403636998401666560,49.896956,1132.782292420665,9.610517,-0.907115125,-2.7622064166666664,-0.0349065850398865,-0.0432841654494593,0.1263618378443894,21.09348549854324,17.6679840537612,0.3159139047972843
1403636998901666560,48.574686,1095.9838311754918,10.721937333333331,0.171616375,-3.92266,-0.0390953752446729,0.0279252680319092,0.0237364778271228,22.685621242859508,18.27840464862656,0.06231470656071636
1403636999401666560,49.368143,1054.621047427475,8.049625208333332,-0.0653776666666666,-3.97169325,0.0251327412287183,0.0579449311662117,0.2150245638457014,18.2981581389458,19.132506830087166,0.0948981825280697
1403636999901666560,60.027361,1111.6793533786772,11.988629624999998,-0.367749375,-4.110620791666666,-0.0237364778271228,0.0432841654494593,0.0272271363311115,23.5348487820925,19.461154481238832,-0.5331399058796435
1403637000401666560,48.481464,1141.8042940278594,6.848310583333333,0.5148491249999999,-2.2228406666666665,0.0558505360638185,0.0453785605518525,0.1843067690106012,26.040816157756268,20.652936538166138,0.14416433400210238
1403637000901666560,49.643278,1080.47079834362,9.422556208333331,-0.2124774166666666,-2.745862,-0.0279252680319092,-0.0132645023151569,0.0837758040957278,29.800424353113964,22.14147730053962,0.12501661556300547
1403637001401666560,49.772739,986.4362327454492,10.125366125,0.8253930416666666,-3.162644625,0.0460766922526503,-0.0153588974175501,0.1661553447898601,32.81727311013779,24.043955763806043,0.20268709591090328
1403637001901666560,42.0475,1035.429339041909,9.46341725,-0.04903325,-4.347614833333333,-0.018151424220741,0.0230383461263251,0.0837758040957278,29.534424447064506,26.148595979536648,0.18739175339494807
1403637002401666560,49.54338,1022.6366138643874,9.896544291666666,0.0081722083333333,-3.2361945,-0.0251327412287183,-0.0174532925199432,0.0195476876223364,33.09297666712843,27.77917063305902,0.1615250155326322
1403637002901666560,38.689137,1017.6461733505456,9.536967125,-0.7028099166666667,-3.2770555416666665,0.0188495559215387,0.0670206432765822,0.2366666465704311,28.0362157204405,29.626028525285598,0.1455191269855014
1403637003401666560,51.409483,987.1038791631664,9.716755708333332,0.5883989999999999,-2.9583394166666666,-0.0279252680319092,0.1375319450571531,0.0600393262686049,33.61578959469747,31.349888515824592,0.6115526761963359
1403637003901666560,61.488629,971.9623253081176,9.5124505,-0.0817220833333333,-3.2770555416666665,0.025830872929516,-0.064926248174189,0.0558505360638185,28.18677755242734,33.3209143240046,0.17593613808003994
1403637004401666560,50.670624,1173.813234252768,9.961921958333331,0.809048625,-2.5660734166666663,0.0390953752446729,0.1005309649148733,0.161268422884276,29.772254262536478,34.66025652017279,-0.010190190044696124
1403637004901666560,49.969911,1018.7903950575552,7.207887749999999,0.9398039583333332,-1.4137920416666665,-0.0209439510239319,-0.0523598775598298,0.1075122819228507,23.18838073608029,36.45551927531774,0.16190248268188157
1403637005401666560,62.922716,679.6121065842786,10.607526416666667,0.4086104166666666,-3.138128,0.0321140582366956,0.0928515162060983,0.0370009801422797,28.615203222029994,38.12585803406192,0.04277026574651188
1403637005901666560,50.689697,593.867456893349,8.654368624999998,0.9724927916666666,-2.6886565416666666,-0.0132645023151569,0.075398223686155,-0.0083775804095727,18.030477240816104,38.77387775038229,-0.06537187466394556
1403637006401666560,49.891949,480.1133319567036,7.886181041666666,-0.4249548333333333,-2.819411875,0.0293215314335047,-0.1619665545850737,0.1815142422074102,11.403746900703753,42.07013422379929,2.0318642968386698
