stamp,img_delta,blur,lin_acc.x,lin_acc.y,lin_acc.z,ang_vel.x,ang_vel.y,ang_vel.z
1403637130588318976,12.408971,637.8556865883058,9.430728416666666,-0.9724927916666666,-2.582417833333333,-0.02722713633111154,0.02234021442552742,0.07749261878854824
1403637130638319104,49.544573,640.3091062604892,9.561483749999999,-0.4494714583333333,-2.3290793749999996,0.005585053606381855,0.025132741228718346,0.048869219055841226
1403637130688318976,49.108029,630.6691818860056,9.406211791666665,-1.1522813749999998,-2.263701708333333,-0.03560471674068433,-0.011868238913561441,0.0991347015132779
1403637130738319104,50.578117,626.9686668439666,8.956740333333332,-1.0215260416666667,-2.5006957499999998,0.020943951023931952,0.0307177948351002,0.08028514559173915
1403637130788318976,48.454046,634.9836019699829,9.324489708333333,-0.6864655000000001,-2.3944570416666666,-0.008377580409572781,0.05445427266222308,0.07539822368615504
1403637130838319104,51.172972,627.4339396806555,9.054806833333332,-1.0378704583333334,-2.378112625,-0.0020943951023931952,0.047472955654245766,0.08517206749732328
1403637130888318976,49.791813,635.4799285222092,9.553311541666666,-0.7028099166666667,-2.4925235416666665,0.02652900463031381,0.04468042885105484,0.12845623294678266
1403637130938319104,50.258875,644.8223902856456,9.275456458333332,-0.6782932916666666,-2.378112625,-0.0006981317007977319,0.025132741228718346,0.06073745796940267
1403637130988318976,56.833744,642.8629792619404,9.308145291666667,-0.53936575,-2.5252123749999997,-0.019547687622336492,0.024434609527920613,0.06632251157578452
1403637131038319104,55.761575,633.5327625401105,9.675894666666666,-0.13075533333333333,-2.378112625,0.019547687622336492,0.016755160819145562,0.06981317007977318
1403637131088318976,37.025214,633.3088790636363,9.406211791666665,-0.9234595416666666,-2.3127349583333334,-0.009773843811168246,-0.009773843811168246,0.08237954069413235
1403637131138319104,49.960375,617.721761145618,9.536967125,0.34323275000000003,-2.811239666666667,0.04817108735504349,0.0020943951023931952,0.1361356816555577
1403637131188318976,49.554824,638.3828152561987,9.684066875,-0.9152873333333333,-2.3944570416666666,-0.014660765716752367,0.01884955592153876,0.03560471674068433
1403637131238319104,50.710678,642.3772024578884,9.7085835,-0.612915625,-2.476179125,0.0027925268031909274,0.014660765716752367,0.1054178868204575
1403637131288318976,57.061673,641.9685366047413,9.536967125,-0.5557101666666666,-2.5170401666666664,-0.039095375244672985,0.016057029118347832,0.04537856055185257
1403637131338319104,43.052196,643.7844913441031,9.569655958333334,-0.7600153749999999,-2.574245625,0.006981317007977318,0.028623399732707,0.08936085770210968
1403637131388318976,49.707413,630.6553932354956,9.855683249999998,-0.6047434166666666,-2.1983240416666665,0.032114058236695664,0.008377580409572781,0.09075712110370514
1403637131438319104,50.187111,619.2892675069003,9.471589458333332,-0.21247741666666667,-2.557901208333333,0.025132741228718346,-0.013264502315156905,0.05585053606381855
1403637131488318976,60.501337,641.6409269380642,9.471589458333332,-0.24516625,-2.5905900416666663,-0.016057029118347832,0.006981317007977318,0.07958701389094143
1403637131538319104,39.221287,641.4647633631824,9.504278291666665,-0.6292600416666666,-2.5415567916666664,-0.02652900463031381,0.023736477827122883,0.07609635538695278
1403637131588318976,50.021886,634.942290001662,9.553311541666666,-0.6701210833333332,-2.3127349583333334,-0.02024581932313422,0.012566370614359173,0.11030480872604163
1403637131638319104,50.133944,643.3907163863312,9.381695166666667,-0.9398039583333333,-2.5006957499999998,0.009075712110370514,0.0153588974175501,0.059341194567807204
1403637131688318976,49.820185,644.8457917757553,9.504278291666665,-0.5965712083333333,-2.476179125,-0.009075712110370514,0.031415926535897934,0.07958701389094143
1403637131738319104,57.724476,643.1750303425789,9.545139333333333,-0.6782932916666666,-2.4189736666666666,-0.006283185307179587,0.017453292519943295,0.06073745796940267
1403637131788318976,41.453838,642.3254460315045,9.716755708333332,-0.35140495833333335,-2.5170401666666664,0.005585053606381855,0.02234021442552742,0.11030480872604163
1403637131838319104,51.12648,640.8508586482333,9.684066875,-0.35140495833333335,-2.5252123749999997,-0.011868238913561441,0.010471975511965976,0.050963614158234416
1403637131888318976,49.829006,638.4148990747881,9.692239083333332,-0.7109821249999999,-2.5006957499999998,-0.011868238913561441,0.005585053606381855,0.07539822368615504
1403637131938319104,50.276518,641.6584634913106,9.520622708333333,-0.6210878333333334,-2.476179125,0.0020943951023931952,0.013264502315156905,0.07749261878854824
1403637131988318976,56.772471,639.3800365069808,9.651378041666666,-0.44129925,-2.4516625,-0.00767944870877505,0.016057029118347832,0.039793506945470715
1403637132038319104,43.037176,638.6113779575679,9.553311541666666,-0.7518431666666666,-2.3862848333333333,-0.013264502315156905,-0.0013962634015954637,0.08098327729253688
1403637132088318976,49.990892,644.4373530294482,9.36535075,-0.73549875,-2.459834708333333,0.003490658503988659,0.019547687622336492,0.06841690667817772
1403637132138319104,57.549477,637.0061775847543,9.438900625,-1.0296982499999998,-2.549729,-0.0153588974175501,0.03490658503988659,0.04956735075663895
1403637132188318976,42.221069,641.3220206930378,9.651378041666666,-0.4985047083333333,-2.3209071666666663,0.013264502315156905,0.021642082724729686,0.1096066770252439
1403637132238319104,50.298214,640.5258699013772,9.414383999999998,-0.7600153749999999,-2.557901208333333,-0.01884955592153876,0.016057029118347832,0.032812189937493394
1403637132288318976,49.85404,639.4769473752665,9.602344791666665,-0.53936575,-2.5415567916666664,0.005585053606381855,0.0307177948351002,0.09075712110370514
1403637132338319104,50.056696,642.6393532671663,9.659550249999999,-0.7763597916666666,-2.3699404166666667,0.014660765716752367,0.011868238913561441,0.11030480872604163
1403637132388318976,62.05821,641.549697723542,9.349006333333334,-0.392266,-2.574245625,-0.005585053606381855,0.02234021442552742,0.08447393579652555
1403637132438319104,45.282364,642.7439134143243,9.455245041666666,-0.6782932916666666,-2.459834708333333,-0.016057029118347832,0.03560471674068433,0.046076692252650306
1403637132488318976,42.313099,644.0654088675459,9.46341725,-0.7518431666666666,-2.3209071666666663,0.0027925268031909274,0.019547687622336492,0.09983283321407566
1403637132538319104,50.3788,643.4355984616953,9.487933875,-0.43312704166666666,-2.459834708333333,-0.013264502315156905,0.01815142422074103,0.04817108735504349
1403637132588318976,49.060106,642.4376188042289,9.46341725,-0.7518431666666666,-2.3944570416666666,-0.009075712110370514,0.009773843811168246,0.07609635538695278
1403637132638319104,50.959349,642.1066347228088,9.299973083333333,-0.6864655000000001,-2.4516625,0.004886921905584123,0.02652900463031381,0.09564404300928926
1403637132688318976,49.341201,642.083423788956,9.406211791666665,-0.416782625,-2.557901208333333,-0.0020943951023931952,0.0307177948351002,0.08517206749732328
1403637132738319104,50.828934,642.9408187405247,9.471589458333332,-0.7109821249999999,-2.288218333333333,0.003490658503988659,0.02234021442552742,0.1228711793404008
1403637132788318976,48.858166,643.4075213231541,9.332661916666666,-0.7681875833333334,-2.5660734166666663,-0.009075712110370514,0.023038346126325153,0.041887902047863905
1403637132838319104,50.835609,641.2067785724889,9.357178541666666,-0.5965712083333333,-2.3944570416666666,-0.0020943951023931952,0.032812189937493394,0.10192722831646883
1403637132888318976,51.123858,632.876470109878,9.430728416666666,-0.5148491249999999,-2.4516625,-0.006283185307179587,0.041189770347066175,0.0879645943005142
1403637132938319104,48.97356,636.4816544764593,9.26728425,-1.0869037083333333,-2.4108014583333333,-0.0020943951023931952,0.02722713633111154,0.08517206749732328
1403637132988318976,62.779188,636.1110342792591,9.667722458333333,-0.24516625,-2.3699404166666667,-0.005585053606381855,-0.019547687622336492,0.11239920382843484
1403637133038319104,37.068844,637.9982096187158,9.1201845,-0.7191543333333333,-2.69682875,-0.02024581932313422,0.029321531433504733,0.06492624817418906
1403637133088318976,50.264597,573.8899625019152,9.259112041666667,-1.299381125,-2.778550833333333,0.04049163864626844,0.10332349171806432,0.09704030641088471
1403637133138319104,49.832583,614.6451505979545,9.610517,-0.40861041666666664,-2.288218333333333,0.017453292519943295,0.031415926535897934,0.09704030641088471
1403637133188318976,59.025526,616.8716052627084,9.152873333333332,-0.4739880833333333,-2.0021910416666664,-0.09005898940290741,0.01884955592153876,-0.04328416544945937
1403637133238319104,41.180133,623.5057844815999,9.986438583333333,-0.4903325,-2.9174783749999995,-0.09005898940290741,-0.01815142422074103,-0.0439822971502571
1403637133288318976,50.515891,637.6487089981041,9.855683249999998,-0.5311935416666667,-2.5905900416666663,-0.029321531433504733,-0.019547687622336492,0.050963614158234416
1403637133338319104,50.219059,566.7687801764292,10.092677291666664,-0.4004382083333333,-2.6641399166666666,-0.12356931104119852,-0.048869219055841226,0.027925268031909273
1403637133388318976,49.863815,514.8504848180705,9.136528916666666,-0.6456044583333332,-2.4843513333333336,-0.15289084247470325,-0.07539822368615504,0.08447393579652555
1403637133438319104,50.008535,626.9280769888006,8.597163166666666,-0.8008764166666666,-2.672312125,0.0027925268031909274,-0.114493598930828,0.1466076571675237
1403637133488318976,57.979584,566.6336360420353,9.553311541666666,0.563882375,-1.6753027083333332,-0.08936085770210968,-0.21362830044410594,0.11519173063162574
1403637133538319104,41.90135,548.8719082999107,9.136528916666666,-0.612915625,-2.827584083333333,-0.06911503837897544,-0.19477874452256716,0.17872171540421936
1403637133588318976,49.815893,543.7175994674341,9.986438583333333,-0.42495483333333334,-3.178989041666666,-0.12077678423800758,-0.124965574442794,0.09005898940290741
1403637133638319104,48.928023,566.9091153594354,10.386876791666666,-0.392266,-3.415983083333333,-0.10262536001726656,-0.07609635538695278,0.0879645943005142
1403637133688318976,50.82941,505.63638219767853,10.386876791666666,-0.7273265416666667,-3.546738416666667,-0.11100294042683936,-0.01117010721276371,0.01884955592153876
1403637133738319104,49.901247,438.83208714258893,10.730109541666666,-0.6701210833333332,-3.6121160833333334,-0.09494591130849153,0.027925268031909273,0.0614355896702004
1403637133788318976,49.925327,395.6025251368385,11.073342291666666,-0.34323275000000003,-2.9338227916666666,-0.18989182261698306,0.0027925268031909274,0.07888888219014369
1403637133838319104,58.138609,375.5016091269175,10.983448000000001,-0.6210878333333334,-3.4404997083333333,-0.2199114857512855,-0.07819075048934597,0.11588986233242347
1403637133888318976,41.855097,380.99379694816474,11.310336333333332,-0.8744262916666666,-3.759215833333333,-0.13823007675795088,-0.09005898940290741,0.19268434942017396
1403637133938319104,50.171376,412.97655914476263,10.664731875,-0.7028099166666667,-3.6284604999999996,-0.1291543646475804,-0.05515240436302082,0.11938052083641214
1403637133988318976,49.82376,387.13856668545475,9.643205833333333,-0.6292600416666666,-3.2361945,-0.18919369091618532,0.014660765716752367,0.03420845333908886
1403637134038319104,50.116063,414.78776092628306,9.651378041666666,-0.3759215833333333,-3.3015721666666664,-0.1270599695451872,0.041887902047863905,-0.02583087292951608
1403637134088318976,57.760238,392.8247746722085,9.103840083333333,-0.6782932916666666,-3.1544724166666662,-0.20874137853852182,0.059341194567807204,-0.039793506945470715
1403637134138319104,41.886092,374.8012880294906,8.850501625,-0.22882183333333334,-2.582417833333333,-0.24644049038159932,0.10192722831646883,-0.10332349171806432
1403637134188318976,49.947738,331.262789488079,9.471589458333332,-0.318716125,-2.9583394166666666,-0.24504422698000386,0.21851522234969004,-0.06771877497737998
1403637134238319104,50.386667,295.7307706900906,8.253930416666666,-0.15527195833333335,-2.69682875,-0.14800392056911915,0.3225368457685521,0.0
1403637134288318976,49.722672,301.91044120597843,7.690048041666667,0.22882183333333334,-2.2473572916666664,-0.04677482395344803,0.36861353802120245,0.07609635538695278
1403637134338319104,50.144911,319.7578547883513,7.60015375,0.10623870833333333,-1.9695022083333333,-0.009075712110370514,0.39025562074593206,0.07749261878854824
1403637134388318976,49.722194,353.5186705167905,6.668522,0.04086104166666667,-1.6753027083333332,-0.08517206749732328,0.33161255787892263,0.13683381335635544
1403637134438319104,50.083399,462.58081202969674,6.235394958333333,-0.08989429166666667,-1.22583125,-0.027925268031909273,0.23736477827122882,0.2743657584135086
1403637134488318976,57.607651,802.398265670854,6.251739374999999,0.3350605416666666,-1.201314625,-0.050963614158234416,0.08237954069413235,0.24294983187761068
1403637134538319104,42.586327,830.5509749606839,6.03108975,0.2778550833333333,-1.1849702083333333,-0.0013962634015954637,-0.05585053606381855,0.19198621771937624
1403637134588318976,49.496173,525.4988645255969,6.537766666666666,-0.016344416666666667,-1.4464808749999998,-0.0991347015132779,-0.1759291886010284,-0.005585053606381855
1403637134638319104,50.398112,422.4511662896354,6.611316541666667,0.23699404166666665,-1.6262694583333333,-0.013962634015954637,-0.24434609527920614,0.030019663134302467
1403637134688318976,49.495458,341.7560176094638,7.363159708333333,-0.32688833333333334,-1.8550912916666666,0.004886921905584123,-0.3511602455012591,-0.057246799465414
1403637134738319104,50.455571,285.7679022217641,7.837147791666666,-0.04086104166666667,-2.8357562916666668,0.09564404300928926,-0.42655846918741414,0.04677482395344803
1403637134788318976,49.949884,192.97191032891277,8.801468374999999,-0.4494714583333333,-3.3751220416666667,0.14870205226991687,-0.4810127418496372,0.1710422666954443
1403637134838319104,49.358845,178.71824358399272,9.814822208333332,-0.5311935416666667,-3.5794272499999997,0.07330382858376185,-0.5403539364174444,0.07819075048934597
1403637134888318976,50.188303,190.48364122128936,9.80665,-0.04903325,-4.26589275,0.07819075048934597,-0.4565781323217166,0.29112091923265415
1403637134938319104,50.635814,234.96254946048103,10.599354208333333,-0.7028099166666667,-4.404820291666666,0.0879645943005142,-0.3218387140677544,0.19757127132575814
1403637134988318976,57.196379,284.69013344978777,11.040653458333331,-0.13075533333333333,-4.478370166666666,0.047472955654245766,-0.1494001839707146,0.19058995431778078
1403637135038319104,42.678118,316.8519012059437,11.048825666666666,-0.5311935416666667,-4.731708625,0.0767944870877505,-0.08377580409572781,0.2115339053417127
1403637135088318976,61.470985,313.4887982578066,10.681076291666665,-0.4903325,-4.633642125,-0.0006981317007977319,-0.06911503837897544,0.023736477827122883
1403637135138319104,38.628579,302.52626278056545,11.547330375,-0.43312704166666666,-5.0013914999999995,0.0027925268031909274,-0.12077678423800758,0.050963614158234416
1403637135188318976,50.946235,263.65558365652555,11.964113,-0.6782932916666666,-5.2710743749999995,-0.017453292519943295,-0.2569124658935653,-0.017453292519943295
1403637135238319104,49.956322,432.5511652795976,12.789506041666666,-0.4494714583333333,-5.4998962083333325,-0.06213372137099814,-0.2869321290278678,-0.004886921905584123
1403637135288318976,52.011728,345.08658813123515,13.124566583333333,-0.318716125,-5.802267916666667,-0.060039326268604934,-0.14730578886832138,0.057246799465414
1403637135338319104,48.994065,264.21439570080656,11.882390916666665,-0.6864655000000001,-5.442690750000001,-0.07330382858376185,0.10122909661567112,0.06702064327658225
1403637135388318976,51.401853,199.0774915648546,11.195925416666665,-0.3023717083333333,-5.115802416666666,-0.10402162341886204,0.3469714552964727,-0.025132741228718346
1403637135438319104,63.187838,192.03248235011466,10.697420708333333,-0.15527195833333335,-4.625469916666667,-0.1291543646475804,0.4635594493296939,-0.08028514559173915
1403637135488318976,49.343347,193.14835710323564,9.308145291666667,-0.392266,-4.045243125,-0.0942477796076938,0.5375614096142535,-0.03700098014227979
1403637135538319104,38.011551,211.38337963911854,9.773961166666666,0.07354987499999999,-3.6202882916666663,-0.14521139376592823,0.48589966375522137,-0.07051130178057091
1403637135588318976,49.994469,221.29704112012854,8.580818749999999,-0.220649625,-3.211677875,-0.14870205226991687,0.4488986836129415,0.04328416544945937
1403637135638319104,50.224781,229.12038616278082,8.000591958333333,-0.10623870833333333,-2.999200458333333,-0.16755160819145562,0.46844637123527805,0.05375614096142535
1403637135688318976,49.360037,266.4784942981233,7.428537374999999,-0.18796079166666665,-2.6477955,-0.03630284844148206,0.4300491276914028,0.182212373908208
1403637135738319104,61.440944,300.52098773191676,6.61948875,-0.032688833333333334,-2.280046125,-0.009773843811168246,0.37419859162758423,0.22759093446006054
1403637135788318976,38.406611,363.28528018946616,6.022917541666666,0.5883989999999999,-1.7243359583333333,0.0439822971502571,0.2827433388230814,0.24015730507441974
1403637135838319104,50.383091,529.9500725668976,5.908506625,-0.14709974999999997,-1.32389775,0.023736477827122883,0.182212373908208,0.19896753472735357
1403637135888318976,49.48163,775.7703960080731,5.287418791666666,0.3105439166666667,-1.1849702083333333,-0.056548667764616284,0.06771877497737998,0.13055062804917586
1403637135938319104,50.494433,866.9403333377832,5.720545833333333,-0.35957716666666667,-1.5527195833333332,0.04049163864626844,-0.04258603374866164,0.15428710587629874
1403637135988318976,65.415144,651.1974067967284,5.3936575,-0.4004382083333333,-1.3729310000000001,-0.011868238913561441,-0.124965574442794,-0.008377580409572781
1403637136038319104,34.430503,498.48062660144,6.3498058749999995,0.2860272916666666,-1.5772362083333331,0.02583087292951608,-0.1605702911834783,0.06422811647339133
1403637136088318976,49.716711,439.3399218547302,6.496905624999999,-0.42495483333333334,-1.8550912916666666,0.009773843811168246,-0.20106192982974677,0.011868238913561441
1403637136138319104,50.747872,283.3780681332002,7.591981541666666,-0.07354987499999999,-2.239185083333333,-0.10053096491487339,-0.2736676267127109,-0.04956735075663895
1403637136188318976,49.209595,243.42418181757506,8.670713041666666,-0.2533384583333333,-3.178989041666666,-0.0013962634015954637,-0.3574434308084387,0.13473941825396224
1403637136238319104,61.582088,215.33471690493215,8.695229666666666,-0.13892754166666665,-3.6611493333333334,-0.02024581932313422,-0.45308747381772796,-0.07260569688296412
1403637136288318976,38.550854,231.04753093251497,9.831166624999998,0.269682875,-3.9635210416666666,0.016755160819145562,-0.4872959271568168,0.20804324683772407
1403637136338319104,49.293279,214.28134672860375,9.863855458333333,-0.22882183333333334,-4.633642125,0.02652900463031381,-0.5145230634879283,0.09075712110370514
1403637136388318976,50.675393,206.3642013740836,10.019127416666667,-0.11441091666666667,-4.993219291666667,0.03839724354387525,-0.48589966375522137,0.1096066770252439
1403637136438319104,66.761493,190.98053011107004,11.686257916666666,0.057205458333333334,-5.360968666666666,0.15079644737231007,-0.4132939668722573,0.23806290997202653
1403637136488318976,33.389569,201.9967769572262,11.620880249999999,-0.45764366666666667,-5.8104401249999995,0.12356931104119852,-0.33300882128051806,0.23596851486963336
1403637136538319104,50.322055,246.27078997365865,11.923251958333333,-0.2860272916666666,-5.589790499999999,0.07330382858376185,-0.19896753472735357,0.20874137853852182
1403637136588318976,49.591542,325.70667534082895,12.536167583333333,-0.5148491249999999,-6.161845083333333,0.010471975511965976,-0.11868238913561441,0.032114058236695664
1403637136638319104,49.965858,567.0857395348069,12.715956166666665,-0.45764366666666667,-6.317117041666666,-0.01117010721276371,-0.059341194567807204,-0.0027925268031909274
1403637136688318976,49.784899,339.0228503762118,12.822194875000001,-0.6047434166666666,-6.635833166666666,-0.012566370614359173,0.0153588974175501,0.017453292519943295
1403637136738319104,49.948692,265.83641243455656,12.152073791666666,-0.23699404166666665,-6.268083791666666,0.020943951023931952,0.08726646259971647,0.09145525280450287
1403637136788318976,51.0149,213.18623947189607,11.343025166666667,-0.4985047083333333,-5.834956749999999,0.032812189937493394,0.2611012560983517,0.060039326268604934
1403637136838319104,49.559594,196.76065180812128,11.269475291666666,-0.13075533333333333,-5.042252541666667,-0.04328416544945937,0.3993313328563026,-0.02722713633111154
1403637136888318976,63.745021,181.93276720657846,9.234595416666666,-0.06537766666666667,-4.4701979583333324,-0.04817108735504349,0.5242969072990966,0.09075712110370514
1403637136938319104,46.844006,184.91704457402122,9.749444541666666,0.024516625,-3.8082490833333327,-0.21432643214490363,0.507541746479951,-0.0020943951023931952
1403637136988318976,56.991339,190.42608214567596,7.567464916666665,-0.367749375,-3.726527,-0.24853488548399255,0.5298819609054785,0.06422811647339133
1403637137038319104,32.159805,211.87322851652755,7.297782041666666,-0.35140495833333335,-2.8684451249999996,-0.18011797880581482,0.528485697503883,0.18570303241219666
1403637137088318976,60.946703,224.81584768434686,6.129156249999999,-0.7763597916666666,-2.459834708333333,-0.1291543646475804,0.5242969072990966,0.20804324683772407
1403637137138319104,39.239407,277.2380717244457,5.303763208333334,-0.2533384583333333,-1.7406803749999997,0.10053096491487339,0.4663519761328848,0.40980330836826856
1403637137188318976,49.781322,355.3564418995844,5.254729958333334,-0.15527195833333335,-1.4137920416666665,0.03769911184307752,0.3588396942100341,0.09354964790689606
1403637137238319104,50.064087,473.77786395701764,5.140319041666666,0.16344416666666667,-1.299381125,0.06841690667817772,0.2555162024919699,0.11379546723003027
1403637137288318976,60.558081,701.7478601930678,5.475379583333333,-0.40861041666666664,-1.32389775,-0.023038346126325153,0.1780235837034216,0.0020943951023931952
1403637137338319104,39.193391,927.452895778397,5.24655775,-0.5230213333333333,-1.4628252916666666,0.0027925268031909274,0.1291543646475804,0.05445427266222308
1403637137388318976,49.132824,804.4514204025364,6.210878333333333,-0.26151066666666667,-1.3729310000000001,0.08098327729253688,0.04677482395344803,0.050963614158234416
1403637137438319104,50.731421,567.1363181331451,6.439700166666666,-0.23699404166666665,-1.838746875,0.041887902047863905,-0.09704030641088471,-0.048869219055841226
1403637137488318976,77.425957,410.77032897527863,8.28661925,0.5965712083333333,-2.5333845833333335,-0.019547687622336492,-0.38816122564353883,-0.11588986233242347
1403637137538319104,24.67966,324.77210282525635,8.28661925,0.5965712083333333,-2.5333845833333335,-0.019547687622336492,-0.38816122564353883,-0.11588986233242347
1403637137588318976,48.138857,282.6609093244208,8.425546791666665,-0.48216029166666663,-2.8766173333333334,-0.10821041362364843,-0.5256931707006921,-0.16126842288427606
1403637137638319104,49.063445,188.8290290121425,9.201906583333333,-0.0980665,-3.8082490833333327,-0.15638150097869194,-0.5508259119294103,-0.008377580409572781
1403637137688318976,61.579704,179.78579473384676,10.231604833333332,0.08172208333333333,-3.881798958333333,0.04468042885105484,-0.57246799465414,0.1165879940332212
1403637137738319104,39.177656,184.69547779925782,9.798477791666667,-0.2860272916666666,-5.4998962083333325,0.05794493116621174,-0.457974395723312,0.12426744274199628
1403637137788318976,50.144911,209.265953454541,10.746453958333333,0.0980665,-5.410001916666666,0.1445132620651305,-0.3162536604613725,0.17732545200262387
1403637137838319104,49.844742,201.49558418180678,11.212269833333332,-0.04903325,-5.418174124999999,0.16406094968746698,-0.29391344603584507,0.12775810124598494
1403637137888318976,50.138473,197.67527491884815,12.184762625,0.20430520833333332,-5.655168166666666,0.07260569688296412,-0.28623399732707,0.013264502315156905
1403637137938319104,49.783707,198.56470550308387,12.8467115,0.10623870833333333,-5.704201416666666,0.0020943951023931952,-0.33161255787892263,0.006283185307179587
1403637137988318976,50.074577,247.8385706865028,13.353388416666665,0.07354987499999999,-6.292600416666667,0.017453292519943295,-0.3309144261781249,0.016755160819145562
1403637138038319104,60.588122,384.1499389758883,13.189944249999998,-0.2778550833333333,-6.864654999999999,0.009075712110370514,-0.2017600615305445,0.12566370614359174
1403637138088318976,39.13474,257.9003557491461,12.634234083333332,-0.44129925,-6.537766666666666,0.12426744274199628,0.04258603374866164,0.18291050560900574
1403637138138319104,61.020851,191.9384831403267,12.160245999999999,0.32688833333333334,-5.875817791666666,0.12007865253720987,0.24434609527920614,-0.04328416544945937
1403637138188318976,38.906813,183.7069878887827,11.253130874999998,0.17161637500000002,-5.973884291666666,-0.10192722831646883,0.4237659423842232,-0.31555552876057474
1403637138238319104,65.85908,163.94122061832326,9.733100125,-0.5230213333333333,-4.829775124999999,-0.19896753472735357,0.5885250237724878,-0.1759291886010284
1403637138288318976,34.041166,165.01435812382226,8.5317855,-0.32688833333333334,-4.26589275,-0.1759291886010284,0.6953391739945409,-0.04817108735504349
1403637138338319104,50.597668,171.99016008187405,8.515441083333332,-0.0980665,-3.6039438749999997,-0.16964600329384885,0.7588691587671345,0.13124875974997358
1403637138388318976,49.804449,190.42830562424427,7.216059958333333,0.44129925,-3.015544875,-0.21781709064889232,0.7379252077432026,0.06981317007977318
1403637138438319104,60.895919,208.68436945614982,6.545938874999999,0.10623870833333333,-2.4680069166666665,-0.20943951023931953,0.6311110575211495,0.1361356816555577
1403637138488318976,38.979054,242.3516532504141,5.573446083333333,0.0,-1.8224024583333331,-0.182212373908208,0.5054473513775578,0.16196655458507375
1403637138538319104,50.184727,331.13867942872605,5.189352291666666,0.3840937916666667,-1.3811032083333332,-0.08866272600131193,0.3853686988403479,0.14172073526193954
1403637138588318976,60.624122,475.53114583774646,5.230213333333333,0.032688833333333334,-1.0787315,-0.013264502315156905,0.25621433419276757,0.11100294042683936
1403637138638319104,39.077759,810.3096542785208,5.303763208333334,0.17978858333333333,-0.8253930416666666,0.016755160819145562,0.09704030641088471,0.10402162341886204
1403637138688318976,50.293446,842.07144873735,5.377313083333333,-0.04086104166666667,-0.980665,0.09494591130849153,-0.02722713633111154,0.2241002759560719
1403637138738319104,49.953937,614.9695146658506,6.03108975,0.0980665,-1.2340034583333332,0.023736477827122883,-0.12356931104119852,0.10053096491487339
1403637138788318976,50.110102,454.1745056184581,6.6603497916666665,0.032688833333333334,-1.1767979999999998,-0.0041887902047863905,-0.2408554367752175,0.2408554367752175
1403637138838319104,50.048351,294.721534536713,6.872827208333333,0.0980665,-2.4680069166666665,-0.09494591130849153,-0.31695179216217023,0.011868238913561441
1403637138888318976,49.830675,276.61156308130916,7.730909083333333,-0.11441091666666667,-3.1463002083333333,0.046076692252650306,-0.31555552876057474,0.04468042885105484
1403637138938319104,50.044537,259.52905765420434,9.398039583333333,-0.3840937916666667,-2.5252123749999997,0.182212373908208,-0.2848377339254746,0.21851522234969004
1403637138988318976,50.063133,269.1457205479722,9.471589458333332,-0.318716125,-3.4731885416666666,0.24015730507441974,-0.24504422698000386,0.2659881780039358
1403637139038319104,49.747467,282.94753446365706,10.059988458333333,-0.465815875,-4.110620791666666,0.24923301718479024,-0.18709929581379212,0.24015730507441974
1403637139088318976,60.718536,301.13766968194034,10.509459916666668,-0.3759215833333333,-3.9880376666666666,0.21642082724729686,-0.15777776438028737,0.2778564169174973
1403637139138319104,39.211989,268.28397252900356,10.427737833333332,-0.6047434166666666,-4.26589275,0.14800392056911915,-0.17732545200262387,0.1424188669627373
1403637139188318976,60.862541,265.76092787558844,11.22861425,-0.18796079166666665,-4.135137416666667,0.11868238913561441,-0.14521139376592823,0.06283185307179587
1403637139238319104,38.458347,309.8042802326967,11.539158166666667,-0.40861041666666664,-4.200515083333333,0.1319468914507713,-0.03630284844148206,0.1319468914507713
1403637139288318976,67.332745,315.6115406193218,11.416575041666665,-0.4004382083333333,-4.110620791666666,0.07120943348136866,-0.023736477827122883,-0.023038346126325153
1403637139338319104,43.890715,341.8704172102375,11.024309041666667,-0.318716125,-4.0615875416666665,0.03700098014227979,-0.013962634015954637,-0.008377580409572781
1403637139388318976,41.774988,299.1144060059882,10.117193916666666,-0.5802267916666666,-4.5519200416666665,0.15079644737231007,0.0,-0.06073745796940267
1403637139438319104,48.411131,374.3927753818616,9.872027666666666,-0.5802267916666666,-3.800076875,0.1884955592153876,0.08587019919812101,0.023736477827122883
1403637139488318976,62.119007,396.8133032537786,9.381695166666667,-0.6782932916666666,-3.7919046666666665,0.17732545200262387,0.09564404300928926,0.03839724354387525
1403637139538319104,37.890434,470.11765764032197,9.234595416666666,-0.3759215833333333,-3.702010375,0.10890854532444616,0.1466076571675237,0.11728612573401893
1403637139588318976,49.793482,482.0475840184338,9.406211791666665,-0.40861041666666664,-3.571255041666667,0.02722713633111154,0.15987215948268058,-0.032812189937493394
1403637139638319104,61.347008,476.0720564776728,9.054806833333332,-0.3105439166666667,-3.3996386666666667,0.06911503837897544,0.14032447186034408,0.016755160819145562
1403637139688318976,38.595676,468.2693516922441,8.866846041666665,-0.24516625,-3.2852277500000002,0.06702064327658225,0.10332349171806432,0.03839724354387525
1403637139738319104,65.259934,484.7018991117187,9.496106083333332,-0.0980665,-3.4977051666666665,0.03420845333908886,0.05794493116621174,0.07190756518216637
1403637139788318976,39.642334,453.8080867638202,9.087495666666666,-0.32688833333333334,-3.5794272499999997,-0.029321531433504733,0.009075712110370514,0.013264502315156905
1403637139838319104,44.408083,291.82163474964085,8.695229666666666,0.318716125,-3.334261,0.11519173063162574,0.30647981665020424,0.09983283321407566
1403637139888318976,50.780057,355.6990097442622,9.259112041666667,-0.9479761666666666,-3.391466458333333,-0.04328416544945937,0.2541199390903744,0.1494001839707146
1403637139938319104,50.034047,365.04404554019476,8.621679791666667,-1.1359369583333332,-3.0645781249999997,-0.09704030641088471,0.1982694030265558,0.20385445663293766
1403637139988318976,61.007976,424.02595046022327,9.586000375,-0.43312704166666666,-3.0727503333333335,-0.06562437987498679,0.13264502315156904,0.2750638901143063
1403637140038319104,38.967848,335.78160975869787,9.635033625,-0.4494714583333333,-2.803067458333333,-0.08377580409572781,0.2827433388230814,0.1954768762233649
1403637140088318976,61.119318,383.1970292958681,9.332661916666666,-0.93163175,-3.0400614999999998,-0.15707963267948966,0.22479840765686968,0.056548667764616284
1403637140138319104,38.609505,299.9603540940421,9.586000375,-0.809048625,-2.459834708333333,-0.09354964790689606,0.33300882128051806,0.13962634015954636
1403637140188318976,66.123724,486.399465162128,9.103840083333333,-0.4004382083333333,-2.157463,-0.1270599695451872,-0.06981317007977318,0.07400196028455958
1403637140238319104,34.147024,546.696160812957,9.504278291666665,-0.6047434166666666,-2.5333845833333335,-0.0635299847725936,0.027925268031909273,0.08168140899333462
1403637140288318976,61.32555,557.5833497640739,9.022118,-0.5148491249999999,-2.459834708333333,-0.0006981317007977319,0.006981317007977318,0.18360863730980345
1403637140338319104,38.636208,386.08173142415853,7.232404375,-1.0623870833333333,-1.4709975,0.01884955592153876,0.18430676901060122,0.17732545200262387
1403637140388318976,49.706697,566.6644439981552,9.986438583333333,0.024516625,-3.195333458333333,0.005585053606381855,0.09354964790689606,0.03769911184307752
1403637140438319104,60.317039,560.6257998617086,9.643205833333333,-0.83356525,-2.7622064166666664,0.0020943951023931952,0.09843656981248018,0.12845623294678266
1403637140488318976,39.535285,577.6127979741179,9.349006333333334,-0.43312704166666666,-2.435318083333333,-0.0020943951023931952,0.03490658503988659,0.09215338450530061
1403637140538319104,49.091577,576.0826994628967,9.553311541666666,-0.8825985,-2.705000958333333,0.01815142422074103,0.03839724354387525,0.12147491593880534
1403637140588318976,51.038265,579.1032676158678,9.651378041666666,-0.6946377083333333,-2.582417833333333,0.010471975511965976,0.023736477827122883,0.0942477796076938
1403637140638319104,50.175667,580.4900547969817,9.291800875,-0.8008764166666666,-2.606934458333333,0.012566370614359173,0.025132741228718346,0.06492624817418906
1403637140688318976,49.838543,578.1380848692465,9.389867375,-0.318716125,-2.582417833333333,0.014660765716752367,0.02024581932313422,0.07120943348136866
1403637140738319104,49.941063,579.9189853606543,9.332661916666666,-0.63743225,-2.574245625,-0.0027925268031909274,0.01884955592153876,0.05864306286700947
1403637140788318976,50.291538,580.168572752683,9.643205833333333,-0.40861041666666664,-2.6886565416666666,0.004886921905584123,0.01884955592153876,0.08936085770210968
1403637140838319104,49.587965,579.5962750631886,9.193734375,-0.809048625,-2.459834708333333,-0.027925268031909273,0.01884955592153876,0.07190756518216637
1403637140888318976,50.085068,578.2237129280962,9.659550249999999,-0.9398039583333333,-2.5333845833333335,-0.02024581932313422,0.023038346126325153,0.0767944870877505
1403637140938319104,50.154686,579.9318926737318,9.389867375,-0.9643205833333333,-2.574245625,-0.008377580409572781,0.025132741228718346,0.07958701389094143
1403637140988318976,60.222149,579.7446477592624,9.5124505,-0.9234595416666666,-2.6151066666666667,-0.008377580409572781,0.025132741228718346,0.07609635538695278
1403637141038319104,38.602114,580.9284507777867,9.553311541666666,-0.9234595416666666,-2.582417833333333,-0.0041887902047863905,0.02652900463031381,0.08028514559173915
1403637141088318976,51.16415,580.2474536010931,9.316317499999998,-0.73549875,-2.549729,-0.003490658503988659,0.016755160819145562,0.07609635538695278
1403637141138319104,48.782587,581.4173999789716,9.389867375,-0.7600153749999999,-2.6151066666666667,0.004886921905584123,0.02652900463031381,0.07609635538695278
1403637141188318976,51.064253,580.8356840091858,9.299973083333333,-0.6864655000000001,-2.5170401666666664,0.006981317007977318,0.029321531433504733,0.08377580409572781
1403637141238319104,50.123453,582.028311066937,9.332661916666666,-0.7600153749999999,-2.5905900416666663,0.0006981317007977319,0.016755160819145562,0.07260569688296412
1403637141288318976,49.802065,581.7980564097285,9.36535075,-0.661948875,-2.6477955,0.006981317007977318,0.025132741228718346,0.08098327729253688
1403637141338319104,49.047947,581.299209831694,9.226423208333333,-0.6292600416666666,-2.5006957499999998,-0.0041887902047863905,0.021642082724729686,0.07539822368615504
1403637141388318976,51.135778,581.7317730948363,9.406211791666665,-0.6292600416666666,-2.6477955,-0.0020943951023931952,0.019547687622336492,0.07958701389094143
1403637141438319104,49.823761,582.6376160891681,9.471589458333332,-0.6537766666666667,-2.5333845833333335,-0.006283185307179587,0.02583087292951608,0.07330382858376185
1403637141488318976,49.978495,582.2045742309487,9.5124505,-0.6701210833333332,-2.631451083333333,-0.006283185307179587,0.016755160819145562,0.07819075048934597
1403637141538319104,65.409422,583.2944061064395,9.471589458333332,-0.6782932916666666,-2.6396232916666666,-0.004886921905584123,0.019547687622336492,0.07330382858376185
1403637141588318976,44.55328,582.6165811520489,9.430728416666666,-0.5883989999999999,-2.5905900416666663,-0.0041887902047863905,0.02024581932313422,0.08237954069413235
1403637141638319104,50.558328,582.3702158936676,9.455245041666666,-0.6864655000000001,-2.623278875,-0.0006981317007977319,0.01884955592153876,0.07888888219014369
1403637141688318976,39.444685,582.1270679291097,9.430728416666666,-0.6456044583333332,-2.582417833333333,-0.003490658503988659,0.02024581932313422,0.07400196028455958
1403637141738319104,60.565233,582.0941167985401,9.36535075,-0.7436709583333333,-2.574245625,-0.0013962634015954637,0.01815142422074103,0.07260569688296412
1403637141788318976,39.456606,581.3650852557764,9.430728416666666,-0.7028099166666667,-2.59876225,0.0020943951023931952,0.02583087292951608,0.08936085770210968
1403637141838319104,65.655709,582.0047378970302,9.373522958333332,-0.6864655000000001,-2.5660734166666663,-0.0006981317007977319,0.01884955592153876,0.07330382858376185
1403637141888318976,44.375658,580.6582609743841,9.332661916666666,-0.7273265416666667,-2.606934458333333,-0.0006981317007977319,0.023038346126325153,0.08168140899333462
1403637141938319104,38.958549,580.3616717587014,9.471589458333332,-0.5965712083333333,-2.582417833333333,0.0006981317007977319,0.023038346126325153,0.07539822368615504
1403637141988318976,66.87212,580.4368791654092,9.422556208333333,-0.7109821249999999,-2.59876225,-0.0006981317007977319,0.020943951023931952,0.08237954069413235
1403637142038319104,44.558525,580.6538344359186,9.422556208333333,-0.6537766666666667,-2.6477955,-0.0013962634015954637,0.0153588974175501,0.07400196028455958
1403637142088318976,44.048071,582.4355328563395,9.381695166666667,-0.7109821249999999,-2.606934458333333,-0.004886921905584123,0.023038346126325153,0.07330382858376185
1403637142138319104,45.738697,581.9008149499962,9.479761666666667,-0.612915625,-2.574245625,-0.003490658503988659,0.023038346126325153,0.0747000919853573
1403637142188318976,50.045967,582.1070469451624,9.471589458333332,-0.7028099166666667,-2.6151066666666667,-0.0020943951023931952,0.02234021442552742,0.08028514559173915
1403637142238319104,49.916029,581.3012306431812,9.5124505,-0.6210878333333334,-2.6396232916666666,-0.0020943951023931952,0.01884955592153876,0.07749261878854824
1403637142288318976,50.007582,581.8199460493242,9.438900625,-0.6537766666666667,-2.6396232916666666,-0.0041887902047863905,0.0153588974175501,0.07330382858376185
1403637142338319104,50.110578,581.8740778486488,9.36535075,-0.63743225,-2.557901208333333,-0.004886921905584123,0.01815142422074103,0.07400196028455958
1403637142388318976,48.960925,580.7406857930847,9.340834124999999,-0.7681875833333334,-2.5660734166666663,-0.0027925268031909274,0.019547687622336492,0.07958701389094143
1403637142438319104,66.858768,580.3477504690431,9.471589458333332,-0.6537766666666667,-2.6396232916666666,-0.003490658503988659,0.02234021442552742,0.08098327729253688
1403637142488318976,44.627428,579.9626294007636,9.414383999999998,-0.7191543333333333,-2.582417833333333,-0.0020943951023931952,0.02024581932313422,0.07539822368615504
1403637142538319104,38.481951,581.3643681075418,9.389867375,-0.6946377083333333,-2.5415567916666664,-0.0006981317007977319,0.014660765716752367,0.08168140899333462
1403637142588318976,51.031112,580.1095440673524,9.357178541666666,-0.6701210833333332,-2.582417833333333,-0.0027925268031909274,0.019547687622336492,0.07819075048934597
1403637142638319104,49.672604,581.3630554630864,9.447072833333333,-0.6946377083333333,-2.606934458333333,0.0020943951023931952,0.016755160819145562,0.08307767239493008
1403637142688318976,60.814858,580.059035971297,9.389867375,-0.6782932916666666,-2.574245625,0.0020943951023931952,0.023736477827122883,0.07400196028455958
1403637142738319104,39.488792,582.0562718946469,9.447072833333333,-0.6701210833333332,-2.5905900416666663,0.0020943951023931952,0.021642082724729686,0.08237954069413235
1403637142788318976,64.563274,581.2665597809329,9.398039583333333,-0.661948875,-2.582417833333333,0.0013962634015954637,0.012566370614359173,0.08307767239493008
1403637142838319104,35.618306,581.9891075088918,9.406211791666665,-0.6864655000000001,-2.606934458333333,0.0013962634015954637,0.02234021442552742,0.08377580409572781
1403637142888318976,48.682212,581.4973497911864,9.414383999999998,-0.7191543333333333,-2.557901208333333,0.0,0.017453292519943295,0.07819075048934597
1403637142938319104,49.962283,582.3673368197806,9.430728416666666,-0.6292600416666666,-2.655967708333333,0.0,0.01884955592153876,0.08237954069413235
1403637142988318976,51.032781,581.8654140235523,9.479761666666667,-0.6210878333333334,-2.582417833333333,0.0,0.021642082724729686,0.08098327729253688
1403637143038319104,65.779925,581.6971802402439,9.373522958333332,-0.6456044583333332,-2.582417833333333,0.0006981317007977319,0.013264502315156905,0.08517206749732328
1403637143088318976,34.069299,582.6678348722508,9.447072833333333,-0.7028099166666667,-2.5905900416666663,-0.003490658503988659,0.019547687622336492,0.0747000919853573
1403637143138319104,50.065279,582.1343697695916,9.422556208333333,-0.661948875,-2.574245625,-0.0006981317007977319,0.020943951023931952,0.08168140899333462
1403637143188318976,65.480948,582.5862556844266,9.447072833333333,-0.63743225,-2.549729,-0.003490658503988659,0.016755160819145562,0.07958701389094143
1403637143238319104,34.556865,581.810631106156,9.455245041666666,-0.7191543333333333,-2.582417833333333,-0.0020943951023931952,0.016755160819145562,0.08307767239493008
1403637143288318976,50.17376,581.8361899001882,9.414383999999998,-0.661948875,-2.557901208333333,-0.0020943951023931952,0.01884955592153876,0.07051130178057091
1403637143338319104,60.929537,581.9568194417674,9.479761666666667,-0.6537766666666667,-2.631451083333333,-0.0006981317007977319,0.02722713633111154,0.07609635538695278
1403637143388318976,38.612127,582.0661315831318,9.422556208333333,-0.6701210833333332,-2.4843513333333336,-0.0006981317007977319,0.02234021442552742,0.08726646259971647
1403637143438319104,61.071634,580.9972423414434,9.528794916666666,-0.7518431666666666,-2.574245625,0.0,0.006283185307179587,0.07260569688296412
1403637143488318976,55.313349,580.9393936818894,9.291800875,-0.6946377083333333,-2.705000958333333,-0.0006981317007977319,0.0307177948351002,0.0767944870877505
1403637143538319104,44.457674,580.0681493690865,9.643205833333333,-0.6782932916666666,-2.4843513333333336,0.0,0.020943951023931952,0.07330382858376185
1403637143588318976,49.629212,582.7885076645417,9.283628666666665,-0.6946377083333333,-2.6151066666666667,0.0006981317007977319,0.006981317007977318,0.07749261878854824
1403637143638319104,38.842201,581.0514438160394,9.36535075,-0.6864655000000001,-2.655967708333333,0.0,0.02652900463031381,0.07539822368615504
1403637143688318976,50.918817,582.5825047754154,9.455245041666666,-0.7028099166666667,-2.5252123749999997,-0.003490658503988659,0.01884955592153876,0.07330382858376185
1403637143738319104,60.519934,582.6650933326653,9.46341725,-0.7109821249999999,-2.574245625,-0.0027925268031909274,0.021642082724729686,0.0767944870877505
1403637143788318976,55.64642,581.768810865568,9.389867375,-0.63743225,-2.631451083333333,-0.003490658503988659,0.023736477827122883,0.0767944870877505
1403637143838319104,33.799409,582.3356946016297,9.520622708333333,-0.6292600416666666,-2.557901208333333,-0.0027925268031909274,0.024434609527920613,0.07819075048934597
1403637143888318976,60.761214,581.6475362149909,9.422556208333333,-0.6456044583333332,-2.5415567916666664,0.0006981317007977319,0.01117010721276371,0.0767944870877505
1403637143938319104,49.759626,578.1304382215541,8.956740333333332,0.9152873333333333,-2.5905900416666663,-0.013264502315156905,-0.0153588974175501,0.08168140899333462
1403637143988318976,39.623737,579.5509885369462,9.863855458333333,-0.008172208333333333,-3.023717083333333,-0.05166174585903216,0.0013962634015954637,0.10192722831646883
1403637144038319104,49.736977,578.3229881854653,9.790305583333332,-0.2778550833333333,-2.655967708333333,-0.05515240436302082,-0.004886921905584123,0.09354964790689606
1403637144088318976,67.435026,572.6491242078598,9.872027666666666,-0.612915625,-2.6641399166666666,-0.05305800926062762,-0.004886921905584123,0.09843656981248018
1403637144138319104,32.65357,521.5048080215158,9.978266375,-1.7897136249999999,-2.6396232916666666,-0.10611601852125524,0.032812189937493394,0.0991347015132779
1403637144188318976,50.059557,544.8970251762328,9.455245041666666,-2.239185083333333,-2.3209071666666663,-0.027925268031909273,0.016755160819145562,0.09285151620609833
1403637144238319104,50.143481,556.3026855273419,9.994610791666668,-1.871435708333333,-2.754034208333333,-0.006981317007977318,0.060039326268604934,0.09145525280450287
1403637144288318976,49.883842,571.8224388897816,9.430728416666666,-1.6099250416666664,-2.3045627499999997,0.011868238913561441,0.06771877497737998,0.07051130178057091
1403637144338319104,72.291136,571.6736551472657,9.626861416666666,-1.3075533333333333,-2.69682875,0.08237954069413235,0.041887902047863905,0.04956735075663895
1403637144388318976,45.442104,531.9235100274782,9.128356708333332,0.06537766666666667,-2.557901208333333,0.09704030641088471,0.023736477827122883,0.04956735075663895
1403637144438319104,32.379151,552.6407458029375,8.654368624999998,-0.10623870833333333,-2.5006957499999998,0.06283185307179587,0.012566370614359173,0.05445427266222308
1403637144488318976,50.215959,563.5261444057721,9.291800875,0.0,-2.7458620000000002,0.04537856055185257,0.016755160819145562,0.06422811647339133
1403637144538319104,49.776554,576.9177459564753,9.1201845,-0.18796079166666665,-2.655967708333333,-0.06073745796940267,0.011868238913561441,0.1054178868204575
1403637144588318976,49.995423,538.2182943567863,9.332661916666666,-3.4650163333333333,-2.3862848333333333,0.03490658503988659,0.0635299847725936,0.05515240436302082
1403637144638319104,60.689687,573.9625413817729,9.332661916666666,-0.661948875,-2.4108014583333333,0.033510321638291124,0.03769911184307752,0.08866272600131193
1403637144688318976,39.059163,571.3227287464708,9.038462416666666,-1.593580625,-2.40262925,0.07260569688296412,0.05305800926062762,0.04817108735504349
1403637144738319104,50.400257,507.25868081085866,9.103840083333333,0.563882375,-2.6396232916666666,0.10332349171806432,0.020943951023931952,0.03560471674068433
1403637144788318976,49.894809,551.7873301912294,8.785123958333333,0.14709974999999997,-2.5088679583333335,0.04537856055185257,0.005585053606381855,0.05585053606381855
1403637144838319104,64.399958,565.5909648448843,9.259112041666667,0.10623870833333333,-2.69682875,0.029321531433504733,0.0,0.057246799465414
1403637144888318976,46.056271,573.0680686369219,9.26728425,0.13075533333333333,-2.7948952499999997,0.0041887902047863905,0.0027925268031909274,0.06283185307179587
1403637144938319104,39.47401,579.9039016342105,9.332661916666666,0.35957716666666667,-2.6477955,-0.05375614096142535,-0.00767944870877505,0.09145525280450287
1403637144988318976,65.427065,556.4586131844521,9.692239083333332,-0.3759215833333333,-2.9174783749999995,-0.1117010721276371,-0.0020943951023931952,0.1361356816555577
1403637145038319104,34.461498,554.7398140475058,10.158054958333333,-0.53936575,-2.8602729166666667,-0.10402162341886204,-0.02722713633111154,0.10192722831646883
1403637145088318976,50.101519,555.0240156199819,10.092677291666664,-0.9479761666666666,-2.729517583333333,-0.0747000919853573,-0.008377580409572781,0.12356931104119852
1403637145138319104,49.864769,554.490155997245,10.043644041666665,-0.980665,-2.803067458333333,-0.07051130178057091,0.014660765716752367,0.09564404300928926
1403637145188318976,49.972296,567.9315383995636,9.324489708333333,-1.32389775,-2.40262925,-0.03420845333908886,0.021642082724729686,0.09564404300928926
1403637145238319104,50.179243,569.1670584999976,9.643205833333333,-1.0869037083333333,-2.4843513333333336,-0.032114058236695664,0.011868238913561441,0.08098327729253688
1403637145288318976,49.944639,579.1537728444742,9.561483749999999,-1.1441091666666665,-2.557901208333333,0.008377580409572781,0.048869219055841226,0.08517206749732328
1403637145338319104,50.015688,578.4032883531693,9.226423208333333,-1.103248125,-2.3862848333333333,-0.0027925268031909274,0.039793506945470715,0.06702064327658225
1403637145388318976,60.239553,582.017980692119,9.414383999999998,-1.0215260416666667,-2.476179125,0.011868238913561441,0.03769911184307752,0.07120943348136866
1403637145438319104,54.165364,581.433705993709,9.487933875,-0.7109821249999999,-2.557901208333333,0.013962634015954637,0.039793506945470715,0.08517206749732328
1403637145488318976,46.274185,581.7489639953103,9.349006333333334,-0.784532,-2.5415567916666664,0.0027925268031909274,0.025132741228718346,0.06771877497737998
1403637145538319104,49.774408,582.0271864667449,9.757616749999999,-1.0051816249999999,-2.778550833333333,0.019547687622336492,0.039793506945470715,0.0635299847725936
1403637145588318976,52.065849,579.0455456480266,9.030290208333332,-0.5965712083333333,-2.40262925,0.024434609527920613,0.0,0.08098327729253688
1403637145638319104,36.278964,581.3674422203898,9.226423208333333,-0.40861041666666664,-2.5905900416666663,0.00767944870877505,0.02652900463031381,0.060039326268604934
1403637145688318976,51.04804,581.5877236941391,9.528794916666666,-0.465815875,-2.680484333333333,0.009075712110370514,0.028623399732707,0.08447393579652555
1403637145738319104,50.037146,583.7517151974904,9.193734375,-0.42495483333333334,-2.59876225,-0.003490658503988659,0.013962634015954637,0.07958701389094143
1403637145788318976,50.548553,584.6817445145049,9.103840083333333,-0.40861041666666664,-2.3454237916666667,-0.017453292519943295,0.023736477827122883,0.08587019919812101
1403637145838319104,60.109615,582.3014505035432,9.577828166666666,-0.784532,-2.606934458333333,-0.013962634015954637,0.014660765716752367,0.08307767239493008
1403637145888318976,39.356709,582.7662442337496,9.291800875,-0.8907707083333333,-2.5006957499999998,-0.0020943951023931952,0.017453292519943295,0.08517206749732328
1403637145938319104,50.046682,583.6149424151827,9.128356708333332,-0.6537766666666667,-2.427145875,0.003490658503988659,0.006283185307179587,0.08237954069413235
1403637145988318976,60.922861,583.1277722754879,9.46341725,-0.5557101666666666,-2.6641399166666666,-0.0006981317007977319,0.010471975511965976,0.07958701389094143
1403637146038319104,54.141283,581.9274611513504,9.299973083333333,-0.6537766666666667,-2.427145875,-0.00767944870877505,0.02583087292951608,0.08168140899333462
1403637146088318976,45.572758,582.343843568812,9.504278291666665,-0.8253930416666666,-2.7213453750000003,0.0,0.03420845333908886,0.07260569688296412
1403637146138319104,39.142132,583.1644060499817,9.716755708333332,-0.7927042083333332,-2.672312125,0.0013962634015954637,0.021642082724729686,0.06841690667817772
1403637146188318976,50.089836,580.806231056345,9.234595416666666,-0.4004382083333333,-2.7213453750000003,0.014660765716752367,0.012566370614359173,0.05375614096142535
1403637146238319104,49.969673,579.9470677439947,8.883190458333333,-1.1767979999999998,-2.3535959999999996,-0.0006981317007977319,0.006981317007977318,0.10192722831646883
1403637146288318976,49.952984,567.5551737550262,9.193734375,-0.2778550833333333,-2.803067458333333,-0.041189770347066175,0.030019663134302467,0.10611601852125524
1403637146338319104,49.971819,570.5298494793947,8.87501825,-1.0705592916666666,-2.288218333333333,-0.0439822971502571,0.0041887902047863905,0.039793506945470715
1403637146388318976,50.076008,574.1928835958414,9.218250999999999,-1.4383086666666667,-2.231012875,-0.039095375244672985,0.0614355896702004,0.0747000919853573
1403637146438319104,50.394773,577.6088028552294,9.414383999999998,-1.5200307499999999,-2.6477955,-0.02024581932313422,0.017453292519943295,0.08936085770210968
1403637146488318976,66.62345,581.5312331104446,9.872027666666666,-0.42495483333333334,-2.8602729166666667,-0.0027925268031909274,0.02722713633111154,0.11868238913561441
1403637146538319104,33.191681,579.0603662672954,9.912888708333332,-0.8662540833333333,-2.982856041666666,-0.0013962634015954637,0.057246799465414,0.10471975511965977
1403637146588318976,54.270267,578.369713940248,9.953749749999998,-0.43312704166666666,-2.7458620000000002,0.0013962634015954637,0.03839724354387525,0.1096066770252439
1403637146638319104,64.084053,579.257480078972,8.948568125,-1.0215260416666667,-2.3617682083333333,0.0006981317007977319,0.011868238913561441,0.08098327729253688
1403637146688318976,32.018185,580.7583055912953,9.749444541666666,-0.42495483333333334,-2.69682875,0.014660765716752367,0.024434609527920613,0.11868238913561441
1403637146738319104,49.788952,578.9881968390557,9.773961166666666,-1.1359369583333332,-2.8602729166666667,-0.0041887902047863905,0.006283185307179587,0.047472955654245766
1403637146788318976,50.263881,580.6120831078632,9.455245041666666,-0.7681875833333334,-2.5415567916666664,-0.0020943951023931952,0.031415926535897934,0.09145525280450287
1403637146838319104,48.811198,581.609134916105,9.316317499999998,-0.7600153749999999,-2.378112625,-0.009075712110370514,0.021642082724729686,0.07120943348136866
1403637146888318976,51.237344,579.1013657905161,9.700411291666665,-0.6456044583333332,-2.6641399166666666,-0.0006981317007977319,-0.009075712110370514,0.114493598930828
1403637146938319104,49.647332,580.393747497247,9.528794916666666,-0.4903325,-2.705000958333333,-0.013962634015954637,0.032114058236695664,0.05585053606381855
1403637146988318976,48.979759,581.4757426412497,8.989429166666666,-0.35140495833333335,-2.3535959999999996,0.005585053606381855,0.016755160819145562,0.12426744274199628
1403637147038319104,50.712585,570.9803389594279,9.659550249999999,-1.1767979999999998,-2.427145875,-0.04328416544945937,0.04328416544945937,0.08377580409572781
1403637147088318976,50.181151,575.6990439354087,9.381695166666667,-0.9234595416666666,-2.5415567916666664,-0.024434609527920613,0.005585053606381855,0.10192722831646883
1403637147138319104,60.474157,576.2694002406895,9.308145291666667,-1.1441091666666665,-2.5333845833333335,-0.023736477827122883,0.03490658503988659,0.08307767239493008
1403637147188318976,39.395332,578.0451755506218,9.9047165,-1.1359369583333332,-2.8602729166666667,-0.005585053606381855,0.0153588974175501,0.09773843811168245
1403637147238319104,64.767838,580.6196486081626,9.398039583333333,-0.8172208333333333,-2.672312125,-0.0006981317007977319,0.023736477827122883,0.08028514559173915
1403637147288318976,35.181999,579.7385898528421,8.956740333333332,-0.8417374583333332,-2.3454237916666667,0.0006981317007977319,0.020943951023931952,0.0767944870877505
1403637147338319104,50.036192,577.77059734129,8.817812791666666,-0.8008764166666666,-2.1983240416666665,-0.0027925268031909274,0.05515240436302082,0.047472955654245766
1403637147388318976,50.157785,576.9571893773734,9.242767624999999,-0.612915625,-2.623278875,-0.010471975511965976,0.06073745796940267,0.06283185307179587
1403637147438319104,49.727202,580.6344955403351,10.100849499999999,-0.8825985,-3.0890947499999997,0.0013962634015954637,0.03630284844148206,0.06213372137099814
1403637147488318976,50.578356,579.8540955774183,9.765788958333333,-0.367749375,-2.8357562916666668,0.0020943951023931952,0.03839724354387525,0.08028514559173915
1403637147538319104,49.45898,580.6399048197786,10.027299625,-0.5720545833333333,-2.754034208333333,0.0020943951023931952,-0.004886921905584123,0.11100294042683936
1403637147588318976,50.10891,580.3494589170234,10.207088208333332,-0.5557101666666666,-3.0645781249999997,-0.006283185307179587,0.027925268031909273,0.08866272600131193
1403637147638319104,60.397148,581.247165480526,9.994610791666668,-0.612915625,-2.9011339583333333,0.0006981317007977319,0.03630284844148206,0.0942477796076938
1403637147688318976,39.713621,581.3928042875312,9.610517,-0.3105439166666667,-2.5415567916666664,-0.011868238913561441,0.04537856055185257,0.0942477796076938
1403637147738319104,60.379744,581.2810215287719,8.703401874999999,-0.8172208333333333,-2.1411185833333333,-0.011868238913561441,0.046076692252650306,0.07190756518216637
1403637147788318976,39.574861,581.3276422613029,9.144701125,-0.6047434166666666,-2.4189736666666666,-0.017453292519943295,0.010471975511965976,0.06422811647339133
1403637147838319104,49.864769,581.4867988437451,8.907707083333333,-0.5066769166666666,-2.69682875,0.0006981317007977319,-0.00767944870877505,0.08098327729253688
1403637147888318976,60.436011,580.3284220678464,9.471589458333332,-0.7028099166666667,-2.549729,-0.009773843811168246,0.03490658503988659,0.060039326268604934
1403637147938319104,39.313316,582.0391270618085,9.643205833333333,-0.809048625,-2.672312125,-0.010471975511965976,0.023038346126325153,0.06771877497737998
1403637147988318976,50.379991,580.3290685802987,9.643205833333333,-0.6210878333333334,-2.5170401666666664,-0.0027925268031909274,0.0006981317007977319,0.06771877497737998
1403637148038319104,60.40001,580.85021172657,9.357178541666666,-0.7927042083333332,-2.631451083333333,-0.014660765716752367,0.00767944870877505,0.05794493116621174
1403637148088318976,50.092697,580.9263041361896,9.822994416666667,-0.7109821249999999,-2.9583394166666666,0.004886921905584123,0.029321531433504733,0.08307767239493008
1403637148138319104,39.144516,578.4545440438666,9.144701125,-0.809048625,-2.4843513333333336,-0.0041887902047863905,0.02722713633111154,0.09634217471008698
1403637148188318976,60.747862,579.781663114157,9.626861416666666,-0.21247741666666667,-2.7622064166666664,-0.0006981317007977319,0.05026548245743669,0.07539822368615504
1403637148238319104,39.505243,580.6573126751815,10.100849499999999,-0.5557101666666666,-2.8602729166666667,0.01117010721276371,0.0,0.10890854532444616
1403637148288318976,49.889803,573.4804953596747,8.262102624999999,-0.32688833333333334,-2.1492907916666666,0.019547687622336492,0.0747000919853573,0.09494591130849153
1403637148338319104,60.560941,579.9720680563697,10.035471833333334,-0.6782932916666666,-2.59876225,-0.004886921905584123,0.07330382858376185,0.059341194567807204
1403637148388318976,39.521456,580.0540047646211,10.386876791666666,-0.5066769166666666,-2.655967708333333,0.0307177948351002,0.003490658503988659,0.1165879940332212
1403637148438319104,49.75915,578.476271353916,8.302963666666667,-0.06537766666666667,-1.871435708333333,-0.006283185307179587,0.027925268031909273,0.031415926535897934
1403637148488318976,50.207615,574.4070485744854,10.623870833333331,-0.8499096666666667,-3.0972669583333334,0.0041887902047863905,0.06702064327658225,0.029321531433504733
1403637148538319104,49.862623,572.7880095432495,10.288810291666666,-0.4494714583333333,-2.8194118749999997,0.02583087292951608,-0.0041887902047863905,0.12426744274199628
1403637148588318976,50.204515,569.2346105177782,9.357178541666666,0.13075533333333333,-3.1544724166666662,0.05166174585903216,0.0307177948351002,0.10402162341886204
1403637148638319104,60.429335,574.3316439253992,9.724927916666667,-0.9234595416666666,-2.6641399166666666,0.0020943951023931952,0.06981317007977318,0.06562437987498679
1403637148688318976,38.730144,568.0446325901565,9.07115125,-0.17978858333333333,-2.3944570416666666,0.009075712110370514,-0.041887902047863905,0.04468042885105484
1403637148738319104,50.52352,572.4907520528392,8.016936375,-0.6537766666666667,-2.0103632499999997,-0.005585053606381855,-0.031415926535897934,0.07190756518216637
1403637148788318976,50.159931,568.4164812211947,7.976075333333333,0.11441091666666667,-1.7897136249999999,-0.013962634015954637,0.07888888219014369,0.06073745796940267
1403637148838319104,54.928541,573.7650334177995,7.878008833333333,-0.563882375,-1.8796079166666666,0.006283185307179587,0.08377580409572781,0.0635299847725936
1403637148888318976,48.357249,570.9562992991895,8.77695175,-0.563882375,-2.1738074166666665,0.03560471674068433,-0.06702064327658225,0.06283185307179587
1403637148938319104,47.029018,566.3542344025811,11.048825666666666,-0.0980665,-2.9256505833333333,0.012566370614359173,0.03630284844148206,0.11239920382843484
1403637148988318976,60.572386,573.8701891880468,9.447072833333333,-0.8825985,-2.999200458333333,-0.009773843811168246,0.0767944870877505,0.06702064327658225
1403637149038319104,55.424213,565.8747888067549,9.36535075,-0.44129925,-2.1656352083333332,0.032114058236695664,0.05794493116621174,0.07400196028455958
1403637149088318976,33.663273,572.0583648096722,8.392857958333332,-1.3729310000000001,-1.846919083333333,-0.023736477827122883,0.056548667764616284,0.05445427266222308
1403637149138319104,60.883284,567.5891526137445,8.760607333333333,0.08172208333333333,-2.459834708333333,0.02024581932313422,0.03700098014227979,0.025132741228718346
1403637149188318976,39.343834,565.0387010716694,9.316317499999998,-0.9561483749999999,-2.811239666666667,-0.006283185307179587,0.0307177948351002,0.14730578886832138
1403637149238319104,60.461521,562.4131234905306,8.907707083333333,-0.7518431666666666,-2.4516625,0.048869219055841226,0.01815142422074103,0.08726646259971647
1403637149288318976,39.349556,570.7043876126355,9.422556208333333,-1.0623870833333333,-2.0348798749999997,0.013962634015954637,-0.047472955654245766,0.07330382858376185
1403637149338319104,50.020933,564.4563130779507,9.046634625,-0.416782625,-2.288218333333333,0.013962634015954637,0.056548667764616284,0.09704030641088471
1403637149388318976,60.622692,569.0782581519878,9.594172583333334,-0.8499096666666667,-2.8766173333333334,0.006283185307179587,-0.039095375244672985,0.08028514559173915
1403637149438319104,50.135374,546.680574571525,8.825985,-0.6701210833333332,-2.5415567916666664,0.04258603374866164,0.02652900463031381,-0.009773843811168246
1403637149488318976,39.455652,562.7117009579728,10.378704583333333,-0.8907707083333333,-2.5170401666666664,-0.016755160819145562,0.00767944870877505,0.0942477796076938
1403637149538319104,49.941302,531.6583876790289,9.545139333333333,-0.392266,-3.211677875,0.09145525280450287,-0.09145525280450287,0.0614355896702004
1403637149588318976,49.900055,401.4666417045971,8.662540833333333,-0.32688833333333334,-2.1166019583333333,0.07400196028455958,-0.19408061282176942,-0.017453292519943295
1403637149638319104,51.263094,299.90679362519506,7.240576583333333,-0.24516625,-1.5200307499999999,0.19477874452256716,-0.25342180738957665,-0.13473941825396224
1403637149688318976,49.248218,416.2532173039696,7.9188698749999995,0.9479761666666666,-1.3075533333333333,0.17941984710501704,0.019547687622336492,-0.006283185307179587
1403637149738319104,50.408125,469.682640776148,5.181180083333333,-0.8907707083333333,-0.2778550833333333,0.10262536001726656,0.15987215948268058,-0.012566370614359173
1403637149788318976,65.361738,476.98692707460685,10.730109541666666,-0.8825985,-4.306753791666666,0.10471975511965977,-0.0006981317007977319,0.07190756518216637
1403637149838319104,45.660019,275.32020775518635,9.929233125,1.299381125,-2.606934458333333,0.05166174585903216,-0.260403124397554,0.15638150097869194
1403637149888318976,38.648367,260.55128895639996,11.179580999999999,0.11441091666666667,-2.378112625,-0.08098327729253688,-0.278554548618295,-0.12217304763960307
1403637149938319104,49.847126,259.6387297274925,10.329671333333332,-0.196133,-3.6202882916666663,-0.07539822368615504,-0.37908551353316833,-0.09983283321407566
1403637149988318976,60.499668,241.0004703833067,8.392857958333332,-0.04086104166666667,-3.751043625,-0.09983283321407566,-0.40910517666747087,-0.19058995431778078
1403637150038319104,39.43348,279.92718689961833,8.221241583333333,0.8580818749999999,-3.906315583333333,-0.15777776438028737,-0.26249751949994715,-0.1759291886010284
1403637150088318976,48.971653,292.1901543632857,11.955940791666666,-0.318716125,-4.053415333333333,-0.153588974175501,-0.17523105690023066,-0.09704030641088471
1403637150138319104,50.817728,292.82825464639603,8.850501625,0.9234595416666666,-3.4813607499999994,-0.19687313962496036,-0.07400196028455958,-0.1117010721276371
1403637150188318976,50.023794,278.7803613332136,10.550320958333334,-0.8907707083333333,-3.9962098749999995,-0.15079644737231007,0.00767944870877505,-0.02234021442552742
1403637150238319104,49.953222,255.3258901715207,9.741272333333333,0.35957716666666667,-3.4404997083333333,-0.08587019919812101,0.1689478715930511,0.08028514559173915
1403637150288318976,60.98628,249.55149471137318,8.817812791666666,0.6946377083333333,-2.5252123749999997,-0.11030480872604163,0.18570303241219666,0.08726646259971647
1403637150338319104,49.567461,225.74444582767472,10.2969825,-0.4903325,-3.8245934999999998,-0.05515240436302082,0.3972369377539094,0.19408061282176942
1403637150388318976,55.540085,227.48368137436177,8.768779541666666,0.6047434166666666,-3.0727503333333335,-0.00767944870877505,0.38746309394274114,0.14800392056911915
1403637150438319104,33.357144,263.4350564361061,6.856482791666667,0.07354987499999999,-1.6753027083333332,-0.1270599695451872,0.27995081201989047,0.04049163864626844
1403637150488318976,50.782919,320.01654996041606,9.079323458333333,-0.22882183333333334,-4.511059,-0.0879645943005142,0.12007865253720987,0.19687313962496036
1403637150538319104,49.753427,354.6677200336877,10.713765125,-0.23699404166666665,-3.219850083333333,-0.03839724354387525,0.12426744274199628,0.09704030641088471
1403637150588318976,60.478449,398.5265686615313,6.962721499999999,-0.5557101666666666,-1.7406803749999997,-0.08656833089891874,0.07749261878854824,0.07609635538695278
1403637150638319104,39.213896,390.33867863197037,8.482752249999999,-0.04086104166666667,-3.0809225416666663,-0.031415926535897934,0.0439822971502571,0.11938052083641214
1403637150688318976,50.216913,466.809121578077,10.983448000000001,0.34323275000000003,-5.426346333333333,-0.02583087292951608,0.031415926535897934,0.08517206749732328
1403637150738319104,49.792767,456.8033408605115,8.450063416666666,-0.07354987499999999,-2.083913125,-0.06911503837897544,0.10681415022205297,0.039095375244672985
1403637150788318976,50.073862,475.5844583414628,8.850501625,0.17978858333333333,-3.18716125,-0.060039326268604934,-0.010471975511965976,0.06841690667817772
1403637150838319104,65.258979,414.51447660918274,10.795487208333332,0.20430520833333332,-4.249548333333333,-0.01117010721276371,0.20734511513692636,0.06213372137099814
1403637150888318976,34.724713,390.568622488307,7.028099166666666,-0.5802267916666666,-2.0185354583333335,-0.023038346126325153,0.2192133540504878,0.05515240436302082
1403637150938319104,49.823999,423.55075271515875,8.842329416666665,-0.21247741666666667,-3.219850083333333,0.0041887902047863905,0.12217304763960307,0.1228711793404008
1403637150988318976,50.274849,475.4160859850485,10.452254458333334,0.5230213333333333,-4.323098208333334,0.010471975511965976,0.17453292519943295,0.06492624817418906
1403637151038319104,49.684525,457.9624191889743,7.992419749999999,0.21247741666666667,-2.9174783749999995,0.009075712110370514,0.2199114857512855,0.056548667764616284
1403637151088318976,50.227165,466.8576065170083,8.7279185,0.15527195833333335,-2.7131731666666665,-0.009075712110370514,0.15498523757709648,0.05026548245743669
1403637151138319104,54.810524,542.3958184616436,9.684066875,0.3105439166666667,-4.151481833333333,0.047472955654245766,0.11868238913561441,0.05445427266222308
1403637151188318976,58.639765,746.7515540845716,9.406211791666665,0.3840937916666667,-3.4078108749999996,0.0020943951023931952,-0.03769911184307752,0.08866272600131193
1403637151238319104,36.419153,739.0685265984954,10.893553708333332,-0.416782625,-3.366949833333333,0.0614355896702004,-0.114493598930828,0.11239920382843484
1403637151288318976,66.365957,765.8540271852552,9.692239083333332,-0.11441091666666667,-2.20649625,0.07539822368615504,-0.1647590813882647,0.17174039839624203
1403637151338319104,44.526816,722.3907184997362,9.36535075,0.220649625,-4.16782625,0.10611601852125524,-0.13892820845874865,0.23177972466484695
1403637151388318976,49.876451,689.1846598865346,10.558493166666667,0.2778550833333333,-4.028898708333333,0.1096066770252439,-0.10402162341886204,0.3427826650916863
1403637151438319104,39.301157,841.8692504827474,11.097858916666665,-0.9071151249999999,-2.6396232916666666,0.03560471674068433,-0.05235987755982988,0.12636183784438945
1403637151488318976,50.084114,827.6535129709945,8.858673833333333,-0.024516625,-3.260711125,0.02024581932313422,-0.057246799465414,-0.0027925268031909274
1403637151538319104,49.949885,790.4594201904839,7.976075333333333,0.024516625,-3.366949833333333,-0.057246799465414,-0.03630284844148206,0.009773843811168246
1403637151588318976,50.195694,973.6512078070574,7.50208725,-0.08989429166666667,-3.538566208333333,-0.005585053606381855,-0.0013962634015954637,0.03839724354387525
1403637151638319104,49.881696,889.2110258852668,8.074141833333334,0.8499096666666667,-3.0972669583333334,-0.01815142422074103,0.08377580409572781,-0.050963614158234416
1403637151688318976,50.102473,994.7797341442325,7.534776083333333,-0.18796079166666665,-3.1054391666666663,-0.024434609527920613,-0.05794493116621174,0.0614355896702004
1403637151738319104,49.7303,1151.371381831693,9.635033625,0.220649625,-3.8491101249999997,0.02722713633111154,0.08168140899333462,0.05305800926062762
1403637151788318976,50.078393,1179.055098822422,9.013945791666666,-0.08172208333333333,-2.20649625,-0.02722713633111154,0.009075712110370514,0.0153588974175501
1403637151838319104,49.960136,1174.3040491479646,11.024309041666667,0.7681875833333334,-3.538566208333333,0.0020943951023931952,-0.009773843811168246,0.06771877497737998
1403637151888318976,50.238609,1180.5396179571915,9.422556208333333,0.04086104166666667,-2.655967708333333,-0.01117010721276371,0.07190756518216637,-0.032114058236695664
1403637151938319104,49.634218,1279.8434134614322,9.945577541666665,-0.4903325,-4.731708625,0.0027925268031909274,-0.031415926535897934,0.09704030641088471
1403637151988318976,60.607195,1273.8061584560999,8.67888525,0.3840937916666667,-3.505877375,0.003490658503988659,0.010471975511965976,0.050963614158234416
1403637152038319104,39.491177,1309.4655880714051,9.430728416666666,-0.34323275000000003,-3.2280222916666665,0.041887902047863905,0.0153588974175501,0.10821041362364843
1403637152088318976,50.228357,1251.5531656842022,10.509459916666668,0.17978858333333333,-3.6039438749999997,0.025132741228718346,0.023038346126325153,0.09564404300928926
1403637152138319104,60.547114,1269.8550811891225,7.142510083333334,-0.40861041666666664,-3.342433208333333,0.020943951023931952,-0.02652900463031381,0.12356931104119852
1403637152188318976,50.210952,1224.8644925724811,8.654368624999998,-1.0296982499999998,-2.280046125,0.013264502315156905,0.05235987755982988,0.08587019919812101
1403637152238319104,38.336754,1350.831787493865,5.908506625,0.29419949999999995,-2.1656352083333332,0.02652900463031381,-0.0020943951023931952,0.11728612573401893
1403637152288318976,50.696373,1335.8972734775011,8.115002875,-0.7600153749999999,-3.0400614999999998,-0.006283185307179587,-0.01884955592153876,0.1647590813882647
1403637152338319104,49.980164,1284.4738201655316,7.265093208333333,0.7518431666666666,-2.3454237916666667,0.0307177948351002,0.060039326268604934,0.008377580409572781
1403637152388318976,50.231695,1319.6513439131534,9.308145291666667,-0.057205458333333334,-3.67749375,-0.017453292519943295,-0.013962634015954637,0.08726646259971647
1403637152438319104,49.819946,1362.97141037731,9.847511041666666,-0.7436709583333333,-3.2852277500000002,-0.023736477827122883,-0.03700098014227979,0.005585053606381855
1403637152488318976,65.898657,1361.5393976131172,7.837147791666666,0.5475379583333333,-2.435318083333333,0.0027925268031909274,0.05445427266222308,0.09843656981248018
1403637152538319104,33.810854,1367.8950201731843,8.490924458333334,-0.23699404166666665,-3.5222217916666665,-0.016755160819145562,0.008377580409572781,0.08237954069413235
1403637152588318976,49.277067,1320.2359366526427,9.177389958333332,0.008172208333333333,-1.9776744166666664,-0.0006981317007977319,0.09564404300928926,-0.009075712110370514
1403637152638319104,51.180125,1432.1868093068488,10.043644041666665,0.7273265416666667,-3.4813607499999994,0.0027925268031909274,0.021642082724729686,0.11309733552923257
1403637152688318976,60.361385,1261.200018378694,8.351996916666666,-0.612915625,-3.0564059166666664,-0.039095375244672985,0.05515240436302082,0.05166174585903216
1403637152738319104,50.130844,1215.196690985121,9.667722458333333,-0.08172208333333333,-3.178989041666666,0.06422811647339133,0.1445132620651305,0.11868238913561441
1403637152788318976,39.016247,1065.1792701923123,10.329671333333332,0.784532,-3.3015721666666664,-0.025132741228718346,0.1494001839707146,0.09005898940290741
1403637152838319104,60.914516,1131.907091378509,9.659550249999999,-0.8253930416666666,-4.2822371666666665,0.01815142422074103,0.05585053606381855,0.13334315485236678
1403637152888318976,39.41226,1038.2507152461626,8.490924458333334,0.6537766666666667,-4.502886791666667,0.016755160819145562,0.09285151620609833,-0.011868238913561441
1403637152938319104,49.887896,951.5528212783053,10.525804333333332,-0.07354987499999999,-3.6039438749999997,-0.04956735075663895,0.15009831567151233,-0.030019663134302467
1403637152988318976,50.108671,1236.235228986984,10.141710541666667,0.18796079166666665,-4.339442625,0.05026548245743669,0.0767944870877505,0.10192722831646883
1403637153038319104,49.757719,1126.2798052553858,8.131347291666666,0.8989429166666666,-3.358777625,-0.08028514559173915,-0.0041887902047863905,0.059341194567807204
1403637153088318976,65.911293,1225.119919036793,9.675894666666666,-0.93163175,-2.7948952499999997,0.0,0.02722713633111154,0.027925268031909273
1403637153138319104,33.255816,1295.6183675976306,6.995410333333333,0.8825985,-2.0185354583333335,-0.0020943951023931952,-0.046076692252650306,0.06771877497737998
1403637153188318976,61.303854,1232.691858729231,8.09048625,0.35140495833333335,-3.366949833333333,-0.03420845333908886,-0.05235987755982988,0.020943951023931952
1403637153238319104,39.555072,1169.6233715265175,8.507268875,0.20430520833333332,-3.3832942499999996,0.01117010721276371,0.0307177948351002,-0.009075712110370514
1403637153288318976,61.062336,1227.0554346996223,10.207088208333332,0.5066769166666666,-3.391466458333333,-0.023736477827122883,0.024434609527920613,0.047472955654245766
1403637153338319104,39.060116,1179.6491810254167,8.409202375,0.07354987499999999,-2.5088679583333335,-0.05445427266222308,0.0767944870877505,0.025132741228718346
1403637153388318976,49.023628,1297.1944407245262,10.223432625,0.0,-4.053415333333333,0.004886921905584123,-0.032114058236695664,0.04468042885105484
1403637153438319104,55.881501,1271.3167832026381,9.022118,0.122583125,-3.857282333333333,-0.047472955654245766,-0.06981317007977318,0.03630284844148206
1403637153488318976,49.797535,1237.0877655927197,8.482752249999999,-1.348414375,-3.0727503333333335,-0.01884955592153876,-0.10402162341886204,-0.016755160819145562
1403637153538319104,62.841415,1298.186031115722,8.891362666666666,0.10623870833333333,-3.947176625,0.02583087292951608,-0.10611601852125524,0.09354964790689606
1403637153588318976,32.544375,1176.1173377371038,9.07115125,0.20430520833333332,-3.6121160833333334,-0.023038346126325153,0.029321531433504733,0.10262536001726656
1403637153638319104,49.864292,1098.3450752359151,10.190743791666666,0.21247741666666667,-3.881798958333333,0.039793506945470715,0.08307767239493008,0.12426744274199628
1403637153688318976,50.174474,1027.9501411818285,8.662540833333333,0.6864655000000001,-3.391466458333333,-0.0307177948351002,0.041189770347066175,0.05515240436302082
1403637153738319104,49.711705,919.1990500730017,7.5102594583333335,-0.35957716666666667,-4.535575625,-0.03769911184307752,0.12775810124598494,0.041887902047863905
1403637153788318976,60.63056,986.2456416675312,8.850501625,0.14709974999999997,-2.8847895416666667,0.04049163864626844,0.07749261878854824,0.17662732030182612
1403637153838319104,55.140972,951.6414704680348,8.180380541666665,0.8008764166666666,-3.1544724166666662,-0.0027925268031909274,0.1850049007113989,0.009773843811168246
1403637153888318976,34.429073,1088.8525978577586,8.000591958333333,-0.5883989999999999,-2.9583394166666666,-0.056548667764616284,0.06213372137099814,0.11379546723003027
1403637153938319104,49.550057,1063.0737523503417,9.855683249999998,0.06537766666666667,-3.342433208333333,0.0439822971502571,0.1117010721276371,0.16545721308906244
1403637153988318976,50.549745,1185.9422698684418,7.624670374999999,0.14709974999999997,-2.8684451249999996,-0.020943951023931952,0.08517206749732328,0.032812189937493394
1403637154038319104,49.429178,1226.2521536333322,7.134337875,0.20430520833333332,-2.3699404166666667,0.003490658503988659,-0.08237954069413235,0.13823007675795088
1403637154088318976,61.093569,1071.82002968247,9.013945791666666,0.17161637500000002,-3.5222217916666665,0.0439822971502571,-0.12007865253720987,0.1954768762233649
1403637154138319104,38.674116,928.6126585053554,6.913688249999999,1.12776475,-1.6998193333333333,0.10122909661567112,-0.13334315485236678,0.33510321638291124
1403637154188318976,61.371327,735.3714396754439,9.757616749999999,-1.2830367083333332,-3.6121160833333334,0.09215338450530061,-0.23876104167282428,0.4879940588576146
1403637154238319104,38.976669,1053.3233626988458,7.518431666666666,0.73549875,-2.2473572916666664,0.08168140899333462,-0.05445427266222308,0.28832839242946323
1403637154288318976,52.119017,1055.8200260473077,8.654368624999998,0.08172208333333333,-2.5415567916666664,0.06213372137099814,-0.07190756518216637,0.26668630970473356
1403637154338319104,48.981428,1079.5234808018893,11.048825666666666,0.13892754166666665,-4.323098208333334,-0.05864306286700947,-0.08447393579652555,0.04956735075663895
1403637154388318976,61.919451,891.3646418163092,8.572646541666666,-0.3350605416666666,-2.557901208333333,-0.06771877497737998,0.1850049007113989,-0.10192722831646883
1403637154438319104,55.835962,788.7562820638266,9.684066875,0.13075533333333333,-2.7131731666666665,-0.059341194567807204,0.15707963267948966,-0.09075712110370514
1403637154488318976,32.388687,871.4861386268117,8.801468374999999,1.1114203333333332,-3.334261,-0.07539822368615504,0.18919369091618532,-0.12077678423800758
1403637154538319104,61.796665,857.4388679832506,9.659550249999999,-0.23699404166666665,-3.1299557916666663,-0.1556833692778942,-0.04537856055185257,-0.07260569688296412
1403637154588318976,53.178549,824.6763748272482,7.902525458333333,-0.15527195833333335,-4.192342875,-0.09983283321407566,0.12147491593880534,-0.13683381335635544
1403637154638319104,46.325207,797.8294256681748,9.381695166666667,0.220649625,-3.979865458333333,-0.10611601852125524,-0.09215338450530061,-0.0767944870877505
1403637154688318976,37.501573,737.4086416539785,9.888372083333332,-0.5475379583333333,-2.280046125,-0.1731366617978375,-0.08936085770210968,-0.10332349171806432
1403637154738319104,50.372362,768.4853706927357,9.667722458333333,1.0215260416666667,-3.751043625,-0.1982694030265558,-0.11239920382843484,-0.012566370614359173
1403637154788318976,50.419093,638.4091915798463,10.509459916666668,-0.6946377083333333,-4.208687291666666,-0.2303834612632515,-0.1689478715930511,0.124965574442794
1403637154838319104,48.774957,645.0843085281297,9.242767624999999,-0.10623870833333333,-3.5549106249999998,-0.21223203704251048,-0.15917402778188286,0.1647590813882647
1403637154888318976,50.004483,724.6921314485988,9.618689208333333,0.5883989999999999,-4.36395925,-0.24783675378319478,-0.12007865253720987,0.05375614096142535
1403637154938319104,61.530113,732.461484072142,9.414383999999998,-0.6701210833333332,-3.6039438749999997,-0.19477874452256716,-0.05235987755982988,0.2192133540504878
1403637154988318976,38.551092,796.617435793992,10.533976541666666,-0.4004382083333333,-3.8491101249999997,-0.13962634015954636,0.014660765716752367,0.17941984710501704
1403637155038319104,66.217661,651.4887083133583,10.468598874999998,0.0980665,-3.293399958333333,-0.24294983187761068,0.1424188669627373,0.16545721308906244
1403637155088318976,45.455456,502.90592998801094,11.253130874999998,-0.8744262916666666,-4.1024485833333335,-0.2834414705238791,0.2981022362406315,0.17662732030182612
1403637155138319104,39.148569,537.8794256376895,9.496106083333332,0.7600153749999999,-4.592781083333333,-0.2303834612632515,0.24923301718479024,0.23596851486963336
1403637155188318976,65.080166,615.5294269908566,9.062979041666667,-0.63743225,-4.069759749999999,-0.239459173373622,0.14800392056911915,0.18919369091618532
1403637155238319104,44.983625,526.7554379957154,10.207088208333332,-0.07354987499999999,-2.966511625,-0.124965574442794,0.1864011641129944,0.1647590813882647
1403637155288318976,39.844036,611.9333567853728,9.839338833333333,-0.14709974999999997,-2.655967708333333,-0.1494001839707146,0.21711895894809458,0.09494591130849153
1403637155338319104,50.107956,676.5690724452136,8.294791458333332,0.2778550833333333,-2.2963905416666663,-0.16336281798666924,0.12985249634837812,0.16336281798666924
1403637155388318976,49.925089,597.0057702701191,11.343025166666667,0.06537766666666667,-4.0125542916666666,-0.17523105690023066,0.13823007675795088,0.210835773640915
1403637155438319104,60.297489,637.3944425660807,8.098658458333333,0.04903325,-2.9583394166666666,-0.3022910264454179,0.09145525280450287,0.19896753472735357
1403637155488318976,39.504528,668.4034721061063,8.858673833333333,-0.53936575,-3.9880376666666666,-0.25621433419276757,0.13753194505715316,0.2988003679414292
1403637155538319104,60.67729,765.6762635529839,7.273265416666667,0.196133,-4.086104166666667,-0.2303834612632515,0.003490658503988659,0.24923301718479024
1403637155588318976,39.126873,757.7226284753657,8.866846041666665,0.0980665,-2.9011339583333333,-0.19408061282176942,0.11798425743481668,0.31695179216217023
1403637155638319104,50.139427,776.6904162010054,8.605335375,-0.032688833333333334,-3.0482337083333335,-0.18430676901060122,-0.0767944870877505,0.31066860685499065
1403637155688318976,50.112009,783.2439467417804,9.357178541666666,0.4903325,-4.404820291666666,-0.19058995431778078,0.039793506945470715,0.24923301718479024
1403637155738319104,54.673672,768.8269600433307,8.343824708333333,-0.04903325,-2.0430520833333334,-0.228987197861656,-0.010471975511965976,0.2541199390903744
1403637155788318976,47.918797,764.9844377419363,9.749444541666666,0.63743225,-3.0318892916666664,-0.2673844414055313,0.07330382858376185,0.3050835532486088
1403637155838319104,47.349214,681.1276511023977,7.322298666666667,0.21247741666666667,-3.3751220416666667,-0.36582101121801147,-0.041887902047863905,0.31695179216217023
1403637155888318976,50.048351,579.8426710361894,9.831166624999998,0.4004382083333333,-2.7948952499999997,-0.4314453910929983,0.006981317007977318,0.15917402778188286
1403637155938319104,50.142527,582.5036014775892,9.814822208333332,0.20430520833333332,-3.751043625,-0.44331363000655966,-0.021642082724729686,0.26878070480712674
1403637155988318976,49.918413,626.0672843781524,9.422556208333333,0.7191543333333333,-2.6886565416666666,-0.4461061568097506,0.06911503837897544,0.24504422698000386
1403637156038319104,49.886942,639.5456518056653,9.888372083333332,-0.40861041666666664,-3.0972669583333334,-0.4237659423842232,0.13823007675795088,0.325329372571743
1403637156088318976,49.02482,714.5684258637399,11.302164125000001,0.7109821249999999,-3.4568441249999995,-0.42655846918741414,0.06702064327658225,0.3839724354387525
1403637156138319104,50.86875,662.1831714324009,7.412192958333333,-0.6537766666666667,-2.3454237916666667,-0.5138249317871306,0.11728612573401893,0.2701769682087222
1403637156188318976,51.827192,685.6814695298045,10.133538333333334,-0.220649625,-2.1411185833333333,-0.44959681531373935,0.14172073526193954,0.36861353802120245
1403637156238319104,49.62492,683.9198704163554,10.525804333333332,-0.5148491249999999,-4.2168595,-0.5424483315198376,0.07051130178057091,0.3120648702565861
1403637156288318976,49.503088,692.3662815922711,7.559292708333333,0.10623870833333333,-3.4977051666666665,-0.5173155902911193,0.06422811647339133,0.32812189937493397
1403637156338319104,61.525822,693.4790601414538,9.945577541666665,0.220649625,-3.759215833333333,-0.5138249317871306,0.1075122819228507,0.2778564169174973
1403637156388318976,38.314104,697.6169764719758,8.67888525,-0.34323275000000003,-2.7458620000000002,-0.5592034923389831,0.032812189937493394,0.2611012560983517
1403637156438319104,49.725533,719.6015897618172,8.605335375,0.6292600416666666,-4.568264458333333,-0.5522221753310059,0.08307767239493008,0.2694788365079245
1403637156488318976,61.678648,704.4373204035692,9.046634625,0.08172208333333333,-1.9041245416666663,-0.518013721991917,0.13823007675795088,0.2590068609959585
1403637156538319104,38.773059,693.63659350958,8.744262916666667,-0.08989429166666667,-3.3751220416666667,-0.5452408583230285,0.0153588974175501,0.3050835532486088
1403637156588318976,49.860478,700.0521862805786,7.657359208333333,-0.04903325,-3.4323274999999995,-0.5696754678509492,0.08656833089891874,0.1647590813882647
1403637156638319104,49.927473,705.0458303553405,7.665531416666666,0.5720545833333333,-4.028898708333333,-0.5298819609054785,0.11728612573401893,0.2234021442552742
1403637156688318976,65.290689,696.1148483993601,7.984247541666667,-1.2748645,-3.334261,-0.5738642580557356,0.11868238913561441,0.13753194505715316
1403637156738319104,45.313836,726.9298944451218,8.989429166666666,0.16344416666666667,-3.9635210416666666,-0.45867252742410985,0.010471975511965976,0.1668534764906579
1403637156788318976,50.443887,632.8147576052287,9.487933875,-0.032688833333333334,-3.334261,-0.44121923490416654,-0.023038346126325153,0.01815142422074103
1403637156838319104,38.535118,609.5628817884794,8.28661925,-0.465815875,-3.979865458333333,-0.403520123061089,-0.13055062804917586,-0.008377580409572781
1403637156888318976,50.02594,694.6615355191516,9.863855458333333,-0.17978858333333333,-4.233203916666667,-0.28204520712228365,-0.11100294042683936,0.01815142422074103
1403637156938319104,49.939394,709.4603323364641,9.095667875,-0.784532,-4.2168595,-0.2834414705238791,-0.003490658503988659,-0.033510321638291124
1403637156988318976,50.178767,764.232407502834,7.7390812916666665,-0.016344416666666667,-2.459834708333333,-0.13683381335635544,-0.046076692252650306,0.025132741228718346
1403637157038319104,49.965143,874.0045388179786,9.5124505,-0.5311935416666667,-3.8164212916666664,-0.07819075048934597,-0.14870205226991687,0.16545721308906244
1403637157088318976,50.221681,926.139275642711,9.185562166666665,0.6537766666666667,-2.1738074166666665,-0.032812189937493394,-0.023736477827122883,0.1424188669627373
1403637157138319104,50.013543,1077.5247666032021,9.07115125,-0.26151066666666667,-3.0645781249999997,0.032812189937493394,-0.05026548245743669,0.153588974175501
1403637157188318976,60.961008,1141.0052157182693,9.937405333333334,0.4004382083333333,-4.75622525,0.0027925268031909274,0.057246799465414,0.16755160819145562
1403637157238319104,38.589239,1118.1232867789606,10.983448000000001,-0.3350605416666666,-4.445681333333333,0.05794493116621174,0.046076692252650306,0.19338248112097173
1403637157288318976,49.006462,1125.353642760047,9.218250999999999,-0.17978858333333333,-2.5415567916666664,0.08587019919812101,0.02652900463031381,0.17034413499464657
1403637157338319104,61.969757,1130.3643630180627,9.185562166666665,0.220649625,-2.3454237916666667,0.07260569688296412,0.041189770347066175,0.1445132620651305
1403637157388318976,38.234949,1003.481647393667,10.713765125,-0.07354987499999999,-3.857282333333333,0.1494001839707146,0.008377580409572781,0.3134611336581816
1403637157438319104,50.725937,1101.3834163058941,9.398039583333333,-0.24516625,-5.066769166666667,0.12147491593880534,-0.04328416544945937,0.21642082724729686
1403637157488318976,50.07863,1073.2081131304253,9.013945791666666,-0.20430520833333332,-2.7867230416666664,0.08726646259971647,0.12356931104119852,0.1291543646475804
1403637157538319104,60.732603,1118.7742865591572,11.923251958333333,-0.04086104166666667,-3.6856659583333333,0.12636183784438945,0.07330382858376185,0.1731366617978375
1403637157588318976,39.261818,1151.8880465456407,9.357178541666666,-0.18796079166666665,-2.999200458333333,0.050963614158234416,-0.06213372137099814,0.03630284844148206
1403637157638319104,49.918413,1169.135916241853,8.817812791666666,0.04086104166666667,-3.6529771249999996,0.05235987755982988,0.02652900463031381,0.06283185307179587
1403637157688318976,50.093651,1122.468975682525,10.109021708333332,-0.9970094166666666,-2.5006957499999998,0.06632251157578452,0.04817108735504349,0.10262536001726656
1403637157738319104,50.004244,1112.5373947221071,11.32668075,-0.9152873333333333,-4.993219291666667,0.05305800926062762,0.10681415022205297,0.060039326268604934
1403637157788318976,49.865484,900.645363492116,8.825985,-0.7109821249999999,-2.6477955,-0.010471975511965976,0.07888888219014369,-0.08168140899333462
1403637157838319104,49.98827,886.8078488245217,9.5124505,0.016344416666666667,-3.415983083333333,-0.021642082724729686,0.14590952546672595,-0.004886921905584123
1403637157888318976,49.916029,743.677623246554,8.368341333333333,0.08989429166666667,-2.40262925,-0.028623399732707,0.22619467105846514,-0.09075712110370514
1403637157938319104,60.315609,875.7454201583821,9.610517,-0.53936575,-4.028898708333333,-0.023038346126325153,0.1291543646475804,-0.027925268031909273
1403637157988318976,62.142134,892.1027128111482,9.26728425,0.220649625,-3.2525389166666665,-0.013264502315156905,0.17243853009703977,-0.039095375244672985
1403637158038319104,45.019626,592.6117235962714,11.269475291666666,-0.44129925,-3.6121160833333334,-0.11030480872604163,0.039793506945470715,-0.15498523757709648
1403637158088318976,32.635451,676.4307723684728,8.77695175,-0.5066769166666666,-3.0972669583333334,0.006283185307179587,0.05864306286700947,-0.041189770347066175
1403637158138319104,49.785375,698.4793685444063,10.182571583333333,0.465815875,-1.7243359583333333,0.013264502315156905,0.08377580409572781,0.028623399732707
1403637158188318976,50.195933,689.2799598801756,10.501287708333333,-0.44129925,-3.6611493333333334,-0.0020943951023931952,0.07819075048934597,0.08447393579652555
1403637158238319104,49.642324,629.1635280771343,9.26728425,0.008172208333333333,-4.437509125,-0.10122909661567112,-0.08168140899333462,0.07400196028455958
1403637158288318976,50.353766,605.9637366041248,10.198916,0.35140495833333335,-2.3045627499999997,-0.1340412865531645,-0.03630284844148206,0.08656833089891874
1403637158338319104,49.759149,342.79607254023716,7.493915041666666,-0.07354987499999999,-2.263701708333333,-0.20734511513692636,0.05375614096142535,0.14870205226991687
1403637158388318976,60.836315,332.18816129060565,10.329671333333332,0.6701210833333332,-4.225031708333333,-0.20315632493213995,0.04328416544945937,0.26878070480712674
1403637158438319104,39.319754,290.2625494735668,6.938204874999999,-0.43312704166666666,-2.4189736666666666,-0.29251718263424964,0.09354964790689606,0.21013764194011728
1403637158488318976,50.035477,290.82614125875125,7.420365166666667,1.0950759166666666,-3.4078108749999996,-0.3029891581462156,0.09005898940290741,0.2981022362406315
1403637158538319104,49.185991,261.8356384883366,9.569655958333334,-0.6292600416666666,-3.3751220416666667,-0.3553490357060455,-0.016057029118347832,0.4384267081009756
1403637158588318976,50.922155,266.0062842686491,8.703401874999999,-0.5066769166666666,-3.4813607499999994,-0.29740410453983374,-0.02722713633111154,0.39025562074593206
1403637158638319104,49.138308,242.3052326939774,9.283628666666665,-0.4004382083333333,-2.9338227916666666,-0.45029494701453704,0.12985249634837812,0.3497639820996636
1403637158688318976,60.900211,255.8576767581855,9.349006333333334,0.220649625,-4.535575625,-0.4300491276914028,0.08098327729253688,0.3518583772020568
1403637158738319104,39.596081,239.01351453993058,7.60015375,-0.9561483749999999,-2.1983240416666665,-0.47682395164485086,-0.05166174585903216,0.24853488548399255
1403637158788318976,49.908638,241.39558651533238,10.182571583333333,0.6864655000000001,-2.974683833333333,-0.3755948550291797,-0.04468042885105484,0.2017600615305445
1403637158838319104,50.225973,239.3031671919602,8.77695175,-1.2340034583333332,-3.1054391666666663,-0.33300882128051806,0.009773843811168246,0.14381513036433274
1403637158888318976,60.529709,247.92778441099549,10.550320958333334,-0.5148491249999999,-3.505877375,-0.249931148885588,0.006283185307179587,0.057246799465414
1403637158938319104,38.544417,236.91190762735266,9.103840083333333,0.24516625,-3.0972669583333334,-0.24923301718479024,-0.11868238913561441,-0.005585053606381855
1403637158988318976,61.241626,245.34279542746347,9.030290208333332,-0.32688833333333334,-3.7673880416666665,-0.24853488548399255,-0.039095375244672985,-0.00767944870877505
1403637159038319104,50.740958,253.7465547740302,12.536167583333333,-1.0051816249999999,-4.445681333333333,-0.13892820845874865,0.046076692252650306,-0.05305800926062762
1403637159088318976,39.389133,263.1539330815226,9.9047165,-0.35957716666666667,-4.069759749999999,-0.09005898940290741,-0.02583087292951608,0.15498523757709648
1403637159138319104,49.818516,276.46852550776947,6.7502440833333335,0.661948875,-2.754034208333333,0.013962634015954637,0.02722713633111154,0.24504422698000386
1403637159188318976,50.025463,289.5890633568746,7.518431666666666,-0.8008764166666666,-3.7919046666666665,0.050963614158234416,-0.016057029118347832,0.2750638901143063
1403637159238319104,50.00782,299.4629078180887,10.558493166666667,0.367749375,-2.9338227916666666,0.048869219055841226,0.030019663134302467,0.19128808601857852
1403637159288318976,48.812151,317.3613859543139,6.913688249999999,-0.5883989999999999,-2.1247741666666666,0.028623399732707,-0.019547687622336492,0.17174039839624203
1403637159338319104,50.85659,311.64046431552623,8.237585999999999,-0.2778550833333333,-2.9583394166666666,0.08377580409572781,0.07051130178057091,0.22200588085367873
1403637159388318976,65.577746,317.6524538375158,8.237585999999999,-0.4985047083333333,-2.0675687083333334,0.05864306286700947,0.07539822368615504,0.04537856055185257
1403637159438319104,33.756733,298.63266967312944,10.386876791666666,-0.5883989999999999,-2.754034208333333,0.017453292519943295,-0.008377580409572781,0.046076692252650306
1403637159488318976,61.225176,307.4551832594535,7.910697666666666,0.13892754166666665,-2.8602729166666667,0.0041887902047863905,0.047472955654245766,-0.10402162341886204
1403637159538319104,39.475917,216.64116096978194,9.210078791666666,-0.29419949999999995,-3.538566208333333,-0.04258603374866164,-0.10053096491487339,-0.13264502315156904
1403637159588318976,59.883356,233.7185679048072,8.825985,-0.8172208333333333,-2.9174783749999995,-0.01884955592153876,-0.031415926535897934,-0.1514945790731078
1403637159638319104,40.004731,227.65290875042444,10.542148749999999,0.4494714583333333,-2.941995,0.031415926535897934,0.039095375244672985,-0.11938052083641214
1403637159688318976,50.020933,227.04726741172357,10.223432625,0.0,-5.181180083333333,-0.01117010721276371,-0.04677482395344803,-0.027925268031909273
1403637159738319104,49.867391,243.6603707163825,9.422556208333333,-1.0705592916666666,-4.355787041666666,-0.013264502315156905,0.06771877497737998,0.017453292519943295
1403637159788318976,50.173998,225.24813616359145,10.533976541666666,-0.7927042083333332,-4.004382083333333,-0.028623399732707,0.15219271077390556,-0.05515240436302082
1403637159838319104,49.953699,234.23291288952353,9.520622708333333,0.367749375,-3.6202882916666663,-0.09354964790689606,-0.004886921905584123,0.005585053606381855
1403637159888318976,50.086499,202.92989343613544,7.853492208333332,-0.2778550833333333,-3.530394,-0.1996656664281513,-0.0747000919853573,0.14730578886832138
1403637159938319104,49.9475,200.56950325088573,7.534776083333333,0.6456044583333332,-3.1299557916666663,-0.2548180707911721,0.027925268031909273,0.11868238913561441
1403637159988318976,50.225496,179.90941874931445,9.724927916666667,-0.48216029166666663,-3.2852277500000002,-0.325329372571743,0.1689478715930511,0.25202554398798116
1403637160038319104,48.900843,163.34361024017588,8.270274833333334,-0.8989429166666666,-2.631451083333333,-0.33161255787892263,0.2436479635784084,0.3385938748868999
1403637160088318976,61.534643,184.0168062060247,8.752435125,-0.4494714583333333,-4.380303666666666,-0.35395277230445005,0.14800392056911915,0.3239331091701475
1403637160138319104,39.210796,183.376041042216,10.623870833333331,0.35140495833333335,-4.617297708333333,-0.4551818689201211,0.13473941825396224,0.37908551353316833
1403637160188318976,50.157786,192.9744337643129,8.38468575,-0.44129925,-3.538566208333333,-0.4991641660703782,0.05864306286700947,0.249931148885588
1403637160238319104,53.56574,193.94378057725174,7.984247541666667,-0.35957716666666667,-2.69682875,-0.5033529562751646,0.1361356816555577,0.3141592653589793
1403637160288318976,49.277306,188.78914989389497,8.834157208333334,0.08172208333333333,-3.4977051666666665,-0.5417501998190398,0.09843656981248018,0.2436479635784084
1403637160338319104,57.876348,170.5097393902902,9.144701125,-0.5148491249999999,-4.0125542916666666,-0.6136577650012062,0.046076692252650306,0.346273323595675
1403637160388318976,49.528838,168.11567431929822,9.896544291666666,-0.8253930416666666,-3.178989041666666,-0.6164502918043971,-0.0307177948351002,0.3127630019573839
1403637160438319104,40.51423,161.3147768435755,9.161045541666667,-0.392266,-2.7131731666666665,-0.7113962031128886,0.04677482395344803,0.1850049007113989
1403637160488318976,50.247431,127.12224329087137,10.002782999999999,-0.008172208333333333,-4.829775124999999,-0.671602696167418,-0.07888888219014369,0.17243853009703977
1403637160538319104,49.65806,131.85377223200425,9.054806833333332,-0.7436709583333333,-3.6529771249999996,-0.7086036763096978,0.009075712110370514,0.1689478715930511
1403637160588318976,50.052405,141.99997009645753,9.765788958333333,1.7570247916666666,-3.195333458333333,-0.6548475353482724,0.029321531433504733,0.2869321290278678
1403637160638319104,49.918174,121.68591010036945,8.180380541666665,-2.0348798749999997,-2.941995,-0.5989969992844539,-0.15498523757709648,0.278554548618295
1403637160688318976,60.662747,154.7585129920166,7.927042083333333,-0.4494714583333333,-1.299381125,-0.4963716392671873,-0.0747000919853573,0.2366666465704311
1403637160738319104,38.527489,272.9896276152433,9.675894666666666,0.14709974999999997,-3.979865458333333,-0.41678462537624583,-0.027925268031909273,0.14870205226991687
1403637160788318976,50.508022,256.72823318335617,9.406211791666665,-0.7681875833333334,-4.56009225,-0.3469714552964727,-0.004886921905584123,0.05515240436302082
1403637160838319104,49.574375,346.1443398841316,10.566665374999998,0.2860272916666666,-4.919669416666666,-0.2548180707911721,-0.05235987755982988,0.2234021442552742
1403637160888318976,50.633907,475.3704861046564,9.471589458333332,-0.367749375,-3.3506054166666663,-0.23527038316883564,-0.03420845333908886,0.114493598930828
1403637160938319104,49.938441,610.6018478177502,10.100849499999999,-0.43312704166666666,-4.437509125,-0.06632251157578452,-0.0153588974175501,0.23736477827122882
1403637160988318976,49.851179,600.1153916940746,10.435910041666666,-0.024516625,-3.309744375,-0.07609635538695278,-0.06771877497737998,0.2234021442552742
1403637161038319104,48.943519,846.521189590937,11.645396875,-0.8172208333333333,-3.6121160833333334,-0.048869219055841226,-0.11868238913561441,0.2059488517353309
1403637161088318976,50.947428,607.5012170065392,11.097858916666665,0.7518431666666666,-4.355787041666666,0.0879645943005142,0.09354964790689606,0.3574434308084387
1403637161138319104,50.024271,563.7097428009338,8.155863916666666,0.3023717083333333,-2.3617682083333333,0.033510321638291124,0.1361356816555577,0.38816122564353883
1403637161188318976,65.730095,505.3579587336689,10.738281749999999,-0.661948875,-5.360968666666666,0.11938052083641214,0.24783675378319478,0.4468042885105484
1403637161238319104,34.193277,518.8650687546713,9.373522958333332,-0.29419949999999995,-4.535575625,0.17383479349863523,0.1445132620651305,0.4935791124639964
1403637161288318976,61.33771,497.6705650571279,8.262102624999999,0.008172208333333333,-4.028898708333333,0.09983283321407566,0.1361356816555577,0.3232349774693498
1403637161338319104,52.983999,564.9693981644092,9.259112041666667,-0.11441091666666667,-3.1463002083333333,0.02583087292951608,0.13753194505715316,0.05445427266222308
1403637161388318976,47.348499,669.7598601857367,10.460426666666667,0.008172208333333333,-3.505877375,-0.03769911184307752,-0.017453292519943295,-0.023038346126325153
1403637161438319104,38.326979,505.8742761912627,11.03248125,0.20430520833333332,-2.6477955,-0.13473941825396224,-0.0153588974175501,0.003490658503988659
1403637161488318976,49.754381,504.40518567083495,7.927042083333333,0.4739880833333333,-2.7213453750000003,-0.18291050560900574,-0.2199114857512855,0.031415926535897934
1403637161538319104,50.158978,433.86398569682206,7.019926958333333,-0.18796079166666665,-3.0482337083333335,-0.22270401255447644,0.1117010721276371,0.050963614158234416
1403637161588318976,49.93844,471.336798535937,9.185562166666665,1.201314625,-4.797086291666667,-0.23876104167282428,0.05375614096142535,0.1424188669627373
1403637161638319104,50.102949,396.57772103045573,8.311135875,-0.5557101666666666,-3.751043625,-0.2792526803190927,0.09494591130849153,0.07749261878854824
1403637161688318976,50.765515,392.89007701242315,9.937405333333334,-0.20430520833333332,-3.9962098749999995,-0.19477874452256716,0.2869321290278678,0.06841690667817772
1403637161738319104,49.877166,364.39661195428715,8.294791458333332,-0.32688833333333334,-3.178989041666666,-0.24015730507441974,0.2953097094374406,-0.014660765716752367
1403637161788318976,49.934864,320.15517035071446,9.765788958333333,-0.42495483333333334,-3.4078108749999996,-0.20804324683772407,0.3895574890451343,0.0027925268031909274
1403637161838319104,49.750805,312.913579867833,9.046634625,0.35957716666666667,-2.6641399166666666,-0.23527038316883564,0.46774823953448036,-0.013264502315156905
1403637161888318976,50.093651,309.8387098454846,7.861664416666666,-0.23699404166666665,-2.6641399166666666,-0.1996656664281513,0.38257617203715705,0.05235987755982988
1403637161938319104,66.405773,295.7885770047281,8.834157208333334,-0.13892754166666665,-3.693838166666666,-0.15079644737231007,0.5040510879759623,0.0767944870877505
1403637161988318976,33.271075,339.9563661499545,7.763597916666666,0.220649625,-3.358777625,-0.13264502315156904,0.38117990863556156,0.008377580409572781
1403637162038319104,49.703836,374.18437219091993,7.951558708333333,-0.220649625,-3.0400614999999998,-0.10681415022205297,0.2282890661608583,0.07958701389094143
1403637162088318976,49.718618,482.9326825598331,9.022118,-0.4739880833333333,-3.178989041666666,-0.09634217471008698,0.1731366617978375,0.13334315485236678
1403637162138319104,61.312199,581.717122449981,7.0689602083333325,0.3759215833333333,-2.557901208333333,-0.006981317007977318,0.07330382858376185,0.18919369091618532
1403637162188318976,50.301313,531.6871615495745,7.583809333333333,-0.8008764166666666,-2.7948952499999997,0.03420845333908886,-0.18779742751458986,0.3399901382884954
1403637162238319104,39.091587,515.8220250955759,8.294791458333332,-0.6537766666666667,-3.4241552916666667,0.05235987755982988,-0.09285151620609833,0.35046211380046133
1403637162288318976,60.669661,532.6801637118787,7.183371125,0.5965712083333333,-3.5957716666666664,0.05864306286700947,-0.10262536001726656,0.2527236756887789
1403637162338319104,49.977064,538.0577670911991,7.665531416666666,-0.196133,-3.0073726666666665,0.02583087292951608,-0.10192722831646883,0.22619467105846514
1403637162388318976,39.1078,475.1575177564613,8.711574083333332,-0.18796079166666665,-3.4813607499999994,0.11239920382843484,-0.17732545200262387,0.2848377339254746
1403637162438319104,50.105333,336.40951074892155,8.28661925,0.43312704166666666,-2.40262925,0.06492624817418906,-0.3714060648243933,0.19338248112097173
1403637162488318976,71.576834,317.90364798166746,9.177389958333332,0.73549875,-4.355787041666666,-0.008377580409572781,-0.33300882128051806,0.009075712110370514
1403637162538319104,47.909736,358.2492325632604,10.909898125,-0.032688833333333334,-2.5333845833333335,-0.03420845333908886,-0.19338248112097173,-0.06702064327658225
1403637162588318976,30.480385,410.7630270924685,11.277647499999999,-0.3105439166666667,-4.46202575,-0.06073745796940267,-0.13962634015954636,-0.10332349171806432
1403637162638319104,60.668469,310.7355560504128,7.093476833333334,-0.5311935416666667,-1.6998193333333333,-0.021642082724729686,0.325329372571743,-0.02024581932313422
1403637162688318976,39.293289,271.7984950156112,9.398039583333333,0.3840937916666667,-2.549729,-0.05166174585903216,0.4872959271568168,0.08377580409572781
1403637162738319104,49.635172,252.6327789359137,8.629852,0.4739880833333333,-3.489532958333333,-0.1054178868204575,0.5836381018669038,0.22968532956245377
1403637162788318976,49.228191,357.15511609978256,10.207088208333332,-0.4985047083333333,-3.726527,-0.2457423586808016,0.228987197861656,0.18081611050661253
1403637162838319104,50.820589,365.20272956972866,6.505077833333333,0.5148491249999999,-2.3127349583333334,-0.335801348083709,0.1780235837034216,0.10262536001726656
1403637162888318976,49.093485,370.21036756327555,8.18855275,0.13075533333333333,-2.6886565416666666,-0.48659779545601906,0.15987215948268058,0.10611601852125524
1403637162938319104,61.723232,365.03392892402627,9.790305583333332,-0.44129925,-3.530394,-0.46914450293607574,0.10471975511965977,0.11868238913561441
1403637162988318976,55.647612,346.08090060665654,8.915879291666666,0.3840937916666667,-4.936013833333333,-0.6024876577884426,-0.023038346126325153,0.06771877497737998
1403637163038319104,33.61392,344.2304750111231,7.518431666666666,-0.318716125,-3.906315583333333,-0.6639232474586428,0.04537856055185257,0.114493598930828
1403637163088318976,50.098419,336.5273800369217,8.834157208333334,0.23699404166666665,-2.5252123749999997,-0.710698071412091,0.15498523757709648,0.09773843811168245
1403637163138319104,49.750567,345.1032939652355,8.711574083333332,-0.7273265416666667,-3.3260887916666664,-0.7707373976806958,0.12566370614359174,0.17523105690023066
1403637163188318976,50.101042,343.2741079896269,11.212269833333332,0.40861041666666664,-3.0400614999999998,-0.7777187146886733,0.06422811647339133,0.20455258833373544
1403637163238319104,50.082683,341.2205658534537,10.787315,-0.2860272916666666,-3.4650163333333333,-0.7176793884200682,0.04817108735504349,0.20106192982974677
1403637163288318976,50.257445,347.7765787229609,9.046634625,0.04086104166666667,-1.9531577916666665,-0.7086036763096978,0.05235987755982988,0.21711895894809458
1403637163338319104,50.634861,349.8905616286779,10.076332875,-0.5066769166666666,-2.672312125,-0.6611307206554521,0.08866272600131193,0.325329372571743
1403637163388318976,49.056768,344.78046304709187,7.518431666666666,-1.5363751666666667,-3.702010375,-0.635299847725936,0.00767944870877505,0.37908551353316833
1403637163438319104,50.520659,351.96388119048794,7.632842583333333,0.10623870833333333,-3.0318892916666664,-0.5054473513775578,-0.032114058236695664,0.4237659423842232
1403637163488318976,50.337553,303.668710668374,10.958931374999999,-0.2778550833333333,-4.225031708333333,-0.49218284906240095,-0.16545721308906244,0.3483677186980682
1403637163538319104,49.738884,272.36997062158497,8.131347291666666,-0.17161637500000002,-2.3944570416666666,-0.3860668305411457,-0.24644049038159932,0.39444441095071847
1403637163588318976,49.268484,255.63345151257397,8.695229666666666,-0.4004382083333333,-3.4323274999999995,-0.3818780403363593,-0.2150245638457014,0.24923301718479024
1403637163638319104,54.635048,259.9041109793396,10.305154708333331,-0.367749375,-2.8847895416666667,-0.24225170017681294,-0.2569124658935653,0.325329372571743
1403637163688318976,49.315452,268.4531550926177,9.782133375,-0.057205458333333334,-2.476179125,-0.19268434942017396,-0.2897246558310587,0.31974431896536115
1403637163738319104,64.671993,308.2992097432851,12.021318458333333,-0.44129925,-5.066769166666667,-0.1647590813882647,-0.23527038316883564,0.2583087292951608
1403637163788318976,45.496703,372.23789583962065,8.409202375,-0.032688833333333334,-3.4078108749999996,-0.08237954069413235,-0.0879645943005142,0.1884955592153876
1403637163838319104,49.824953,417.9850581659112,12.372723416666666,-0.3759215833333333,-4.437509125,-0.032114058236695664,0.039095375244672985,0.335801348083709
1403637163888318976,39.910316,426.08476775179014,10.403221208333333,0.26151066666666667,-4.192342875,-0.033510321638291124,0.0006981317007977319,0.18570303241219666
1403637163938319104,50.114155,424.7507573536588,10.386876791666666,-0.08989429166666667,-4.225031708333333,0.005585053606381855,-0.04468042885105484,0.2960078411382383
1403637163988318976,49.933195,385.2208826173492,9.210078791666666,-0.93163175,-2.631451083333333,0.0013962634015954637,0.06702064327658225,0.09634217471008698
1403637164038319104,49.563646,374.4937910799896,11.481952708333333,-0.3023717083333333,-2.5333845833333335,0.0020943951023931952,0.1445132620651305,0.08237954069413235
1403637164088318976,50.37117,350.7565990116703,8.97308475,-0.21247741666666667,-2.729517583333333,0.06771877497737998,0.15498523757709648,0.06702064327658225
1403637164138319104,49.591065,361.1281433990787,10.321499124999999,0.3759215833333333,-4.151481833333333,0.023736477827122883,0.17941984710501704,-0.011868238913561441
1403637164188318976,50.407648,362.41649968680855,9.635033625,-0.9643205833333333,-3.1299557916666663,-0.04328416544945937,-0.003490658503988659,-0.07120943348136866
1403637164238319104,60.386419,388.70221833163396,10.533976541666666,-0.22882183333333334,-3.92266,0.013264502315156905,0.08168140899333462,-0.1466076571675237
1403637164288318976,39.035082,326.1023400713739,8.662540833333333,-0.7600153749999999,-3.138128,-0.07330382858376185,-0.05585053606381855,-0.27715828521669955
1403637164338319104,50.021172,381.78959825788115,10.051816249999998,-0.2533384583333333,-2.7458620000000002,0.03420845333908886,0.03839724354387525,-0.12147491593880534
1403637164388318976,60.101986,351.78577332361897,6.7502440833333335,-0.7191543333333333,-1.1686257916666667,0.006981317007977318,-0.048869219055841226,-0.08866272600131193
1403637164438319104,50.50683,380.87376971544387,7.444881791666666,-0.26151066666666667,-4.7807418749999995,0.09215338450530061,-0.19128808601857852,0.114493598930828
1403637164488318976,54.781675,462.57125457111283,8.646196416666667,-0.8825985,-3.8245934999999998,0.15498523757709648,-0.03560471674068433,0.24923301718479024
1403637164538319104,33.89287,455.8016671079828,9.496106083333332,-0.08172208333333333,-0.7273265416666667,0.1494001839707146,0.008377580409572781,0.20804324683772407
1403637164588318976,61.568499,461.66928582361805,9.847511041666666,-0.8825985,-3.587599458333333,0.12426744274199628,-0.07400196028455958,0.239459173373622
1403637164638319104,39.543628,415.85405981501026,8.38468575,-1.0296982499999998,-3.7919046666666665,0.09704030641088471,0.032812189937493394,0.04956735075663895
1403637164688318976,60.337544,349.5282187081678,8.97308475,0.016344416666666667,-3.0727503333333335,-0.00767944870877505,-0.027925268031909273,-0.13683381335635544
1403637164738319104,38.980722,308.77201396986845,8.588990958333333,-0.63743225,-3.178989041666666,-0.114493598930828,0.15707963267948966,-0.24923301718479024
1403637164788318976,54.247618,292.85711687880746,7.420365166666667,-0.7028099166666667,-2.582417833333333,-0.11100294042683936,0.19687313962496036,-0.19477874452256716
1403637164838319104,59.729099,282.137491441263,9.324489708333333,0.8253930416666666,-3.1463002083333333,-0.21642082724729686,0.249931148885588,-0.12566370614359174
1403637164888318976,36.386252,257.72229522691265,10.288810291666666,-1.5527195833333332,-3.023717083333333,-0.23876104167282428,0.03700098014227979,-0.03839724354387525
1403637164938319104,50.139189,271.94251058446184,8.997601374999999,-0.07354987499999999,-3.587599458333333,-0.2324778563656447,0.0027925268031909274,0.003490658503988659
1403637164988318976,49.746751,265.24035703472657,9.1201845,-0.34323275000000003,-2.20649625,-0.2750638901143063,0.029321531433504733,0.08587019919812101
1403637165038319104,50.182104,260.30802850654476,10.411393416666668,-0.416782625,-3.800076875,-0.3008947630438224,0.0767944870877505,0.13962634015954636
1403637165088318976,49.968005,235.2513292523129,9.16921775,-0.15527195833333335,-2.974683833333333,-0.35814156250923646,0.15847589608108512,0.25621433419276757
1403637165138319104,60.519457,232.4529818341295,7.959730916666666,-1.3320699583333333,-3.742871416666666,-0.4558800006209189,0.2611012560983517,0.14172073526193954
1403637165188318976,39.12115,256.3162427404284,9.635033625,-1.2503478749999999,-2.7458620000000002,-0.5012585611727715,0.029321531433504733,0.13473941825396224
1403637165238319104,64.566851,255.9758044357765,9.7085835,0.08989429166666667,-3.015544875,-0.5592034923389831,0.0635299847725936,0.060039326268604934
1403637165288318976,35.526276,203.4782801580461,9.912888708333332,-0.4739880833333333,-3.9390044166666667,-0.46705010783368256,-0.10262536001726656,0.18570303241219666
1403637165338319104,60.828686,165.4707672908444,10.632043041666666,0.057205458333333334,-3.2770555416666665,-0.481710873550435,-0.30019663134302466,0.1445132620651305
1403637165388318976,38.964748,178.53711356484655,10.149882749999998,-1.0705592916666666,-3.4486719166666666,-0.4237659423842232,-0.2303834612632515,0.16824973989225336
1403637165438319104,50.42243,177.58819694184032,11.310336333333332,-1.6099250416666664,-3.8409379166666664,-0.31904618726456346,-0.22060961745208327,0.1996656664281513
1403637165488318976,49.671888,189.9962791642423,11.244958666666667,0.4494714583333333,-4.298581583333333,-0.268082573106329,-0.12985249634837812,0.15777776438028737
1403637165538319104,49.789191,192.16941373818256,10.591182,-1.2421756666666668,-4.4129925,-0.2457423586808016,-0.1270599695451872,0.17243853009703977
1403637165588318976,60.721635,173.14997185401575,9.242767624999999,-0.23699404166666665,-1.3402421666666664,-0.3204424506661589,-0.041189770347066175,-0.09704030641088471
1403637165638319104,39.888621,167.33027885111198,8.981256958333333,-0.8499096666666667,-3.6039438749999997,-0.2743657584135086,-0.05445427266222308,-0.1165879940332212
1403637165688318976,63.405752,170.31722903588826,8.433719,-0.3350605416666666,-2.20649625,-0.2408554367752175,0.04677482395344803,-0.1710422666954443
1403637165738319104,36.442518,164.36561587385344,9.259112041666667,-0.6456044583333332,-2.7867230416666664,-0.22479840765686968,-0.004886921905584123,-0.20245819323134223
1403637165788318976,50.377131,164.46957557621045,9.847511041666666,-0.20430520833333332,-4.086104166666667,-0.19896753472735357,0.06562437987498679,-0.17732545200262387
1403637165838319104,50.722122,170.99130832112417,8.842329416666665,-0.8989429166666666,-2.7948952499999997,-0.14730578886832138,0.06841690667817772,-0.19477874452256716
1403637165888318976,49.287081,195.57648679650472,7.224232166666667,0.2778550833333333,-2.7458620000000002,-0.00767944870877505,0.06073745796940267,-0.17872171540421936
1403637165938319104,61.173916,192.82711489732927,5.450862958333333,-0.83356525,-2.0348798749999997,0.003490658503988659,-0.039095375244672985,-0.20036379812894903
1403637165988318976,38.167953,210.10057351862935,7.1588544999999995,-0.7600153749999999,-2.1247741666666666,0.143116998663535,-0.02652900463031381,-0.19198621771937624
1403637166038319104,50.460339,207.8250131362586,5.802267916666667,0.43312704166666666,-1.1604535833333331,0.10471975511965977,-0.005585053606381855,-0.21642082724729686
1403637166088318976,49.726724,220.12376403467823,6.235394958333333,-0.024516625,-1.3157255416666664,0.1117010721276371,0.009773843811168246,-0.08237954069413235
1403637166138319104,50.263882,233.40695589683295,3.955348833333333,0.032688833333333334,-0.9398039583333333,0.15498523757709648,0.09843656981248018,-0.029321531433504733
1403637166188318976,49.920559,230.53260447482808,6.464216791666666,-0.06537766666666667,-2.7622064166666664,0.13892820845874865,0.08307767239493008,-0.014660765716752367
1403637166238319104,50.060749,238.31641366935884,7.9188698749999995,-0.465815875,-3.5222217916666665,0.1626646862858715,0.23108159296404923,0.18360863730980345
1403637166288318976,49.943685,228.62725415955614,12.045835083333332,0.5883989999999999,-3.693838166666666,0.24713862208239704,0.439822971502571,0.17732545200262387
1403637166338319104,49.819231,162.5996079744472,10.574837583333332,-0.784532,-3.718354791666666,0.2017600615305445,0.6778858814745976,0.2192133540504878
1403637166388318976,49.986363,160.6208859883973,8.278447041666666,-0.10623870833333333,-3.8164212916666664,0.2743657584135086,0.7609635538695276,0.17174039839624203
1403637166438319104,50.983667,191.7852754816988,11.065170083333333,0.220649625,-4.494714583333333,0.2366666465704311,0.5012585611727715,0.1075122819228507
1403637166488318976,49.894333,314.9821975881541,7.1588544999999995,-0.08172208333333333,-3.2035056666666666,0.23876104167282428,0.09354964790689606,0.21851522234969004
1403637166538319104,61.215878,338.8861425880642,6.848310583333333,0.23699404166666665,-3.0645781249999997,0.13124875974997358,0.021642082724729686,-0.02024581932313422
1403637166588318976,38.072109,232.56630308462175,10.607526416666667,-0.784532,-3.4241552916666667,0.13543754995475996,-0.2324778563656447,-0.06422811647339133
1403637166638319104,49.880981,177.2911675141454,7.984247541666667,-0.18796079166666665,-3.023717083333333,0.1054178868204575,-0.5173155902911193,0.06841690667817772
1403637166688318976,50.369025,180.2728767257713,8.5317855,0.06537766666666667,-1.765197,0.033510321638291124,-0.48380526865282814,-0.20245819323134223
1403637166738319104,49.920559,196.8344296812418,10.713765125,0.23699404166666665,-3.2361945,0.03630284844148206,-0.3232349774693498,-0.16615534478986016
1403637166788318976,48.906087,205.42092367936385,7.976075333333333,0.3105439166666667,-2.10842975,0.005585053606381855,-0.2199114857512855,-0.19408061282176942
1403637166838319104,50.957442,172.7514169071294,10.043644041666665,-0.5066769166666666,-3.9962098749999995,-0.0439822971502571,-0.057246799465414,-0.325329372571743
1403637166888318976,50.104379,179.68612162259856,10.002782999999999,-0.8580818749999999,-2.7458620000000002,-0.02583087292951608,0.048869219055841226,-0.2631956512007449
1403637166938319104,59.954882,162.44529179084302,9.626861416666666,0.465815875,-3.530394,-0.124965574442794,0.23596851486963336,-0.34557519189487723
1403637166988318976,39.657354,171.2168833892409,9.291800875,-0.392266,-4.135137416666667,-0.08028514559173915,0.16824973989225336,-0.307177948351002
1403637167038319104,50.380707,175.75418923189136,8.597163166666666,0.318716125,-3.906315583333333,-0.02583087292951608,0.23177972466484695,-0.2743657584135086
1403637167088318976,54.723263,175.07440062856415,9.700411291666665,-0.5475379583333333,-4.3721314583333335,-0.11519173063162574,0.30019663134302466,-0.27646015351590175
1403637167138319104,48.081637,187.11925346091687,9.324489708333333,-0.392266,-3.4486719166666666,-0.033510321638291124,0.33300882128051806,-0.18151424220741028
1403637167188318976,46.808242,187.50403799429728,10.991620208333332,-0.032688833333333334,-3.898143375,-0.06073745796940267,0.30927234345339516,-0.17872171540421936
1403637167238319104,50.344229,254.44014015127522,11.473780499999998,-0.392266,-4.543747833333333,-0.04328416544945937,0.07330382858376185,-0.02234021442552742
1403637167288318976,50.472975,238.53959138404267,9.782133375,0.7028099166666667,-2.9338227916666666,-0.011868238913561441,0.032812189937493394,0.12775810124598494
1403637167338319104,49.612284,223.27814319246602,9.389867375,0.15527195833333335,-3.4731885416666666,-0.013962634015954637,-0.1096066770252439,0.22968532956245377
1403637167388318976,49.415111,162.56248846149734,7.453054,-0.3105439166666667,-1.7570247916666666,0.07888888219014369,-0.2436479635784084,0.3134611336581816
1403637167438319104,50.232411,136.8559572338409,9.929233125,0.5965712083333333,-3.759215833333333,0.23596851486963336,-0.21223203704251048,0.7176793884200682
