stamp,img_delta,blur,lin_acc.x,lin_acc.y,lin_acc.z,ang_vel.x,ang_vel.y,ang_vel.z
1403638127395097088,39.582968,253.06768727293482,8.997601374999999,0.13892754166666665,-3.906315583333333,0.0,0.003490658503988659,0.10471975511965977
1403638127445096960,50.110101,251.99769669418754,8.964912541666667,0.08989429166666667,-4.135137416666667,-0.010471975511965976,0.029321531433504733,0.05235987755982988
1403638127495097088,59.536934,251.99392613758778,9.005773583333333,0.024516625,-4.086104166666667,0.016057029118347832,0.016057029118347832,0.07958701389094143
1403638127545096960,50.680399,252.86324707814103,9.030290208333332,-0.2860272916666666,-3.8654545416666664,0.012566370614359173,0.01815142422074103,0.06073745796940267
1403638127595097088,39.482117,253.2922318762749,9.030290208333332,-0.2860272916666666,-3.8654545416666664,0.012566370614359173,0.01815142422074103,0.06073745796940267
1403638127645096960,50.15707,253.3067056252464,8.915879291666666,-0.0980665,-3.9390044166666667,0.014660765716752367,0.019547687622336492,0.09005898940290741
1403638127695097088,50.144672,254.21726903566667,8.87501825,-0.2860272916666666,-3.881798958333333,-0.005585053606381855,0.028623399732707,0.05166174585903216
1403638127745096960,49.81184,254.04839301826206,8.842329416666665,-0.06537766666666667,-3.7673880416666665,0.004886921905584123,0.0006981317007977319,0.0942477796076938
1403638127795097088,50.381661,253.90047303611493,8.793296166666666,-0.032688833333333334,-4.037070916666667,-0.003490658503988659,0.009773843811168246,0.060039326268604934
1403638127845096960,49.813509,253.8624253522326,8.744262916666667,-0.18796079166666665,-3.8899711666666663,0.003490658503988659,0.024434609527920613,0.09285151620609833
1403638127895097088,49.93391,254.17007683951942,8.932223708333334,-0.07354987499999999,-3.9144877916666663,-0.005585053606381855,0.032114058236695664,0.07958701389094143
1403638127945096960,50.045014,253.1094162073342,8.956740333333332,-0.06537766666666667,-4.004382083333333,0.009075712110370514,0.031415926535897934,0.08098327729253688
1403638127995097088,50.084114,253.6469115933944,8.989429166666666,-0.13075533333333333,-3.92266,0.010471975511965976,0.016755160819145562,0.0635299847725936
1403638128045096960,49.850464,252.69618434715858,9.087495666666666,-0.122583125,-3.979865458333333,0.0,0.02722713633111154,0.06841690667817772
1403638128095097088,59.676647,254.11712921346742,8.964912541666667,-0.08989429166666667,-3.8654545416666664,0.0,0.0027925268031909274,0.08866272600131193
1403638128145096960,50.668716,253.5195924070286,8.711574083333332,-0.07354987499999999,-4.020726499999999,-0.0006981317007977319,0.02234021442552742,0.09494591130849153
1403638128195097088,39.387942,254.3211680416447,8.711574083333332,-0.07354987499999999,-4.020726499999999,-0.0006981317007977319,0.02234021442552742,0.09494591130849153
1403638128245096960,60.137987,253.20222109512417,8.981256958333333,0.032688833333333334,-3.9390044166666667,0.008377580409572781,0.0153588974175501,0.07819075048934597
1403638128295097088,49.898147,253.0160438078246,8.940395916666665,-0.08989429166666667,-4.020726499999999,-0.0020943951023931952,0.016755160819145562,0.0767944870877505
1403638128345096960,40.175915,253.5935633436719,8.940395916666665,-0.08989429166666667,-4.020726499999999,-0.0020943951023931952,0.016755160819145562,0.0767944870877505
1403638128395097088,50.29583,253.38577235471925,9.046634625,-0.17978858333333333,-3.8245934999999998,-0.0041887902047863905,0.02024581932313422,0.06911503837897544
1403638128445096960,49.820661,254.221560706791,8.825985,-0.07354987499999999,-3.9635210416666666,0.006283185307179587,0.016755160819145562,0.0942477796076938
1403638128495097088,49.975396,253.65341792257675,8.850501625,-0.08172208333333333,-4.004382083333333,-0.009773843811168246,0.01884955592153876,0.08028514559173915
1403638128545096960,50.130367,254.0690728192118,8.834157208333334,0.057205458333333334,-3.930832208333333,-0.00767944870877505,0.023038346126325153,0.08307767239493008
1403638128595097088,49.959421,253.8027476686281,8.858673833333333,-0.15527195833333335,-3.898143375,0.0020943951023931952,0.023038346126325153,0.0767944870877505
1403638128645096960,49.896002,253.0598980925566,8.866846041666665,0.008172208333333333,-3.97169325,-0.0020943951023931952,0.027925268031909273,0.07400196028455958
1403638128695097088,65.345526,250.9967401025113,9.177389958333332,0.0,-4.028898708333333,-0.0027925268031909274,0.003490658503988659,0.10332349171806432
1403638128745096960,44.117927,248.79760525621072,8.981256958333333,-0.2860272916666666,-3.92266,-0.01815142422074103,0.004886921905584123,0.07400196028455958
1403638128795097088,40.663004,249.43307854389872,8.981256958333333,-0.2860272916666666,-3.92266,-0.01815142422074103,0.004886921905584123,0.07400196028455958
1403638128845096960,50.171614,247.7298936488805,8.915879291666666,-0.4739880833333333,-3.9390044166666667,-0.030019663134302467,-0.0020943951023931952,0.06841690667817772
1403638128895097088,49.628973,246.1131961570191,8.858673833333333,0.32688833333333334,-4.069759749999999,0.01117010721276371,0.014660765716752367,0.0991347015132779
1403638128945096960,50.213575,248.52673341034162,8.981256958333333,-0.23699404166666665,-3.7837324583333327,-0.0041887902047863905,0.01884955592153876,0.023038346126325153
1403638128995097088,50.141811,250.31315681426423,8.858673833333333,-0.024516625,-4.037070916666667,0.01117010721276371,0.016057029118347832,0.08726646259971647
1403638129045096960,49.827338,243.20966666453447,9.790305583333332,-0.196133,-4.077931958333333,0.017453292519943295,0.016057029118347832,0.08866272600131193
1403638129095097088,49.727916,241.48450729714725,9.259112041666667,-0.4004382083333333,-4.045243125,-0.04328416544945937,0.011868238913561441,-0.08377580409572781
1403638129145096960,50.069809,206.05251895334095,9.128356708333332,0.367749375,-4.159654041666666,-0.03839724354387525,0.032812189937493394,-0.009773843811168246
1403638129195097088,59.771538,133.5925591675299,9.455245041666666,0.563882375,-4.037070916666667,0.1340412865531645,0.23108159296404923,0.38117990863556156
1403638129245096960,40.363312,98.40734748074745,9.455245041666666,0.563882375,-4.037070916666667,0.1340412865531645,0.23108159296404923,0.38117990863556156
1403638129295097088,49.99423,102.19063483229826,9.9047165,-0.008172208333333333,-4.306753791666666,0.1626646862858715,0.4118977034706618,0.6995279641993272
1403638129345096960,60.246706,100.99920646486731,8.850501625,-1.2340034583333332,-3.162644625,0.14870205226991687,0.3846705671395502,0.8105309046261666
1403638129395097088,39.4485,152.65260786466467,8.850501625,-1.2340034583333332,-3.162644625,0.14870205226991687,0.3846705671395502,0.8105309046261666
1403638129445096960,50.168276,297.531084944057,8.499096666666667,-1.4628252916666666,-2.9501672083333332,0.013962634015954637,-0.004886921905584123,0.36233035271402286
1403638129495097088,60.204029,136.51711808330086,9.259112041666667,-1.4383086666666667,-3.563082833333333,-0.032114058236695664,-0.4719370297392667,-0.43353978619539146
1403638129545096960,39.762497,151.39393580567042,9.259112041666667,-1.4383086666666667,-3.563082833333333,-0.032114058236695664,-0.4719370297392667,-0.43353978619539146
1403638129595097088,50.143957,195.73816900192375,9.536967125,-0.42495483333333334,-3.906315583333333,-0.041189770347066175,-0.37768925013157295,-0.5473352534254218
1403638129645096960,49.937725,232.89873629934047,9.733100125,-0.612915625,-4.192342875,-0.06422811647339133,-0.1982694030265558,-0.43353978619539146
1403638129695097088,50.047636,154.57733396813452,9.250939833333334,-0.008172208333333333,-4.151481833333333,-0.07609635538695278,0.056548667764616284,-0.16545721308906244
1403638129745096960,49.851894,154.8120370159895,9.275456458333332,-0.318716125,-3.947176625,0.006283185307179587,0.21432643214490363,0.11030480872604163
1403638129795097088,50.124169,221.41844177924568,9.324489708333333,-0.6210878333333334,-3.881798958333333,0.047472955654245766,0.03700098014227979,0.14870205226991687
1403638129845096960,59.631109,197.88660139247435,9.782133375,-0.5066769166666666,-4.290409374999999,0.05235987755982988,-0.249931148885588,-0.06213372137099814
1403638129895097088,40.061951,178.56585376145262,9.782133375,-0.5066769166666666,-4.290409374999999,0.05235987755982988,-0.249931148885588,-0.06213372137099814
1403638129945096960,49.98374,162.7236040770634,10.100849499999999,-0.122583125,-4.56009225,0.028623399732707,-0.11309733552923257,-0.08866272600131193
1403638129995097088,50.765037,110.04814299574656,9.953749749999998,-0.29419949999999995,-4.347614833333333,0.04817108735504349,0.17034413499464657,0.09075712110370514
1403638130045096960,49.624443,93.40248287365365,9.741272333333333,0.032688833333333334,-4.339442625,0.07051130178057091,0.36861353802120245,0.30647981665020424
1403638130095097088,49.625874,109.5704717974214,9.210078791666666,-0.7028099166666667,-3.930832208333333,0.08098327729253688,0.3378957431861022,0.3309144261781249
1403638130145096960,50.323009,177.87261540513592,8.785123958333333,-0.7681875833333334,-3.6284604999999996,0.1117010721276371,0.19268434942017396,0.20036379812894903
1403638130195097088,50.186396,216.78627260482807,9.16921775,-0.7600153749999999,-3.6693215416666662,0.11588986233242347,0.01884955592153876,0.009075712110370514
1403638130245096960,59.463978,201.6807769337605,9.479761666666667,-0.024516625,-3.8654545416666664,0.12636183784438945,0.19268434942017396,0.16615534478986016
1403638130295097088,39.84189,153.8403147155445,9.479761666666667,-0.024516625,-3.8654545416666664,0.12636183784438945,0.19268434942017396,0.16615534478986016
1403638130345096960,50.684929,147.11747943015308,9.136528916666666,-0.7681875833333334,-3.571255041666667,0.07888888219014369,0.2932153143350474,0.3853686988403479
1403638130395097088,49.655676,302.58336672902874,8.77695175,-0.4739880833333333,-3.4731885416666666,0.12077678423800758,0.2527236756887789,0.364424747816416
1403638130445096960,59.91745,335.3425773842339,8.817812791666666,-0.7109821249999999,-3.4813607499999994,0.10821041362364843,-0.033510321638291124,-0.09215338450530061
1403638130495097088,49.53289,384.05646410712063,8.891362666666666,-0.9724927916666666,-3.546738416666667,0.0027925268031909274,-0.10192722831646883,-0.21851522234969004
1403638130545096960,40.352345,462.4861496905044,8.891362666666666,-0.9724927916666666,-3.546738416666667,0.0027925268031909274,-0.10192722831646883,-0.21851522234969004
1403638130595097088,59.632539,340.83552234377777,8.981256958333333,-0.3350605416666666,-3.571255041666667,-0.014660765716752367,0.21711895894809458,0.06492624817418906
1403638130645096960,40.715456,270.1360158209597,8.981256958333333,-0.3350605416666666,-3.571255041666667,-0.014660765716752367,0.21711895894809458,0.06492624817418906
1403638130695097088,49.982071,315.79544786559836,9.144701125,-0.73549875,-3.260711125,-0.0020943951023931952,0.28204520712228365,0.26529004630313807
1403638130745096960,50.008774,368.44707460622845,8.793296166666666,-0.8253930416666666,-2.852100708333333,0.11100294042683936,0.33719761148530447,0.5229006438975011
1403638130795097088,50.208569,497.5754890978074,8.760607333333333,-0.7109821249999999,-2.8847895416666667,0.1647590813882647,0.17732545200262387,0.5068436147791533
1403638130845096960,64.294576,1228.597950490845,7.812631166666666,-1.0051816249999999,-2.778550833333333,0.09843656981248018,0.07958701389094143,0.14800392056911915
1403638130895097088,35.849571,1042.3685468697133,7.812631166666666,-1.0051816249999999,-2.778550833333333,0.09843656981248018,0.07958701389094143,0.14800392056911915
1403638130945096960,57.27768,577.8571249712156,8.204897166666667,-0.7927042083333332,-2.6477955,-0.059341194567807204,0.25970499269675623,0.1361356816555577
1403638130995097088,44.451713,589.3531258836758,7.412192958333333,-0.83356525,-2.1411185833333333,-0.12845623294678266,0.45867252742410985,0.15777776438028737
1403638131045096960,48.541546,811.5993042082367,7.559292708333333,-1.4301364583333334,-1.6834749166666665,-0.07260569688296412,0.3965388060531116,0.19687313962496036
1403638131095097088,49.896241,1172.5257257891176,7.436709583333332,-1.1522813749999998,-1.7161637499999998,-0.10053096491487339,0.16964600329384885,0.02024581932313422
1403638131145096960,50.165176,711.9683867011648,7.9188698749999995,-1.3647587916666666,-1.8060580416666667,-0.025132741228718346,-0.124965574442794,-0.06771877497737998
1403638131195097088,49.683094,601.0907108317359,8.629852,-1.495514125,-2.231012875,-0.03490658503988659,-0.33510321638291124,-0.24644049038159932
1403638131245096960,50.241947,596.6653425379096,8.719746291666667,-0.980665,-2.59876225,-0.07539822368615504,-0.41887902047863906,-0.35395277230445005
1403638131295097088,49.573898,575.2819232041655,8.948568125,-0.6701210833333332,-2.9011339583333333,-0.01117010721276371,-0.3211405823669566,-0.20943951023931953
1403638131345096960,60.289145,856.218063922938,8.842329416666665,-0.7191543333333333,-3.260711125,-0.05235987755982988,0.028623399732707,0.0942477796076938
1403638131395097088,40.057898,959.9498554523195,8.842329416666665,-0.7191543333333333,-3.260711125,-0.05235987755982988,0.028623399732707,0.0942477796076938
1403638131445096960,49.962282,658.6880199578851,9.26728425,-0.6864655000000001,-3.2361945,-0.032812189937493394,0.07260569688296412,0.1228711793404008
1403638131495097088,49.925327,525.2422066786806,8.548129916666667,-0.3105439166666667,-3.0645781249999997,-0.13334315485236678,0.019547687622336492,-0.1514945790731078
1403638131545096960,50.080299,475.9399196698551,8.580818749999999,-1.12776475,-2.852100708333333,-0.033510321638291124,-0.08726646259971647,0.019547687622336492
1403638131595097088,59.776783,283.6935879763585,9.275456458333332,-0.63743225,-2.974683833333333,0.008377580409572781,-0.09145525280450287,-0.039793506945470715
1403638131645096960,39.88123,411.8155446564698,9.275456458333332,-0.63743225,-2.974683833333333,0.008377580409572781,-0.09145525280450287,-0.039793506945470715
1403638131695097088,50.405741,327.9625664770817,9.013945791666666,-0.08989429166666667,-3.342433208333333,-0.03630284844148206,0.025132741228718346,-0.020943951023931952
1403638131745096960,49.716711,295.88647353655494,9.381695166666667,-0.809048625,-3.015544875,-0.024434609527920613,0.0041887902047863905,0.011868238913561441
1403638131795097088,49.948454,232.41511967949268,9.357178541666666,-0.08172208333333333,-3.538566208333333,-0.08656833089891874,-0.00767944870877505,-0.14172073526193954
1403638131845096960,50.17662,264.1828301754816,9.210078791666666,-0.661948875,-3.2443667083333327,-0.13124875974997358,-0.0879645943005142,-0.16964600329384885
1403638131895097088,50.020933,204.7894595757047,9.520622708333333,0.26151066666666667,-3.7101825833333333,-0.09145525280450287,0.0006981317007977319,-0.03560471674068433
1403638131945096960,50.620794,220.0081355792352,10.648387458333334,-1.0133538333333332,-3.4650163333333333,-0.06911503837897544,0.016755160819145562,-0.011868238913561441
1403638131995097088,50.089837,181.5919020932652,10.828176041666667,0.2778550833333333,-3.751043625,-0.029321531433504733,-0.10262536001726656,-0.1514945790731078
1403638132045096960,49.654483,163.69232030139875,11.048825666666666,-0.4739880833333333,-3.857282333333333,0.041887902047863905,-0.14800392056911915,-0.2750638901143063
1403638132095097088,50.203562,207.39567151897543,11.661741291666667,0.2860272916666666,-4.2168595,0.027925268031909273,-0.2541199390903744,-0.2876302607286655
1403638132145096960,60.238838,290.9341971762014,11.841529874999999,0.7109821249999999,-4.8216029166666665,0.05445427266222308,0.06492624817418906,0.039793506945470715
1403638132195097088,39.238692,169.17144001221794,11.841529874999999,0.7109821249999999,-4.8216029166666665,0.05445427266222308,0.06492624817418906,0.039793506945470715
1403638132245096960,60.85515,115.37817191223786,10.811831625,-0.29419949999999995,-4.020726499999999,0.12845623294678266,0.37070793312359557,0.3804817769347638
1403638132295097088,38.890362,121.03644446970921,10.811831625,-0.29419949999999995,-4.020726499999999,0.12845623294678266,0.37070793312359557,0.3804817769347638
1403638132345096960,50.15707,191.57051831824654,10.051816249999998,0.465815875,-3.6693215416666662,0.06492624817418906,0.29740410453983374,0.2241002759560719
1403638132395097088,49.547911,175.5031263591305,9.782133375,-0.8744262916666666,-3.0809225416666663,0.21642082724729686,0.10262536001726656,0.3818780403363593
1403638132445096960,50.593376,136.40003399545532,9.643205833333333,0.5557101666666666,-3.366949833333333,0.17941984710501704,0.20664698343612864,0.3700098014227978
1403638132495097088,59.904337,157.14145358019096,8.932223708333334,-0.16344416666666667,-2.672312125,0.15498523757709648,0.5249950389998943,0.5473352534254218
1403638132545096960,41.134119,155.11898118020977,8.932223708333334,-0.16344416666666667,-2.672312125,0.15498523757709648,0.5249950389998943,0.5473352534254218
1403638132595097088,49.720525,208.36796297147723,8.466407833333333,-1.569064,-1.9286411666666665,0.1319468914507713,0.48520153205442357,0.48380526865282814
1403638132645096960,49.8209,770.789916131844,7.673703624999999,-1.3565865833333333,-1.838746875,0.07609635538695278,0.23387411976724018,0.31974431896536115
1403638132695097088,49.362183,504.64173005947896,7.273265416666667,-1.1114203333333332,-2.0593964999999996,0.04817108735504349,-0.1340412865531645,0.1514945790731078
1403638132745096960,60.828209,723.3195920660719,7.837147791666666,-0.7028099166666667,-2.680484333333333,-0.03420845333908886,-0.11100294042683936,0.14800392056911915
1403638132795097088,39.199352,1203.5948632421685,7.837147791666666,-0.7028099166666667,-2.680484333333333,-0.03420845333908886,-0.11100294042683936,0.14800392056911915
1403638132845096960,60.390711,658.0050352592846,7.714564666666666,-0.809048625,-1.9695022083333333,-0.0307177948351002,0.33300882128051806,0.3211405823669566
1403638132895097088,39.323807,671.559145290332,7.714564666666666,-0.809048625,-1.9695022083333333,-0.0307177948351002,0.33300882128051806,0.3211405823669566
1403638132945096960,50.115823,804.6171170539602,7.84532,-0.08172208333333333,-2.0512242916666668,0.08377580409572781,0.30997047515419296,0.2715732316103177
1403638132995097088,49.052477,1070.4366101764672,7.820803375,-0.784532,-1.32389775,0.11798425743481668,0.17453292519943295,0.08726646259971647
1403638133045096960,50.991297,856.8035987254581,8.580818749999999,0.32688833333333334,-2.214668458333333,0.10122909661567112,-0.07819075048934597,-0.19338248112097173
1403638133095097088,49.926758,861.782888836496,9.038462416666666,-0.4004382083333333,-1.9122967499999999,-0.025132741228718346,-0.19268434942017396,-0.3302162944773272
1403638133145096960,49.958467,959.8443271049703,9.226423208333333,0.269682875,-2.4680069166666665,-0.06562437987498679,-0.1850049007113989,-0.09773843811168245
1403638133195097088,57.195187,934.88712864922,9.667722458333333,0.13075533333333333,-2.680484333333333,-0.2436479635784084,-0.05794493116621174,-0.06073745796940267
1403638133245096960,44.882536,667.8407971763044,9.259112041666667,-0.35140495833333335,-2.6477955,-0.2988003679414292,0.0006981317007977319,0.10192722831646883
1403638133295097088,48.068523,549.5530030321033,9.136528916666666,0.5965712083333333,-2.754034208333333,-0.43353978619539146,0.012566370614359173,0.0027925268031909274
1403638133345096960,49.755097,489.9570354606536,9.07115125,-0.08172208333333333,-2.803067458333333,-0.36931166972200014,-0.14870205226991687,-0.009773843811168246
1403638133395097088,50.287485,465.0433214390455,9.741272333333333,-0.3023717083333333,-3.2443667083333327,-0.364424747816416,-0.15847589608108512,-0.008377580409572781
1403638133445096960,60.152054,593.768912736808,9.283628666666665,-0.318716125,-3.5957716666666664,-0.4649557127312894,-0.013962634015954637,0.1556833692778942
1403638133495097088,39.576053,588.8976891998358,9.283628666666665,-0.318716125,-3.5957716666666664,-0.4649557127312894,-0.013962634015954637,0.1556833692778942
1403638133545096960,49.779892,457.50770036769427,9.536967125,-0.7763597916666666,-3.0400614999999998,-0.5194099853935125,0.009075712110370514,0.27715828521669955
1403638133595097088,50.031901,375.97354849150753,8.858673833333333,-0.18796079166666665,-3.4977051666666665,-0.3043854215478111,-0.07958701389094143,0.41119957176986405
1403638133645096960,59.654951,440.2460321073165,9.16921775,-0.6210878333333334,-3.530394,-0.228987197861656,-0.11798425743481668,0.32812189937493397
1403638133695097088,40.312767,398.086628930141,9.16921775,-0.6210878333333334,-3.530394,-0.228987197861656,-0.11798425743481668,0.32812189937493397
1403638133745096960,50.02737,420.1575944109807,9.005773583333333,-1.6916471249999998,-2.9501672083333332,-0.3762929867299774,-0.09843656981248018,0.1864011641129944
1403638133795097088,59.45015,444.698244142791,9.283628666666665,-1.7488525833333333,-2.631451083333333,-0.43493604959698695,-0.05515240436302082,-0.03630284844148206
1403638133845096960,50.515413,282.706051436889,9.716755708333332,-2.2555295,-2.4925235416666665,-0.2960078411382383,-0.07888888219014369,0.04817108735504349
1403638133895097088,49.604416,345.1495298117473,10.362360166666665,-3.0727503333333335,-2.557901208333333,-0.25342180738957665,-0.0013962634015954637,0.0942477796076938
1403638133945096960,50.101996,481.0074360818145,10.223432625,-2.803067458333333,-2.3535959999999996,-0.1270599695451872,0.07819075048934597,0.10262536001726656
1403638133995097088,50.311327,525.3053294442553,9.438900625,-2.631451083333333,-2.655967708333333,-0.04049163864626844,0.028623399732707,0.014660765716752367
1403638134045096960,39.769172,506.18716628827224,9.438900625,-2.631451083333333,-2.655967708333333,-0.04049163864626844,0.028623399732707,0.014660765716752367
1403638134095097088,60.994148,429.9879118626924,10.092677291666664,-1.4791697083333333,-2.8439284999999996,0.06492624817418906,-0.10890854532444616,-0.15498523757709648
1403638134145096960,39.076329,511.71508217641923,10.092677291666664,-1.4791697083333333,-2.8439284999999996,0.06492624817418906,-0.10890854532444616,-0.15498523757709648
1403638134195097088,50.245523,349.04479056587866,9.937405333333334,-1.3075533333333333,-3.2770555416666665,-0.009773843811168246,0.060039326268604934,-0.025132741228718346
1403638134245096960,49.821377,234.41776607898913,9.9047165,-1.2176590416666666,-3.18716125,-0.016755160819145562,0.346273323595675,0.27296949501191314
1403638134295097088,50.032616,576.6145107837126,9.226423208333333,-1.348414375,-2.827584083333333,-0.02583087292951608,0.3008947630438224,0.2834414705238791
1403638134345096960,49.98517,651.1970449456247,8.752435125,-1.3729310000000001,-3.0564059166666664,0.047472955654245766,0.023038346126325153,0.2813470754214859
1403638134395097088,50.207138,631.3709111974351,9.16921775,-0.8907707083333333,-3.2035056666666666,0.11239920382843484,-0.09843656981248018,0.2436479635784084
1403638134445096960,49.636126,1231.2842584471355,9.422556208333333,-0.6864655000000001,-3.587599458333333,0.08517206749732328,-0.1319468914507713,0.19338248112097173
1403638134495097088,50.089359,1154.9428242350766,8.956740333333332,-0.8989429166666666,-4.0125542916666666,0.059341194567807204,0.02583087292951608,0.21851522234969004
1403638134545096960,49.949169,1094.7721537896578,8.87501825,-0.8008764166666666,-3.898143375,0.050963614158234416,0.0439822971502571,0.2869321290278678
1403638134595097088,50.073385,1175.3992769275699,9.005773583333333,-1.4056198333333334,-3.9144877916666663,0.1494001839707146,0.07400196028455958,0.29042278753185646
1403638134645096960,50.306082,1101.8334438354177,9.005773583333333,-1.0460426666666667,-4.184170666666667,0.07330382858376185,-0.05794493116621174,0.16126842288427606
1403638134695097088,62.093735,1007.5052269523869,8.956740333333332,-0.6537766666666667,-3.6121160833333334,0.12566370614359174,-0.20664698343612864,0.06492624817418906
1403638134745096960,49.606323,864.2640279901927,9.659550249999999,-1.1114203333333332,-3.6611493333333334,0.02722713633111154,-0.2590068609959585,-0.05585053606381855
1403638134795097088,38.461208,1038.914985414552,9.659550249999999,-1.1114203333333332,-3.6611493333333334,0.02722713633111154,-0.2590068609959585,-0.05585053606381855
1403638134845096960,60.54163,1345.029129779947,9.16921775,-0.5230213333333333,-3.7837324583333327,-0.009075712110370514,0.009773843811168246,-0.004886921905584123
1403638134895097088,39.077282,831.4209503503779,9.16921775,-0.5230213333333333,-3.7837324583333327,-0.009075712110370514,0.009773843811168246,-0.004886921905584123
1403638134945096960,61.122894,768.0327958015154,8.033280791666666,-0.5311935416666667,-3.4731885416666666,-0.0153588974175501,0.18989182261698306,0.12147491593880534
1403638134995097088,49.215556,1018.6527086258146,8.899534874999999,0.06537766666666667,-3.219850083333333,-0.00767944870877505,0.0013962634015954637,-0.06911503837897544
1403638135045096960,39.824724,1016.0965224383606,8.899534874999999,0.06537766666666667,-3.219850083333333,-0.00767944870877505,0.0013962634015954637,-0.06911503837897544
1403638135095097088,59.845924,986.6140685566592,8.564474333333333,0.5311935416666667,-3.6121160833333334,0.08307767239493008,-0.13055062804917586,-0.09634217471008698
1403638135145096960,40.200234,1085.523526207712,8.564474333333333,0.5311935416666667,-3.6121160833333334,0.08307767239493008,-0.13055062804917586,-0.09634217471008698
1403638135195097088,50.129413,775.1931523196564,8.638024208333333,0.8172208333333333,-3.881798958333333,0.016057029118347832,-0.09354964790689606,-0.057246799465414
1403638135245096960,49.802065,756.0515816382562,8.67888525,0.9561483749999999,-3.906315583333333,-0.024434609527920613,-0.09704030641088471,0.0013962634015954637
1403638135295097088,50.211668,884.6191061217318,9.259112041666667,1.1441091666666665,-3.538566208333333,-0.03700098014227979,0.039095375244672985,0.0006981317007977319
1403638135345096960,49.637556,599.2105875057835,9.1201845,0.367749375,-4.028898708333333,-0.05375614096142535,0.11798425743481668,0.09564404300928926
1403638135395097088,50.202847,575.8939288936945,9.218250999999999,0.416782625,-3.8245934999999998,-0.09843656981248018,0.07260569688296412,0.08307767239493008
1403638135445096960,54.128885,437.2644287307085,8.77695175,0.661948875,-3.92266,-0.182212373908208,-0.012566370614359173,-0.029321531433504733
1403638135495097088,47.656775,311.1054687118626,9.398039583333333,-0.008172208333333333,-3.3260887916666664,-0.1647590813882647,-0.06422811647339133,-0.07958701389094143
1403638135545096960,48.298597,258.41080488596486,9.855683249999998,0.53936575,-3.92266,-0.07400196028455958,-0.18151424220741028,0.04328416544945937
1403638135595097088,50.101042,336.976896649375,9.765788958333333,0.7763597916666666,-3.955348833333333,-0.20874137853852182,-0.12217304763960307,-0.07609635538695278
1403638135645096960,59.580564,357.95315384223505,8.458235625,0.04086104166666667,-3.9635210416666666,-0.21223203704251048,0.20874137853852182,0.29042278753185646
1403638135695097088,39.911986,375.30346013258105,8.458235625,0.04086104166666667,-3.9635210416666666,-0.21223203704251048,0.20874137853852182,0.29042278753185646
1403638135745096960,50.06814,432.52431286341124,8.548129916666667,-0.6701210833333332,-3.92266,-0.13683381335635544,0.20804324683772407,0.38816122564353883
1403638135795097088,60.010671,430.266015208697,9.430728416666666,-0.73549875,-3.947176625,-0.07888888219014369,-0.0747000919853573,0.009773843811168246
1403638135845096960,39.831162,345.80857485089865,9.430728416666666,-0.73549875,-3.947176625,-0.07888888219014369,-0.0747000919853573,0.009773843811168246
1403638135895097088,59.790849,233.35584318534112,10.329671333333332,-0.17978858333333333,-4.347614833333333,-0.12426744274199628,-0.24923301718479024,-0.18011797880581482
1403638135945096960,40.190459,271.50096678063454,10.329671333333332,-0.17978858333333333,-4.347614833333333,-0.12426744274199628,-0.24923301718479024,-0.18011797880581482
1403638135995097088,59.894561,373.21687648975234,10.133538333333334,0.93163175,-3.8491101249999997,-0.21851522234969004,0.13823007675795088,-0.00767944870877505
1403638136045096960,49.78633,281.98203879961227,8.817812791666666,0.63743225,-3.6448049166666663,-0.21642082724729686,0.35814156250923646,0.16196655458507375
1403638136095097088,40.362358,272.81071354121696,8.817812791666666,0.63743225,-3.6448049166666663,-0.21642082724729686,0.35814156250923646,0.16196655458507375
1403638136145096960,50.198555,283.3856855241737,8.28661925,0.6782932916666666,-3.5957716666666664,-0.15079644737231007,0.3483677186980682,0.37210419652519106
1403638136195097088,61.746836,380.399855311927,7.967903124999999,0.15527195833333335,-3.0890947499999997,-0.08656833089891874,0.1270599695451872,0.2324778563656447
1403638136245096960,38.039922,486.21309552775745,7.967903124999999,0.15527195833333335,-3.0890947499999997,-0.08656833089891874,0.1270599695451872,0.2324778563656447
1403638136295097088,59.527636,473.12238950195285,8.556302125,-0.980665,-3.211677875,-0.22759093446006054,-0.025132741228718346,-0.05375614096142535
1403638136345096960,50.124645,417.675964607794,8.964912541666667,-1.8224024583333331,-3.0645781249999997,-0.13264502315156904,-0.05515240436302082,0.0041887902047863905
1403638136395097088,40.140152,437.6693348764688,8.964912541666667,-1.8224024583333331,-3.0645781249999997,-0.13264502315156904,-0.05515240436302082,0.0041887902047863905
1403638136445096960,59.795141,467.52034429482336,10.084505083333333,-2.6477955,-3.4486719166666666,-0.12845623294678266,-0.03630284844148206,0.06283185307179587
1403638136495097088,40.175438,476.76995085603096,10.084505083333333,-2.6477955,-3.4486719166666666,-0.12845623294678266,-0.03630284844148206,0.06283185307179587
1403638136545096960,50.199747,414.4842420594678,10.542148749999999,-2.3699404166666667,-3.751043625,-0.09773843811168245,-0.10471975511965977,0.289026524130261
1403638136595097088,50.13609,408.2565271123116,10.084505083333333,-2.1656352083333332,-3.587599458333333,-0.003490658503988659,-0.0027925268031909274,0.3323106895797203
1403638136645096960,49.932479,326.812882306431,9.561483749999999,-2.181979625,-3.489532958333333,0.1647590813882647,0.05305800926062762,0.307177948351002
1403638136695097088,50.00949,378.93966464710644,9.259112041666667,-2.0512242916666668,-3.726527,0.21572269554649914,0.05026548245743669,0.23876104167282428
1403638136745096960,59.592247,384.89104367516865,9.234595416666666,-2.0185354583333335,-3.293399958333333,0.3679154063204046,0.050963614158234416,0.21572269554649914
1403638136795097088,40.455102,259.07879609641725,9.234595416666666,-2.0185354583333335,-3.293399958333333,0.3679154063204046,0.050963614158234416,0.21572269554649914
1403638136845096960,59.63111,245.24714488827541,7.967903124999999,-1.2094868333333333,-2.7131731666666665,0.40491638646268446,0.2611012560983517,0.45937065912490754
1403638136895097088,49.918651,196.55703084714375,7.256920999999999,-1.0051816249999999,-2.778550833333333,0.3385938748868999,0.37838738183237064,0.44261549830576197
1403638136945096960,40.157795,260.4909747721768,7.256920999999999,-1.0051816249999999,-2.778550833333333,0.3385938748868999,0.37838738183237064,0.44261549830576197
1403638136995097088,50.081253,422.7673273308261,7.60015375,-0.7028099166666667,-2.4680069166666665,0.25132741228718347,0.27296949501191314,0.325329372571743
1403638137045096960,49.789429,536.6736781977768,7.240576583333333,-0.8417374583333332,-2.557901208333333,0.24294983187761068,0.10332349171806432,0.19896753472735357
1403638137095097088,50.30632,469.68397582694666,7.967903124999999,-0.23699404166666665,-2.8847895416666667,0.1270599695451872,-0.06702064327658225,-0.032114058236695664
1403638137145096960,49.855232,285.6415911326368,8.18855275,-0.7273265416666667,-2.8602729166666667,0.057246799465414,-0.15987215948268058,-0.17453292519943295
1403638137195097088,59.356928,225.53339674940855,8.940395916666665,-0.4004382083333333,-3.317916583333333,0.07120943348136866,-0.3113667385557884,-0.23457225146803787
1403638137245096960,40.644169,217.43973828606366,8.940395916666665,-0.4004382083333333,-3.317916583333333,0.07120943348136866,-0.3113667385557884,-0.23457225146803787
1403638137295097088,50.184965,220.84199872837127,9.022118,-0.367749375,-3.546738416666667,0.06702064327658225,-0.2017600615305445,-0.18989182261698306
1403638137345096960,59.532404,202.42719685005883,9.373522958333332,0.24516625,-3.8082490833333327,-0.013962634015954637,-0.13473941825396224,-0.10821041362364843
1403638137395097088,49.806833,179.41159571256068,9.594172583333334,-0.7518431666666666,-3.6039438749999997,-0.09145525280450287,-0.21013764194011728,-0.153588974175501
1403638137445096960,40.314913,137.3639546485365,9.594172583333334,-0.7518431666666666,-3.6039438749999997,-0.09145525280450287,-0.21013764194011728,-0.153588974175501
1403638137495097088,50.291539,128.08741297263518,9.5124505,0.08989429166666667,-3.759215833333333,-0.11379546723003027,-0.24504422698000386,-0.2303834612632515
1403638137545096960,59.512853,114.66554174827402,9.675894666666666,0.17978858333333333,-4.135137416666667,-0.19058995431778078,-0.24015730507441974,-0.3392920065876977
1403638137595097088,40.450096,119.34692486517159,9.675894666666666,0.17978858333333333,-4.135137416666667,-0.19058995431778078,-0.24015730507441974,-0.3392920065876977
1403638137645096960,49.998522,153.58607883397917,9.471589458333332,-0.18796079166666665,-4.46202575,-0.10611601852125524,-0.07120943348136866,-0.08936085770210968
1403638137695097088,49.99423,167.44512342529077,9.586000375,0.5557101666666666,-4.535575625,-0.17034413499464657,0.0439822971502571,0.04677482395344803
1403638137745096960,54.180384,154.31388722308594,8.989429166666666,0.024516625,-4.3312704166666665,-0.15219271077390556,0.1466076571675237,0.10262536001726656
1403638137795097088,58.125734,140.29228179629246,9.177389958333332,-0.13075533333333333,-4.184170666666667,-0.08656833089891874,-0.08517206749732328,0.012566370614359173
1403638137845096960,37.981272,101.57075589466032,9.046634625,-0.20430520833333332,-4.16782625,-0.0879645943005142,-0.10402162341886204,-0.004886921905584123
1403638137895097088,49.855709,94.36972194621934,9.218250999999999,-0.032688833333333334,-4.298581583333333,-0.07888888219014369,-0.23736477827122882,-0.11728612573401893
1403638137945096960,49.724341,93.97433134215692,9.07115125,0.20430520833333332,-4.519231208333333,-0.08307767239493008,-0.3141592653589793,-0.1850049007113989
1403638137995097088,50.44651,101.2034962322388,9.447072833333333,0.2778550833333333,-4.388475875,0.013962634015954637,-0.28064894372068816,-0.1054178868204575
1403638138045096960,49.564838,150.56516852665172,9.005773583333333,0.45764366666666667,-4.592781083333333,0.0006981317007977319,-0.08936085770210968,-0.07330382858376185
1403638138095097088,50.249577,124.20585963423288,9.112012291666666,0.35957716666666667,-4.5519200416666665,0.010471975511965976,0.06422811647339133,0.041189770347066175
1403638138145096960,49.863338,106.80707210673741,6.586799916666666,1.1522813749999998,-3.6856659583333333,-0.039095375244672985,0.20106192982974677,0.3127630019573839
1403638138195097088,50.044299,204.99464786149431,7.371331916666667,-0.06537766666666667,-3.8245934999999998,-0.032114058236695664,0.26529004630313807,0.25970499269675623
1403638138245096960,59.448957,124.3908307628632,9.218250999999999,-0.8172208333333333,-4.004382083333333,-0.020943951023931952,0.1710422666954443,0.27296949501191314
1403638138295097088,40.248632,181.36844285417638,9.218250999999999,-0.8172208333333333,-4.004382083333333,-0.020943951023931952,0.1710422666954443,0.27296949501191314
1403638138345096960,50.22192,190.48387163294916,7.902525458333333,0.08989429166666667,-3.7837324583333327,-0.032812189937493394,0.2331759880664424,0.025132741228718346
1403638138395097088,49.967289,210.21134713262663,10.574837583333332,-0.4004382083333333,-4.543747833333333,0.020943951023931952,0.22130774915288098,0.15847589608108512
1403638138445096960,50.303936,222.9460604223056,9.667722458333333,-0.20430520833333332,-4.257720541666666,-0.013962634015954637,0.03769911184307752,0.04677482395344803
1403638138495097088,49.60537,208.66090327566673,8.891362666666666,0.40861041666666664,-4.355787041666666,-0.010471975511965976,0.11868238913561441,0.048869219055841226
1403638138545096960,60.395718,224.38933320922297,8.964912541666667,0.2860272916666666,-3.947176625,-0.004886921905584123,0.016057029118347832,0.0767944870877505
1403638138595097088,49.306869,224.48548810545273,8.997601374999999,-0.20430520833333332,-3.9390044166666667,0.006283185307179587,0.021642082724729686,0.08866272600131193
1403638138645096960,40.184736,219.21130340570795,8.997601374999999,-0.20430520833333332,-3.9390044166666667,0.006283185307179587,0.021642082724729686,0.08866272600131193
1403638138695097088,60.127497,220.64495512950495,9.242767624999999,-0.032688833333333334,-4.135137416666667,-0.0020943951023931952,0.0006981317007977319,0.060039326268604934
1403638138745096960,40.096998,221.29181298845322,9.242767624999999,-0.032688833333333334,-4.135137416666667,-0.0020943951023931952,0.0006981317007977319,0.060039326268604934
1403638138795097088,50.137759,221.3867039681315,8.997601374999999,0.4494714583333333,-4.077931958333333,0.004886921905584123,0.00767944870877505,0.0747000919853573
1403638138845096960,60.092926,221.39228051240818,8.842329416666665,0.6292600416666666,-3.6611493333333334,-0.02234021442552742,-0.023038346126325153,0.182212373908208
1403638138895097088,40.100813,218.6511547037315,8.842329416666665,0.6292600416666666,-3.6611493333333334,-0.02234021442552742,-0.023038346126325153,0.182212373908208
1403638138945096960,48.83933,220.91854127321238,8.548129916666667,0.6782932916666666,-3.9390044166666667,-0.07260569688296412,0.006283185307179587,0.009075712110370514
1403638138995097088,51.363707,217.3191366712998,8.605335375,-0.269682875,-4.053415333333333,-0.03769911184307752,0.03769911184307752,0.1466076571675237
1403638139045096960,49.429655,219.486347534301,9.193734375,0.8744262916666666,-3.8899711666666663,-0.04817108735504349,0.01884955592153876,0.07260569688296412
1403638139095097088,50.481319,215.7132082187155,8.662540833333333,-0.21247741666666667,-3.979865458333333,-0.03769911184307752,0.012566370614359173,0.07888888219014369
1403638139145096960,59.781313,220.07407086470377,8.866846041666665,-0.26151066666666667,-3.832765708333333,-0.04258603374866164,0.01884955592153876,0.048869219055841226
1403638139195097088,40.305615,218.85560537885968,8.866846041666665,-0.26151066666666667,-3.832765708333333,-0.04258603374866164,0.01884955592153876,0.048869219055841226
1403638139245096960,49.546957,224.75948128866756,8.850501625,0.2860272916666666,-4.045243125,-0.008377580409572781,0.016057029118347832,0.12636183784438945
1403638139295097088,50.161123,224.11050239985514,8.850501625,-0.057205458333333334,-3.97169325,-0.03700098014227979,0.029321531433504733,0.0439822971502571
1403638139345096960,50.25506,225.22289575610833,8.9240515,0.032688833333333334,-3.947176625,-0.00767944870877505,0.017453292519943295,0.11519173063162574
1403638139395097088,49.960613,224.57286981071775,8.932223708333334,0.24516625,-3.9390044166666667,-0.023736477827122883,0.024434609527920613,0.059341194567807204
1403638139445096960,60.135842,224.4677061683214,9.087495666666666,0.20430520833333332,-3.97169325,-0.006283185307179587,0.01884955592153876,0.08517206749732328
1403638139495097088,39.792537,224.2910743623581,9.087495666666666,0.20430520833333332,-3.97169325,-0.006283185307179587,0.01884955592153876,0.08517206749732328
1403638139545096960,49.952746,223.90607573158897,8.891362666666666,-0.26151066666666667,-3.9635210416666666,-0.013962634015954637,0.016755160819145562,0.07609635538695278
1403638139595097088,49.895048,225.28397069976018,8.793296166666666,0.14709974999999997,-3.898143375,-0.006981317007977318,0.01815142422074103,0.08936085770210968
1403638139645096960,59.54504,224.4593737879237,8.981256958333333,0.16344416666666667,-3.97169325,-0.0027925268031909274,0.021642082724729686,0.08656833089891874
1403638139695097088,49.933195,224.4515046478451,9.013945791666666,-0.008172208333333333,-3.9635210416666666,-0.006283185307179587,0.023038346126325153,0.07120943348136866
1403638139745096960,40.049792,224.79293083912,9.013945791666666,-0.008172208333333333,-3.9635210416666666,-0.006283185307179587,0.023038346126325153,0.07120943348136866
1403638139795097088,50.425768,225.35242370202528,8.915879291666666,-0.032688833333333334,-4.0125542916666666,-0.0013962634015954637,0.014660765716752367,0.09145525280450287
1403638139845096960,49.67451,224.88954927371447,8.97308475,0.08172208333333333,-3.947176625,-0.009075712110370514,0.023038346126325153,0.06911503837897544
1403638139895097088,50.105334,225.247802003832,8.891362666666666,-0.122583125,-3.92266,-0.003490658503988659,0.023038346126325153,0.08377580409572781
1403638139945096960,59.556961,225.23689615440261,9.038462416666666,0.057205458333333334,-3.9880376666666666,-0.0013962634015954637,0.01884955592153876,0.07888888219014369
1403638139995097088,59.477806,224.86988803715977,8.97308475,0.04903325,-3.906315583333333,-0.00767944870877505,0.016057029118347832,0.07888888219014369
1403638140045096960,32.391787,224.7402554176845,8.97308475,0.04903325,-3.906315583333333,-0.00767944870877505,0.016057029118347832,0.07888888219014369
1403638140095097088,48.907756,225.1866879804956,8.981256958333333,-0.024516625,-3.947176625,-0.006981317007977318,0.020943951023931952,0.0767944870877505
1403638140145096960,49.693346,224.8125861763234,8.907707083333333,0.10623870833333333,-3.979865458333333,-0.0013962634015954637,0.020943951023931952,0.07958701389094143
1403638140195097088,50.180912,225.16340276401644,8.842329416666665,0.04903325,-3.8899711666666663,-0.0006981317007977319,0.020943951023931952,0.07888888219014369
1403638140245096960,49.533368,225.23219139008177,8.891362666666666,0.04086104166666667,-3.979865458333333,-0.003490658503988659,0.02234021442552742,0.07888888219014369
1403638140295097088,50.065279,225.1627094179116,8.9240515,0.08172208333333333,-3.9880376666666666,-0.0041887902047863905,0.024434609527920613,0.07330382858376185
1403638140345096960,50.402879,224.9539901592253,9.013945791666666,0.024516625,-3.8899711666666663,-0.003490658503988659,0.02024581932313422,0.08028514559173915
1403638140395097088,50.050497,225.66884632972304,8.948568125,0.08989429166666667,-3.9880376666666666,-0.005585053606381855,0.014660765716752367,0.07539822368615504
1403638140445096960,49.476862,224.85329845773273,8.940395916666665,0.0,-3.930832208333333,-0.0041887902047863905,0.023038346126325153,0.0747000919853573
1403638140495097088,59.96418,225.5737064163363,8.981256958333333,0.0980665,-3.947176625,0.0,0.024434609527920613,0.07400196028455958
1403638140545096960,50.023079,225.20522270101705,9.005773583333333,0.13075533333333333,-4.020726499999999,-0.005585053606381855,0.02024581932313422,0.07958701389094143
1403638140595097088,50.185442,224.78580111695717,9.062979041666667,0.0980665,-3.9880376666666666,0.0,0.020943951023931952,0.08098327729253688
1403638140645096960,49.897909,225.2509187898511,8.915879291666666,0.06537766666666667,-3.92266,-0.0006981317007977319,0.019547687622336492,0.07958701389094143
1403638140695097088,40.37261,225.15342397444695,8.915879291666666,0.06537766666666667,-3.92266,-0.0006981317007977319,0.019547687622336492,0.07958701389094143
1403638140745096960,59.942723,224.75301496632474,8.77695175,0.057205458333333334,-3.930832208333333,-0.0020943951023931952,0.019547687622336492,0.07609635538695278
1403638140795097088,39.607763,225.39353380025085,8.77695175,0.057205458333333334,-3.930832208333333,-0.0020943951023931952,0.019547687622336492,0.07609635538695278
1403638140845096960,50.32897,224.9651196137327,9.022118,0.04903325,-4.004382083333333,-0.0027925268031909274,0.023736477827122883,0.07749261878854824
1403638140895097088,59.710503,225.2105412643384,8.981256958333333,0.07354987499999999,-3.9962098749999995,-0.0020943951023931952,0.017453292519943295,0.0747000919853573
1403638140945096960,39.96253,225.61659350515163,8.981256958333333,0.07354987499999999,-3.9962098749999995,-0.0020943951023931952,0.017453292519943295,0.0747000919853573
1403638140995097088,50.557852,225.26040360444932,8.9240515,0.04086104166666667,-3.9635210416666666,-0.006283185307179587,0.0153588974175501,0.0767944870877505
1403638141045096960,49.876451,224.67632702421207,8.932223708333334,0.07354987499999999,-3.9635210416666666,-0.006283185307179587,0.023736477827122883,0.07330382858376185
1403638141095097088,50.552607,224.99413122611247,8.907707083333333,0.04903325,-3.92266,0.0013962634015954637,0.019547687622336492,0.08098327729253688
1403638141145096960,50.05908,225.23528334403144,8.834157208333334,0.07354987499999999,-3.92266,-0.0013962634015954637,0.024434609527920613,0.07539822368615504
1403638141195097088,49.876451,225.5980294741014,8.956740333333332,0.08989429166666667,-3.979865458333333,-0.0020943951023931952,0.014660765716752367,0.07888888219014369
1403638141245096960,49.701214,225.31013912533453,9.038462416666666,0.06537766666666667,-3.9962098749999995,-0.0013962634015954637,0.023736477827122883,0.07260569688296412
1403638141295097088,59.674263,225.1883181483093,8.932223708333334,0.122583125,-3.97169325,-0.0020943951023931952,0.021642082724729686,0.08028514559173915
1403638141345096960,40.291786,225.39505963679076,8.932223708333334,0.122583125,-3.97169325,-0.0020943951023931952,0.021642082724729686,0.08028514559173915
1403638141395097088,59.646607,224.95769366481025,8.948568125,0.08172208333333333,-4.020726499999999,-0.003490658503988659,0.02234021442552742,0.07749261878854824
1403638141445096960,50.454855,224.99859880521737,8.956740333333332,0.04903325,-3.97169325,-0.0020943951023931952,0.01884955592153876,0.0747000919853573
1403638141495097088,39.783477,225.40749667368223,8.956740333333332,0.04903325,-3.97169325,-0.0020943951023931952,0.01884955592153876,0.0747000919853573
1403638141545096960,60.426712,225.14233803618566,8.981256958333333,0.06537766666666667,-3.9880376666666666,-0.0041887902047863905,0.013962634015954637,0.07609635538695278
1403638141595097088,39.693833,225.17491070335748,8.981256958333333,0.06537766666666667,-3.9880376666666666,-0.0041887902047863905,0.013962634015954637,0.07609635538695278
1403638141645096960,60.203075,225.29474914188506,8.948568125,0.0,-3.9390044166666667,-0.003490658503988659,0.01815142422074103,0.07749261878854824
1403638141695097088,39.842844,225.1700672197819,8.948568125,0.0,-3.9390044166666667,-0.003490658503988659,0.01815142422074103,0.07749261878854824
1403638141745096960,59.454203,225.35814254389268,8.932223708333334,0.13075533333333333,-3.947176625,-0.003490658503988659,0.023736477827122883,0.0767944870877505
1403638141795097088,50.385237,224.31690793128513,8.948568125,0.07354987499999999,-3.947176625,-0.003490658503988659,0.020943951023931952,0.08028514559173915
1403638141845096960,39.105653,225.071195046071,8.948568125,0.07354987499999999,-3.947176625,-0.003490658503988659,0.020943951023931952,0.08028514559173915
1403638141895097088,59.965134,224.63735112542676,8.981256958333333,0.08172208333333333,-3.947176625,0.0,0.019547687622336492,0.08028514559173915
1403638141945096960,40.587187,222.45706259123503,8.981256958333333,0.08172208333333333,-3.947176625,0.0,0.019547687622336492,0.08028514559173915
1403638141995097088,50.097942,219.52672365656687,9.1201845,1.32389775,-4.4211647083333325,-0.07120943348136866,0.0041887902047863905,0.09704030641088471
1403638142045096960,49.878598,221.33130860995973,8.736090708333332,0.3350605416666666,-3.857282333333333,-0.06911503837897544,0.012566370614359173,0.09215338450530061
1403638142095097088,50.101757,222.97870854096982,8.580818749999999,0.416782625,-3.898143375,-0.056548667764616284,0.013264502315156905,0.09285151620609833
1403638142145096960,49.793958,224.95955259046914,8.87501825,0.17161637500000002,-3.881798958333333,-0.04677482395344803,0.02652900463031381,0.1054178868204575
1403638142195097088,50.217867,218.37081152507693,8.850501625,-1.4219642499999998,-3.726527,0.039095375244672985,0.020943951023931952,0.047472955654245766
1403638142245096960,71.389914,209.96946421758167,8.401030166666667,1.9449855833333332,-4.020726499999999,0.20734511513692636,0.04328416544945937,0.0153588974175501
1403638142295097088,39.816856,219.88307694441608,9.030290208333332,3.219850083333333,-4.355787041666666,0.030019663134302467,0.032114058236695664,0.07539822368615504
1403638142345096960,38.718462,221.9819744362501,9.030290208333332,3.219850083333333,-4.355787041666666,0.030019663134302467,0.032114058236695664,0.07539822368615504
1403638142395097088,50.000429,201.7607753583775,7.967903124999999,3.4404997083333333,-4.126965208333333,0.06073745796940267,-0.0027925268031909274,0.08447393579652555
1403638142445096960,59.863806,213.47292453206165,8.613507583333332,2.083913125,-3.930832208333333,-0.03420845333908886,0.06073745796940267,0.11030480872604163
1403638142495097088,40.414333,213.43867947687176,8.613507583333332,2.083913125,-3.930832208333333,-0.03420845333908886,0.06073745796940267,0.11030480872604163
1403638142545096960,59.349776,215.20559128596614,8.253930416666666,0.9970094166666666,-3.97169325,-0.11728612573401893,0.02234021442552742,0.11519173063162574
1403638142595097088,40.5972,219.67428440842113,8.253930416666666,0.9970094166666666,-3.97169325,-0.11728612573401893,0.02234021442552742,0.11519173063162574
1403638142645096960,59.736013,222.22051240831888,8.564474333333333,0.016344416666666667,-4.028898708333333,-0.08447393579652555,-0.006981317007977318,0.09773843811168245
1403638142695097088,40.041924,223.24824574992564,8.564474333333333,0.016344416666666667,-4.028898708333333,-0.08447393579652555,-0.006981317007977318,0.09773843811168245
1403638142745096960,59.571505,224.23635232710797,9.741272333333333,-0.7191543333333333,-4.094276375,0.004886921905584123,0.03490658503988659,0.06562437987498679
1403638142795097088,40.80677,225.03824956734752,9.741272333333333,-0.7191543333333333,-4.094276375,0.004886921905584123,0.03490658503988659,0.06562437987498679
1403638142845096960,49.854278,225.62843401856156,8.564474333333333,0.8580818749999999,-3.8082490833333327,0.00767944870877505,0.03490658503988659,0.07888888219014369
1403638142895097088,49.95966,225.46963194906633,8.433719,0.4903325,-3.702010375,-0.006981317007977318,-0.008377580409572781,0.07749261878854824
1403638142945096960,49.762726,220.9406291868993,8.490924458333334,1.0460426666666667,-3.8164212916666664,0.0,-0.0020943951023931952,0.09494591130849153
1403638142995097088,50.320625,207.73107607080365,8.311135875,1.1849702083333333,-3.6529771249999996,-0.07609635538695278,0.010471975511965976,0.0747000919853573
1403638143045096960,49.761772,215.50523301171728,8.539957708333333,-0.4739880833333333,-3.587599458333333,-0.1361356816555577,-0.029321531433504733,0.1117010721276371
1403638143095097088,50.143481,213.63876618504608,8.539957708333333,-0.4903325,-3.8164212916666664,-0.11100294042683936,0.039793506945470715,0.1228711793404008
1403638143145096960,49.628257,219.65454500174476,9.635033625,-1.1359369583333332,-4.045243125,-0.12566370614359174,0.0,0.11519173063162574
1403638143195097088,50.330162,222.72815578592903,9.700411291666665,-0.4004382083333333,-4.519231208333333,-0.09634217471008698,-0.02583087292951608,0.11728612573401893
1403638143245096960,49.662114,223.2339793332831,8.564474333333333,-0.3023717083333333,-3.8491101249999997,-0.07260569688296412,-0.01884955592153876,0.10053096491487339
1403638143295097088,59.808254,224.98820408535738,8.711574083333332,0.392266,-3.8654545416666664,-0.013264502315156905,0.010471975511965976,0.10053096491487339
1403638143345096960,50.192118,223.77366660091286,8.964912541666667,-0.13075533333333333,-3.92266,-0.03769911184307752,-0.006981317007977318,0.08098327729253688
1403638143395097088,40.360927,225.2169360600158,8.964912541666667,-0.13075533333333333,-3.92266,-0.03769911184307752,-0.006981317007977318,0.08098327729253688
1403638143445096960,49.638271,224.79902930136953,9.144701125,-0.42495483333333334,-4.16782625,-0.02234021442552742,0.017453292519943295,0.0767944870877505
1403638143495097088,59.720994,224.7576890444847,9.07115125,-0.4494714583333333,-4.045243125,0.00767944870877505,0.031415926535897934,0.06702064327658225
1403638143545096960,40.495872,223.84883729546237,9.07115125,-0.4494714583333333,-4.045243125,0.00767944870877505,0.031415926535897934,0.06702064327658225
1403638143595097088,59.844732,222.74517724994973,9.054806833333332,0.5475379583333333,-3.97169325,0.025132741228718346,0.008377580409572781,0.0747000919853573
1403638143645096960,49.694062,224.5647148126261,8.850501625,-0.04086104166666667,-3.9962098749999995,0.011868238913561441,0.006981317007977318,0.06073745796940267
1403638143695097088,49.834966,224.7319268497582,8.834157208333334,0.14709974999999997,-3.9962098749999995,0.013264502315156905,0.027925268031909273,0.08656833089891874
1403638143745096960,40.392399,225.0915971503837,8.834157208333334,0.14709974999999997,-3.9962098749999995,0.013264502315156905,0.027925268031909273,0.08656833089891874
1403638143795097088,49.73197,225.9931900568193,9.259112041666667,0.29419949999999995,-4.208687291666666,0.013962634015954637,0.02024581932313422,0.07400196028455958
1403638143845096960,50.360203,225.7916085490698,8.932223708333334,0.016344416666666667,-3.930832208333333,-0.005585053606381855,0.016057029118347832,0.07260569688296412
1403638143895097088,59.694528,224.85985511372618,9.079323458333333,0.07354987499999999,-4.0615875416666665,-0.0006981317007977319,0.01884955592153876,0.06492624817418906
1403638143945096960,40.349484,224.91352220713247,9.079323458333333,0.07354987499999999,-4.0615875416666665,-0.0006981317007977319,0.01884955592153876,0.06492624817418906
1403638143995097088,59.550762,225.63090505251236,9.144701125,0.196133,-4.086104166666667,0.0006981317007977319,0.014660765716752367,0.06562437987498679
1403638144045096960,40.170431,225.2871191474328,9.144701125,0.196133,-4.086104166666667,0.0006981317007977319,0.014660765716752367,0.06562437987498679
1403638144095097088,49.934626,224.63010220650975,8.891362666666666,-0.17978858333333333,-3.930832208333333,0.0041887902047863905,0.013962634015954637,0.08237954069413235
1403638144145096960,50.290346,224.69723703739277,8.97308475,0.04903325,-3.930832208333333,0.010471975511965976,0.028623399732707,0.07539822368615504
1403638144195097088,60.918331,225.16951392179192,9.022118,0.318716125,-3.881798958333333,-0.006981317007977318,0.019547687622336492,0.07888888219014369
1403638144245096960,38.954735,225.46347415461076,9.022118,0.318716125,-3.881798958333333,-0.006981317007977318,0.019547687622336492,0.07888888219014369
1403638144295097088,63.569784,225.63835238111588,8.588990958333333,-0.008172208333333333,-3.7673880416666665,-0.017453292519943295,0.030019663134302467,0.07749261878854824
1403638144345096960,48.676014,224.8832682280538,8.997601374999999,-0.10623870833333333,-3.955348833333333,-0.0153588974175501,0.013962634015954637,0.07888888219014369
1403638144395097088,38.516045,225.2441327201091,8.997601374999999,-0.10623870833333333,-3.955348833333333,-0.0153588974175501,0.013962634015954637,0.07888888219014369
1403638144445096960,50.279855,225.61481560363976,8.7279185,-0.196133,-3.702010375,-0.0006981317007977319,0.023038346126325153,0.07539822368615504
1403638144495097088,49.551964,224.60897916320368,9.218250999999999,0.13892754166666665,-4.094276375,0.0153588974175501,0.019547687622336492,0.07190756518216637
1403638144545096960,71.928263,224.46053465580385,8.932223708333334,0.3023717083333333,-4.0125542916666666,-0.0020943951023931952,0.02024581932313422,0.07539822368615504
1403638144595097088,40.486097,225.24075056495207,8.858673833333333,-0.016344416666666667,-3.9962098749999995,-0.006981317007977318,0.016057029118347832,0.08307767239493008
1403638144645096960,48.311949,224.55486371724717,8.744262916666667,-0.122583125,-3.8245934999999998,-0.01117010721276371,0.02234021442552742,0.08936085770210968
1403638144695097088,39.305687,224.75488522332117,8.744262916666667,-0.122583125,-3.8245934999999998,-0.01117010721276371,0.02234021442552742,0.08936085770210968
1403638144745096960,60.646295,223.34914102765674,8.907707083333333,-0.122583125,-3.8245934999999998,0.0006981317007977319,0.025132741228718346,0.10611601852125524
1403638144795097088,39.563656,224.05715479170615,8.907707083333333,-0.122583125,-3.8245934999999998,0.0006981317007977319,0.025132741228718346,0.10611601852125524
1403638144845096960,59.889794,224.73925340038366,9.087495666666666,-0.24516625,-4.037070916666667,0.008377580409572781,0.020943951023931952,0.09634217471008698
1403638144895097088,40.032625,224.44872243744322,9.087495666666666,-0.24516625,-4.037070916666667,0.008377580409572781,0.020943951023931952,0.09634217471008698
1403638144945096960,49.732685,224.58310308087732,9.177389958333332,0.26151066666666667,-4.126965208333333,0.013962634015954637,0.032812189937493394,0.09005898940290741
1403638144995097088,60.629606,225.82386091728205,9.177389958333332,-0.0980665,-4.053415333333333,0.0041887902047863905,0.041887902047863905,0.09285151620609833
1403638145045096960,39.207936,223.716234857895,9.177389958333332,-0.0980665,-4.053415333333333,0.0041887902047863905,0.041887902047863905,0.09285151620609833
1403638145095097088,50.404548,223.82170588370394,9.128356708333332,-0.20430520833333332,-4.135137416666667,-0.006981317007977318,-0.003490658503988659,0.05445427266222308
1403638145145096960,60.100079,224.7233589121631,8.87501825,0.06537766666666667,-3.947176625,0.0,0.013264502315156905,0.07400196028455958
1403638145195097088,39.811611,225.42940977575572,8.87501825,0.06537766666666667,-3.947176625,0.0,0.013264502315156905,0.07400196028455958
1403638145245096960,49.496651,223.67539775678975,9.1201845,-0.14709974999999997,-4.143309625,0.009773843811168246,0.02652900463031381,0.1054178868204575
1403638145295097088,59.490442,224.83269453903034,8.97308475,-0.08989429166666667,-4.0125542916666666,-0.006283185307179587,0.02024581932313422,0.06422811647339133
1403638145345096960,49.66712,224.09163104934805,9.161045541666667,0.07354987499999999,-4.086104166666667,0.010471975511965976,0.025132741228718346,0.0879645943005142
1403638145395097088,41.099548,224.2931470936689,9.161045541666667,0.07354987499999999,-4.086104166666667,0.010471975511965976,0.025132741228718346,0.0879645943005142
1403638145445096960,59.53908,224.13958683058237,8.817812791666666,0.7191543333333333,-4.135137416666667,-0.016057029118347832,0.0,0.0942477796076938
1403638145495097088,50.019264,224.34633418503634,9.022118,0.45764366666666667,-4.069759749999999,-0.021642082724729686,0.039793506945470715,0.059341194567807204
1403638145545096960,40.206194,223.35919254346538,9.022118,0.45764366666666667,-4.069759749999999,-0.021642082724729686,0.039793506945470715,0.059341194567807204
1403638145595097088,49.796343,223.72704574327082,8.67888525,0.32688833333333334,-3.955348833333333,-0.0027925268031909274,0.014660765716752367,0.08307767239493008
1403638145645096960,50.216675,225.02166106527653,8.38468575,0.6292600416666666,-3.6856659583333333,-0.00767944870877505,0.005585053606381855,0.10821041362364843
1403638145695097088,49.984693,224.62862925860892,9.414383999999998,0.32688833333333334,-4.36395925,-0.02234021442552742,0.04049163864626844,0.09494591130849153
1403638145745096960,60.001612,224.86374214416813,9.112012291666666,-0.40861041666666664,-3.742871416666666,-0.01117010721276371,0.05864306286700947,0.06841690667817772
1403638145795097088,40.173769,224.89277281072376,8.5317855,0.6864655000000001,-3.693838166666666,-0.019547687622336492,-0.005585053606381855,0.060039326268604934
1403638145845096960,49.734116,224.77876303365846,9.357178541666666,-0.13075533333333333,-4.225031708333333,-0.016057029118347832,0.050963614158234416,0.05585053606381855
1403638145895097088,49.895048,224.90881452920473,9.496106083333332,-0.0980665,-4.404820291666666,0.0020943951023931952,0.014660765716752367,0.05585053606381855
1403638145945096960,49.410104,224.16027326133425,8.262102624999999,0.269682875,-3.4977051666666665,0.0041887902047863905,0.006283185307179587,0.08098327729253688
1403638145995097088,50.451041,224.40595255692725,9.324489708333333,0.13892754166666665,-4.355787041666666,-0.009773843811168246,0.024434609527920613,0.08377580409572781
1403638146045096960,49.512386,223.95057771504568,9.136528916666666,0.16344416666666667,-4.2822371666666665,-0.0020943951023931952,0.02722713633111154,0.09843656981248018
1403638146095097088,50.613165,224.29052943086776,8.687057458333333,0.44129925,-3.9962098749999995,-0.01884955592153876,0.012566370614359173,0.09494591130849153
1403638146145096960,49.846172,224.32804895296906,9.07115125,-0.3023717083333333,-4.16782625,-0.013962634015954637,0.013264502315156905,0.08168140899333462
1403638146195097088,50.367832,224.79100112462976,9.504278291666665,-0.367749375,-3.702010375,-0.008377580409572781,0.0041887902047863905,0.07888888219014369
1403638146245096960,50.006628,224.80773654998183,8.834157208333334,0.392266,-3.759215833333333,0.0020943951023931952,0.013962634015954637,0.10471975511965977
1403638146295097088,49.927235,225.33782552006582,8.204897166666667,0.465815875,-3.751043625,0.006283185307179587,0.056548667764616284,0.07888888219014369
1403638146345096960,49.851418,224.20349556760152,8.981256958333333,0.08172208333333333,-4.584608875,-0.009773843811168246,0.033510321638291124,0.05026548245743669
1403638146395097088,50.314903,221.22872373385314,9.144701125,-0.0980665,-4.511059,-0.009773843811168246,0.039793506945470715,0.05864306286700947
1403638146445096960,59.779167,219.95165704814957,9.504278291666665,0.3023717083333333,-3.587599458333333,0.008377580409572781,-0.04328416544945937,0.08377580409572781
1403638146495097088,39.917946,220.6620503236859,9.504278291666665,0.3023717083333333,-3.587599458333333,0.008377580409572781,-0.04328416544945937,0.08377580409572781
1403638146545096960,49.894333,219.0092394147568,10.452254458333334,-0.2860272916666666,-4.388475875,0.009773843811168246,0.06213372137099814,0.09285151620609833
1403638146595097088,60.423612,223.59846840605894,8.768779541666666,0.7191543333333333,-4.347614833333333,0.003490658503988659,-0.04817108735504349,0.07190756518216637
1403638146645096960,40.003062,218.39239892422634,8.768779541666666,0.7191543333333333,-4.347614833333333,0.003490658503988659,-0.04817108735504349,0.07190756518216637
1403638146695097088,59.987545,216.50022446394794,9.013945791666666,0.44129925,-3.5222217916666665,-0.0006981317007977319,-0.10890854532444616,0.06911503837897544
1403638146745096960,40.172815,208.2131450576978,9.013945791666666,0.44129925,-3.5222217916666665,-0.0006981317007977319,-0.10890854532444616,0.06911503837897544
1403638146795097088,50.013065,215.658472131833,9.095667875,-0.392266,-3.6611493333333334,-0.0153588974175501,0.16196655458507375,0.06702064327658225
1403638146845096960,54.461003,216.41510778868164,8.9240515,0.661948875,-4.323098208333334,-0.0013962634015954637,-0.08307767239493008,0.10471975511965977
1403638146895097088,57.383299,222.23933930764233,10.632043041666666,-0.809048625,-4.543747833333333,-0.013962634015954637,0.03839724354387525,0.08377580409572781
1403638146945096960,37.725687,219.01578779080222,10.632043041666666,-0.809048625,-4.543747833333333,-0.013962634015954637,0.03839724354387525,0.08377580409572781
1403638146995097088,60.260534,220.73478341314382,8.499096666666667,0.35957716666666667,-3.2852277500000002,0.032114058236695664,0.03839724354387525,0.06562437987498679
1403638147045096960,40.00926,219.96740468696922,8.499096666666667,0.35957716666666667,-3.2852277500000002,0.032114058236695664,0.03839724354387525,0.06562437987498679
1403638147095097088,60.075283,220.60119333348092,9.5124505,0.032688833333333334,-4.519231208333333,-0.0013962634015954637,-0.05375614096142535,0.09005898940290741
1403638147145096960,40.034771,219.1919319333579,9.5124505,0.032688833333333334,-4.519231208333333,-0.0013962634015954637,-0.05375614096142535,0.09005898940290741
1403638147195097088,49.962282,220.66278248004213,7.84532,0.8008764166666666,-4.257720541666666,0.020943951023931952,0.06213372137099814,0.060039326268604934
1403638147245096960,49.640179,219.28398983435542,9.773961166666666,0.3759215833333333,-4.020726499999999,0.012566370614359173,0.04677482395344803,0.09075712110370514
1403638147295097088,49.879789,214.97925761367756,7.878008833333333,0.48216029166666663,-3.5957716666666664,0.006981317007977318,-0.05305800926062762,0.09704030641088471
1403638147345096960,49.981118,219.90550464127986,6.946377083333333,0.40861041666666664,-2.8602729166666667,-0.017453292519943295,0.11379546723003027,0.05794493116621174
1403638147395097088,50.377845,218.9740331196741,9.561483749999999,0.220649625,-4.453853541666667,0.016057029118347832,0.031415926535897934,0.08307767239493008
1403638147445096960,59.611082,215.7170844319032,6.603144333333333,0.4903325,-2.0920853333333334,0.02722713633111154,0.09215338450530061,0.0879645943005142
1403638147495097088,40.355206,220.46314809564046,6.603144333333333,0.4903325,-2.0920853333333334,0.02722713633111154,0.09215338450530061,0.0879645943005142
1403638147545096960,60.30798,214.02940716489192,6.03108975,0.08172208333333333,-2.3290793749999996,-0.0013962634015954637,-0.04468042885105484,0.11519173063162574
1403638147595097088,39.314031,219.97713659696052,6.03108975,0.08172208333333333,-2.3290793749999996,-0.0013962634015954637,-0.04468042885105484,0.11519173063162574
1403638147645096960,60.325146,220.43337459899803,7.591981541666666,0.416782625,-3.6366327083333334,0.029321531433504733,0.0635299847725936,0.04677482395344803
1403638147695097088,40.114641,215.2832905121333,7.591981541666666,0.416782625,-3.6366327083333334,0.029321531433504733,0.0635299847725936,0.04677482395344803
1403638147745096960,49.753428,179.38924167043422,8.123175083333333,0.7191543333333333,-3.113611375,0.0153588974175501,0.11030480872604163,0.04258603374866164
1403638147795097088,63.192606,132.94690548138252,8.77695175,-0.465815875,-2.6641399166666666,-0.10122909661567112,0.19338248112097173,0.04258603374866164
1403638147845096960,37.662267,113.43768000013131,8.77695175,-0.465815875,-2.6641399166666666,-0.10122909661567112,0.19338248112097173,0.04258603374866164
1403638147895097088,50.242186,104.17379851126778,8.932223708333334,-0.661948875,-3.0890947499999997,-0.08377580409572781,0.31974431896536115,0.08517206749732328
1403638147945096960,49.66402,121.0684934731771,10.967103583333333,-0.9071151249999999,-4.584608875,-0.06422811647339133,0.22689280275926282,0.1270599695451872
1403638147995097088,59.9854,129.9223934758539,7.314126458333333,0.4985047083333333,-2.3535959999999996,-0.08936085770210968,0.2555162024919699,-0.02024581932313422
1403638148045096960,39.628744,124.42184596965684,7.314126458333333,0.4985047083333333,-2.3535959999999996,-0.08936085770210968,0.2555162024919699,-0.02024581932313422
1403638148095097088,50.221681,140.71914516795312,11.71894675,-0.14709974999999997,-4.2168595,0.039095375244672985,0.12007865253720987,0.13334315485236678
1403638148145096960,59.634686,169.51694640679648,10.068160666666666,0.032688833333333334,-3.693838166666666,0.023736477827122883,0.0747000919853573,0.012566370614359173
1403638148195097088,51.374197,220.18071129359052,12.748645,-0.06537766666666667,-3.6448049166666663,0.06213372137099814,-0.0020943951023931952,0.12985249634837812
1403638148245096960,48.323631,158.71887051196043,8.817812791666666,0.8662540833333333,-3.9144877916666663,0.06702064327658225,0.0013962634015954637,0.023736477827122883
1403638148295097088,39.85858,196.895154582969,8.817812791666666,0.8662540833333333,-3.9144877916666663,0.06702064327658225,0.0013962634015954637,0.023736477827122883
1403638148345096960,50.50087,226.40212897474225,9.757616749999999,-0.11441091666666667,-3.2035056666666666,0.059341194567807204,0.04956735075663895,-0.05445427266222308
1403638148395097088,50.071239,281.24406990388593,8.564474333333333,0.269682875,-3.8245934999999998,0.056548667764616284,-0.02583087292951608,0.10821041362364843
1403638148445096960,49.737215,301.8237997048933,7.722736874999999,0.3759215833333333,-2.7867230416666664,0.05305800926062762,-0.014660765716752367,0.04258603374866164
1403638148495097088,49.790859,310.88014587107625,5.34462425,-1.871435708333333,-3.260711125,-0.009075712110370514,-0.26249751949994715,-0.009075712110370514
1403638148545096960,60.973168,351.4594812886676,7.567464916666665,0.6782932916666666,-2.623278875,0.060039326268604934,-0.05235987755982988,0.033510321638291124
1403638148595097088,38.931369,367.8681236319971,7.567464916666665,0.6782932916666666,-2.623278875,0.060039326268604934,-0.05235987755982988,0.033510321638291124
1403638148645096960,50.758362,365.3194212239768,7.240576583333333,0.35140495833333335,-3.268883333333333,0.0153588974175501,-0.07330382858376185,0.039095375244672985
1403638148695097088,59.789896,382.40466790335074,8.482752249999999,0.32688833333333334,-3.751043625,0.0307177948351002,-0.11100294042683936,0.06492624817418906
1403638148745096960,48.933029,391.4616566267581,10.288810291666666,-0.2533384583333333,-3.930832208333333,0.06562437987498679,-0.06283185307179587,0.04468042885105484
1403638148795097088,40.716887,421.32871648368354,10.288810291666666,-0.2533384583333333,-3.930832208333333,0.06562437987498679,-0.06283185307179587,0.04468042885105484
1403638148845096960,59.880257,387.354414443421,10.125366125,0.13075533333333333,-3.751043625,0.03769911184307752,0.0767944870877505,0.12147491593880534
1403638148895097088,39.648294,397.9427465256348,10.125366125,0.13075533333333333,-3.751043625,0.03769911184307752,0.0767944870877505,0.12147491593880534
1403638148945096960,50.694227,343.9095213316029,11.106031125,-0.17161637500000002,-4.1024485833333335,0.05166174585903216,0.024434609527920613,0.1054178868204575
1403638148995097088,49.708844,314.84914811695717,11.620880249999999,0.3350605416666666,-3.9390044166666667,0.011868238913561441,0.0153588974175501,0.06422811647339133
1403638149045096960,49.308061,349.23218121743275,11.016136833333332,-0.980665,-3.0645781249999997,0.02234021442552742,0.10192722831646883,0.02652900463031381
1403638149095097088,49.350739,331.0732293166987,11.114203333333332,-0.6210878333333334,-2.4516625,0.016057029118347832,0.1291543646475804,0.041887902047863905
1403638149145096960,72.382927,806.2036605735954,8.907707083333333,0.057205458333333334,-3.9962098749999995,0.032812189937493394,-0.0006981317007977319,0.0747000919853573
1403638149195097088,40.714502,717.6366927416049,7.820803375,0.43312704166666666,-2.8194118749999997,-0.031415926535897934,0.09704030641088471,0.04956735075663895
1403638149245096960,38.412332,689.0811990056351,7.820803375,0.43312704166666666,-2.8194118749999997,-0.031415926535897934,0.09704030641088471,0.04956735075663895
1403638149295097088,49.699545,1213.644483067125,7.632842583333333,-0.8253930416666666,-3.7673880416666665,0.0614355896702004,-0.01117010721276371,0.16545721308906244
1403638149345096960,59.997082,1199.3038031855872,8.351996916666666,0.13892754166666665,-2.6477955,-0.05235987755982988,0.014660765716752367,0.06562437987498679
1403638149395097088,40.373325,1196.6116464729594,8.351996916666666,0.13892754166666665,-2.6477955,-0.05235987755982988,0.014660765716752367,0.06562437987498679
1403638149445096960,59.11994,1259.681834046603,7.060788,0.4494714583333333,-2.655967708333333,-0.01815142422074103,0.012566370614359173,0.023736477827122883
1403638149495097088,50.811053,1147.6690656471435,7.771770125,0.3840937916666667,-3.2280222916666665,-0.02234021442552742,0.04258603374866164,0.06562437987498679
1403638149545096960,39.935588,1253.9573375131838,7.771770125,0.3840937916666667,-3.2280222916666665,-0.02234021442552742,0.04258603374866164,0.06562437987498679
1403638149595097088,50.475598,1248.202767722642,8.172208333333334,1.054214875,-2.9011339583333333,-0.012566370614359173,0.041887902047863905,-0.02024581932313422
1403638149645096960,49.838066,1176.333624636411,9.013945791666666,-0.9888372083333332,-3.342433208333333,0.05585053606381855,-0.046076692252650306,0.01117010721276371
1403638149695097088,50.093651,1149.75229616106,8.809640583333332,-0.4494714583333333,-3.293399958333333,0.13543754995475996,0.07330382858376185,0.04468042885105484
1403638149745096960,60.120582,1192.5806632517372,9.438900625,0.269682875,-3.898143375,0.14870205226991687,-0.025132741228718346,0.03769911184307752
1403638149795097088,39.805174,1081.9467099379783,9.438900625,0.269682875,-3.898143375,0.14870205226991687,-0.025132741228718346,0.03769911184307752
1403638149845096960,50.084591,1160.0237019528201,7.518431666666666,0.057205458333333334,-3.955348833333333,0.07260569688296412,0.023038346126325153,0.04258603374866164
1403638149895097088,49.716711,1174.413571374303,9.438900625,-1.22583125,-2.999200458333333,0.09005898940290741,0.059341194567807204,0.11868238913561441
1403638149945096960,59.514761,1110.99868273416,7.869836625,-0.07354987499999999,-3.268883333333333,-0.005585053606381855,-0.039793506945470715,0.03420845333908886
1403638149995097088,49.897432,1198.9356257010634,9.308145291666667,-0.06537766666666667,-2.557901208333333,-0.0153588974175501,0.0747000919853573,-0.059341194567807204
1403638150045096960,40.401221,1148.3588861639275,9.308145291666667,-0.06537766666666667,-2.557901208333333,-0.0153588974175501,0.0747000919853573,-0.059341194567807204
1403638150095097088,59.513807,1127.863631281878,8.441891208333333,-0.35957716666666667,-3.751043625,-0.041887902047863905,0.039095375244672985,-0.10053096491487339
1403638150145096960,40.264607,1159.8291290425884,8.441891208333333,-0.35957716666666667,-3.751043625,-0.041887902047863905,0.039095375244672985,-0.10053096491487339
1403638150195097088,50.220251,1097.8999780097529,8.77695175,-0.35140495833333335,-3.5222217916666665,-0.057246799465414,-0.03769911184307752,-0.12007865253720987
1403638150245096960,49.804687,1041.8850938633498,9.553311541666666,-0.04086104166666667,-2.2555295,-0.06283185307179587,-0.01884955592153876,-0.07051130178057091
1403638150295097088,60.084343,977.172127017625,7.79628675,0.7681875833333334,-3.726527,0.020943951023931952,0.005585053606381855,0.016755160819145562
1403638150345096960,39.713144,890.1134499811157,7.79628675,0.7681875833333334,-3.726527,0.020943951023931952,0.005585053606381855,0.016755160819145562
1403638150395097088,50.219298,667.2700058229693,8.466407833333333,-0.2778550833333333,-3.8409379166666664,0.039793506945470715,-0.1731366617978375,0.1780235837034216
1403638150445096960,50.261736,766.9353045688988,10.664731875,-0.18796079166666665,-3.0972669583333334,0.21781709064889232,-0.17941984710501704,0.24783675378319478
1403638150495097088,49.705028,693.6182150089342,11.408402833333332,0.318716125,-4.2822371666666665,0.2059488517353309,-0.12845623294678266,0.23806290997202653
1403638150545096960,49.401999,899.8245330024928,8.564474333333333,-0.9234595416666666,-3.0400614999999998,0.20943951023931953,-0.21781709064889232,0.06702064327658225
1403638150595097088,50.712585,968.9222489418653,8.376513541666666,0.661948875,-3.219850083333333,0.1996656664281513,-0.02652900463031381,0.047472955654245766
1403638150645096960,49.83449,990.1486439953633,10.746453958333333,-0.3350605416666666,-4.576436666666666,0.17453292519943295,-0.019547687622336492,0.08447393579652555
1403638150695097088,59.594154,1019.5246084720366,9.013945791666666,0.8744262916666666,-3.366949833333333,0.11938052083641214,0.0942477796076938,0.017453292519943295
1403638150745096960,40.291787,911.0230854325961,9.013945791666666,0.8744262916666666,-3.366949833333333,0.11938052083641214,0.0942477796076938,0.017453292519943295
1403638150795097088,50.279855,847.3356515363088,10.484943291666665,-0.032688833333333334,-2.574245625,0.13334315485236678,0.13753194505715316,-0.03420845333908886
1403638150845096960,59.278727,795.3523332872337,9.684066875,0.6292600416666666,-4.543747833333333,0.12636183784438945,0.11798425743481668,0.02234021442552742
1403638150895097088,40.719032,780.4430938765526,9.684066875,0.6292600416666666,-4.543747833333333,0.12636183784438945,0.11798425743481668,0.02234021442552742
1403638150945096960,49.798966,705.652926634637,8.499096666666667,-0.9970094166666666,-2.0430520833333334,0.15009831567151233,0.15987215948268058,-0.07330382858376185
1403638150995097088,49.996376,671.0944266331142,10.002782999999999,-0.24516625,-3.3506054166666663,0.19477874452256716,0.1850049007113989,0.041887902047863905
1403638151045096960,49.742698,817.4901443962365,8.196724958333332,0.8253930416666666,-4.298581583333333,0.21851522234969004,0.11728612573401893,-0.031415926535897934
1403638151095097088,50.38023,631.0926593035,7.673703624999999,-0.10623870833333333,-2.3535959999999996,0.2617993877991494,0.1689478715930511,-0.0879645943005142
1403638151145096960,49.497128,576.0247298064643,8.245758208333333,-0.22882183333333334,-2.459834708333333,0.3246312408709453,0.11030480872604163,-0.17383479349863523
1403638151195097088,50.570965,585.5118928750258,8.597163166666666,0.21247741666666667,-4.314926,0.364424747816416,-0.027925268031909273,-0.07888888219014369
1403638151245096960,59.573888,632.6591016809338,11.686257916666666,-0.35957716666666667,-3.955348833333333,0.5096361415823442,0.023038346126325153,-0.06422811647339133
1403638151295097088,40.333271,613.7163457685533,11.686257916666666,-0.35957716666666667,-3.955348833333333,0.5096361415823442,0.023038346126325153,-0.06422811647339133
1403638151345096960,49.470902,579.0140078444695,8.221241583333333,1.201314625,-2.5088679583333335,0.48939032225921,0.031415926535897934,-0.13124875974997358
1403638151395097088,59.952021,565.2980040092847,10.427737833333332,-0.15527195833333335,-2.8439284999999996,0.5201081170943103,0.014660765716752367,-0.05305800926062762
1403638151445096960,59.99279,523.7216406413862,9.602344791666665,0.0,-3.881798958333333,0.48939032225921,-0.050963614158234416,-0.11798425743481668
1403638151495097088,42.062521,584.2684312252385,9.643205833333333,0.20430520833333332,-4.396648083333333,0.4230678106834254,0.06911503837897544,-0.06562437987498679
1403638151545096960,48.883915,553.2500810033321,10.803659416666665,-0.024516625,-4.077931958333333,0.36861353802120245,-0.01117010721276371,-0.017453292519943295
1403638151595097088,49.49522,611.1768944546145,8.883190458333333,0.612915625,-3.113611375,0.35814156250923646,-0.009075712110370514,-0.03420845333908886
1403638151645096960,49.596548,601.1317317992003,11.506469333333333,-0.53936575,-4.56009225,0.21781709064889232,-0.05235987755982988,-0.05585053606381855
1403638151695097088,50.005198,585.8722356903502,8.18855275,-0.032688833333333334,-2.974683833333333,0.22270401255447644,-0.032114058236695664,-0.0747000919853573
1403638151745096960,40.435314,612.8383577126433,8.18855275,-0.032688833333333334,-2.974683833333333,0.22270401255447644,-0.032114058236695664,-0.0747000919853573
1403638151795097088,50.157785,623.3713227669479,9.07115125,-0.21247741666666667,-4.26589275,0.19757127132575814,0.041189770347066175,-0.04677482395344803
1403638151845096960,59.793234,618.0196894823682,9.553311541666666,-0.23699404166666665,-3.8654545416666664,0.11239920382843484,-0.0006981317007977319,-0.0013962634015954637
1403638151895097088,40.174007,660.7231703022326,9.553311541666666,-0.23699404166666665,-3.8654545416666664,0.11239920382843484,-0.0006981317007977319,-0.0013962634015954637
1403638151945096960,49.549342,712.8219214894954,10.681076291666665,0.8008764166666666,-4.094276375,0.05305800926062762,0.009773843811168246,-0.0041887902047863905
1403638151995097088,60.503482,706.1009432238689,8.932223708333334,-0.2778550833333333,-3.5222217916666665,0.04817108735504349,-0.06492624817418906,0.04258603374866164
1403638152045096960,39.719582,678.8219215162046,8.932223708333334,-0.2778550833333333,-3.5222217916666665,0.04817108735504349,-0.06492624817418906,0.04258603374866164
1403638152095097088,50.414801,701.7593741335162,9.422556208333333,0.016344416666666667,-3.505877375,-0.016755160819145562,0.021642082724729686,0.04328416544945937
1403638152145096960,49.306154,485.02703847217106,10.133538333333334,0.11441091666666667,-4.511059,-0.009075712110370514,-0.01884955592153876,0.05445427266222308
1403638152195097088,61.084032,464.60837185894724,8.319308083333333,0.6537766666666667,-3.8082490833333327,-0.032114058236695664,-0.017453292519943295,-0.08866272600131193
1403638152245096960,50.242662,475.9274240332193,9.994610791666668,-0.008172208333333333,-3.023717083333333,-0.06841690667817772,0.06632251157578452,-0.0153588974175501
1403638152295097088,38.354159,557.2467538691072,9.994610791666668,-0.008172208333333333,-3.023717083333333,-0.06841690667817772,0.06632251157578452,-0.0153588974175501
1403638152345096960,50.534963,532.6364086191917,7.967903124999999,-0.3840937916666667,-2.6641399166666666,-0.048869219055841226,-0.02583087292951608,0.010471975511965976
1403638152395097088,50.164938,548.6151190731016,8.38468575,0.04086104166666667,-3.563082833333333,-0.06283185307179587,0.057246799465414,0.024434609527920613
1403638152445096960,49.892903,483.0160038387999,7.910697666666666,-0.4004382083333333,-2.7703786249999998,-0.06213372137099814,0.019547687622336492,0.013264502315156905
1403638152495097088,51.013946,497.03139100400523,9.888372083333332,0.9071151249999999,-4.519231208333333,-0.04328416544945937,-0.009075712110370514,0.06213372137099814
1403638152545096960,56.434393,499.8759255126291,9.545139333333333,-0.6456044583333332,-3.2525389166666665,0.005585053606381855,-0.00767944870877505,0.09843656981248018
1403638152595097088,48.587561,440.5509574945091,7.150682291666666,0.8417374583333332,-3.546738416666667,0.016755160819145562,-0.08517206749732328,0.16964600329384885
1403638152645096960,42.407513,397.06150477555803,7.150682291666666,0.8417374583333332,-3.546738416666667,0.016755160819145562,-0.08517206749732328,0.16964600329384885
1403638152695097088,57.123899,394.83037998328217,11.22861425,0.4494714583333333,-3.211677875,0.08168140899333462,0.041887902047863905,0.12845623294678266
1403638152745096960,42.237282,238.73253540155727,11.22861425,0.4494714583333333,-3.211677875,0.08168140899333462,0.041887902047863905,0.12845623294678266
1403638152795097088,57.542324,234.76492044998668,9.872027666666666,0.6292600416666666,-3.3260887916666664,0.2059488517353309,0.10402162341886204,0.039793506945470715
1403638152845096960,42.932987,208.73058536333627,9.872027666666666,0.6292600416666666,-3.3260887916666664,0.2059488517353309,0.10402162341886204,0.039793506945470715
1403638152895097088,49.492121,248.4863870843208,10.991620208333332,0.0980665,-3.751043625,0.27296949501191314,0.19338248112097173,0.13124875974997358
1403638152945096960,50.449371,275.1504038579106,8.997601374999999,-0.008172208333333333,-4.453853541666667,0.2673844414055313,0.11239920382843484,-0.02722713633111154
1403638152995097088,49.481869,277.3321409373612,9.389867375,0.612915625,-3.6448049166666663,0.2792526803190927,0.06981317007977318,-0.030019663134302467
1403638153045096960,57.146788,249.14619225909507,8.38468575,0.2860272916666666,-3.1054391666666663,0.2617993877991494,-0.08517206749732328,-0.03560471674068433
1403638153095097088,42.809724,250.787800839057,8.38468575,0.2860272916666666,-3.1054391666666663,0.2617993877991494,-0.08517206749732328,-0.03560471674068433
1403638153145096960,49.948216,273.66897294714107,9.970094166666666,-0.13892754166666665,-3.857282333333333,0.2017600615305445,-0.05585053606381855,-0.013264502315156905
1403638153195097088,50.015211,292.678349300093,7.575637124999999,0.6946377083333333,-2.7213453750000003,0.20245819323134223,-0.0153588974175501,0.00767944870877505
1403638153245096960,50.025463,317.28203936713686,9.152873333333332,0.3350605416666666,-3.742871416666666,0.15289084247470325,-0.09354964790689606,0.032812189937493394
1403638153295097088,50.043821,288.2107614525098,8.825985,-0.016344416666666667,-3.6693215416666662,0.15289084247470325,0.032114058236695664,-0.1075122819228507
1403638153345096960,49.065352,276.5486919135332,8.139519499999999,0.13892754166666665,-3.113611375,0.20315632493213995,-0.04537856055185257,0.04049163864626844
1403638153395097088,50.838709,272.1317217874745,9.536967125,0.20430520833333332,-4.4129925,0.23596851486963336,0.016755160819145562,-0.046076692252650306
1403638153445096960,56.491136,245.01128312630075,10.452254458333334,0.0,-4.077931958333333,0.2234021442552742,-0.060039326268604934,-0.2366666465704311
1403638153495097088,43.213368,250.84343162893887,10.452254458333334,0.0,-4.077931958333333,0.2234021442552742,-0.060039326268604934,-0.2366666465704311
1403638153545096960,49.947738,237.63104034243474,8.441891208333333,0.08172208333333333,-3.5957716666666664,0.2282890661608583,0.009075712110370514,-0.2527236756887789
1403638153595097088,56.569577,243.05592110237768,7.869836625,0.3840937916666667,-3.742871416666666,0.3183480555637657,0.04468042885105484,-0.26249751949994715
1403638153645096960,43.363332,242.63316533292985,7.869836625,0.3840937916666667,-3.742871416666666,0.3183480555637657,0.04468042885105484,-0.26249751949994715
1403638153695097088,60.291768,221.3634767735258,8.327480291666665,-0.4739880833333333,-3.979865458333333,0.4153883619746504,0.1514945790731078,0.04049163864626844
1403638153745096960,40.569782,222.62084033286632,8.327480291666665,-0.4739880833333333,-3.979865458333333,0.4153883619746504,0.1514945790731078,0.04049163864626844
1403638153795097088,49.201727,197.94905318154716,6.382494708333334,0.6537766666666667,-2.1492907916666666,0.3755948550291797,0.021642082724729686,-0.027925268031909273
1403638153845096960,50.047636,209.77228529280464,8.180380541666665,0.0,-3.268883333333333,0.2988003679414292,0.05375614096142535,0.02234021442552742
1403638153895097088,49.890041,228.85474452275707,7.788114541666666,0.08172208333333333,-3.0645781249999997,0.2548180707911721,0.1850049007113989,0.0027925268031909274
1403638153945096960,49.932957,267.4642922258701,7.453054,0.8825985,-3.334261,0.2331759880664424,0.19687313962496036,0.12356931104119852
1403638153995097088,50.393104,262.8975754328265,9.275456458333332,0.3023717083333333,-3.4813607499999994,0.14521139376592823,0.05166174585903216,0.15428710587629874
1403638154045096960,49.822808,327.9147865738569,8.057797416666666,-0.24516625,-3.268883333333333,0.15638150097869194,0.06981317007977318,0.06073745796940267
1403638154095097088,56.326627,329.5900489312778,7.89435325,0.057205458333333334,-2.631451083333333,0.021642082724729686,0.15987215948268058,0.023038346126325153
1403638154145096960,49.875021,276.39043707212915,9.945577541666665,-0.7191543333333333,-3.6202882916666663,0.03420845333908886,0.14102260356114182,0.06422811647339133
1403638154195097088,43.763876,381.14892651068016,9.945577541666665,-0.7191543333333333,-3.6202882916666663,0.03420845333908886,0.14102260356114182,0.06422811647339133
1403638154245096960,56.377888,390.15462540933856,8.564474333333333,-0.9888372083333332,-3.170816833333333,-0.01884955592153876,0.09494591130849153,0.06981317007977318
1403638154295097088,43.51449,401.98917723337627,8.564474333333333,-0.9888372083333332,-3.170816833333333,-0.01884955592153876,0.09494591130849153,0.06981317007977318
1403638154345096960,49.986601,333.67588723890276,10.583009791666665,-0.7109821249999999,-2.549729,0.0,0.24015730507441974,0.06562437987498679
1403638154395097088,50.001144,352.7687158258385,8.123175083333333,0.980665,-2.974683833333333,-0.019547687622336492,0.2555162024919699,-0.03630284844148206
1403638154445096960,49.741745,535.6885289805195,8.77695175,0.04086104166666667,-3.77556025,-0.0013962634015954637,0.2673844414055313,0.18430676901060122
1403638154495097088,50.340415,517.87563930121,8.523613291666665,0.20430520833333332,-3.563082833333333,-0.02583087292951608,0.15498523757709648,0.0635299847725936
1403638154545096960,49.727439,741.3949109819392,9.814822208333332,0.24516625,-2.8684451249999996,-0.006283185307179587,-0.0041887902047863905,0.14730578886832138
1403638154595097088,50.121069,649.3344054438285,8.507268875,0.5883989999999999,-2.8602729166666667,0.05864306286700947,-0.01815142422074103,0.09704030641088471
1403638154645096960,50.09389,600.7639456715699,9.226423208333333,-0.26151066666666667,-2.7622064166666664,0.07888888219014369,-0.07051130178057091,-0.013962634015954637
1403638154695097088,49.921035,595.8281880943366,10.795487208333332,-0.4985047083333333,-4.85429175,0.14172073526193954,-0.15847589608108512,0.10402162341886204
1403638154745096960,49.743891,550.1201627652058,9.357178541666666,0.34323275000000003,-3.8491101249999997,0.15777776438028737,-0.21223203704251048,-0.02652900463031381
1403638154795097088,50.32897,602.5308036753543,10.092677291666664,0.07354987499999999,-4.404820291666666,0.12636183784438945,-0.08098327729253688,-0.016057029118347832
1403638154845096960,49.532414,569.5407992462915,9.487933875,0.196133,-4.151481833333333,0.1075122819228507,-0.06981317007977318,-0.05794493116621174
1403638154895097088,56.550502,656.3833114905311,11.980457416666667,-0.17978858333333333,-4.494714583333333,0.1319468914507713,0.03700098014227979,-0.1340412865531645
1403638154945096960,43.82968,646.8682692702045,11.980457416666667,-0.17978858333333333,-4.494714583333333,0.1319468914507713,0.03700098014227979,-0.1340412865531645
1403638154995097088,49.572706,678.6175917400673,9.594172583333334,-0.11441091666666667,-4.690847583333333,0.14032447186034408,0.021642082724729686,-0.04817108735504349
1403638155045096960,56.948423,696.9121954572272,10.051816249999998,0.220649625,-3.800076875,0.2617993877991494,0.048869219055841226,-0.04677482395344803
1403638155095097088,43.123484,667.7839769586727,10.051816249999998,0.220649625,-3.800076875,0.2617993877991494,0.048869219055841226,-0.04677482395344803
1403638155145096960,56.724548,608.7350287765672,6.317117041666666,0.3840937916666667,-2.1983240416666665,0.21362830044410594,-0.031415926535897934,0.07539822368615504
1403638155195097088,49.574137,627.2729968588906,9.242767624999999,0.43312704166666666,-3.8082490833333327,0.21223203704251048,0.1424188669627373,0.08656833089891874
1403638155245096960,43.847323,704.4507059185919,9.242767624999999,0.43312704166666666,-3.8082490833333327,0.21223203704251048,0.1424188669627373,0.08656833089891874
1403638155295097088,49.975872,749.0969464706302,7.837147791666666,-0.0980665,-3.2852277500000002,0.12985249634837812,0.21362830044410594,0.02652900463031381
1403638155345096960,49.719572,828.0270195421472,8.180380541666665,-0.04086104166666667,-2.803067458333333,0.1556833692778942,0.15987215948268058,-0.047472955654245766
1403638155395097088,50.550699,829.710202517717,8.123175083333333,0.34323275000000003,-3.162644625,0.1731366617978375,0.15987215948268058,0.03700098014227979
1403638155445096960,56.673288,803.0049332364237,7.232404375,0.5883989999999999,-3.391466458333333,0.21362830044410594,0.0991347015132779,-0.08307767239493008
1403638155495097088,49.454928,767.5073485252084,6.725727458333332,0.5883989999999999,-1.9776744166666664,0.3309144261781249,0.08307767239493008,0.1340412865531645
1403638155545096960,43.739319,710.6553005573593,6.725727458333332,0.5883989999999999,-1.9776744166666664,0.3309144261781249,0.08307767239493008,0.1340412865531645
1403638155595097088,56.626081,611.2041827043516,9.757616749999999,0.008172208333333333,-3.8164212916666664,0.4230678106834254,0.19757127132575814,0.16126842288427606
1403638155645096960,49.662113,583.6863835183646,8.466407833333333,0.42495483333333334,-3.334261,0.4063126498642799,0.19617500792416265,0.08726646259971647
1403638155695097088,43.817997,632.0791660079545,8.466407833333333,0.42495483333333334,-3.334261,0.4063126498642799,0.19617500792416265,0.08726646259971647
1403638155745096960,49.628496,618.6925468890283,8.490924458333334,-0.07354987499999999,-3.015544875,0.4153883619746504,-0.012566370614359173,0.08237954069413235
1403638155795097088,50.326348,605.8036193456227,9.872027666666666,-0.612915625,-4.36395925,0.4153883619746504,0.010471975511965976,-0.021642082724729686
1403638155845096960,49.997568,594.0941857875083,10.517632124999999,-0.122583125,-3.2361945,0.4754276882432553,0.023038346126325153,0.06562437987498679
1403638155895097088,49.973726,534.4204790710537,8.866846041666665,-0.11441091666666667,-2.4189736666666666,0.49427724416479407,-0.06492624817418906,-0.0614355896702004
1403638155945096960,49.786568,468.18655106768944,9.839338833333333,-0.2533384583333333,-4.903325,0.5215043804959056,-0.20734511513692636,-0.039095375244672985
1403638155995097088,54.880619,455.45913317659875,11.236786458333333,-0.07354987499999999,-4.699019791666666,0.510334273283142,-0.21013764194011728,-0.07749261878854824
1403638156045096960,48.335791,487.6107785199423,10.762798375,-0.9888372083333332,-4.249548333333333,0.5333726194094671,-0.3183480555637657,-0.09634217471008698
1403638156095097088,49.802541,576.7581704946234,9.398039583333333,0.7028099166666667,-3.309744375,0.5766567848589265,-0.22968532956245377,-0.08098327729253688
1403638156145096960,49.980402,639.5756093332662,10.762798375,0.3023717083333333,-3.6121160833333334,0.4726351614400644,-0.09704030641088471,-0.06702064327658225
1403638156195097088,50.227165,686.4908601479016,9.80665,-0.08172208333333333,-4.094276375,0.4824090052512327,-0.1228711793404008,0.09843656981248018
1403638156245096960,59.748173,674.2820572288464,9.545139333333333,-0.17161637500000002,-3.6121160833333334,0.4482005519121438,-0.1731366617978375,0.011868238913561441
1403638156295097088,40.517807,718.0378018487264,9.545139333333333,-0.17161637500000002,-3.6121160833333334,0.4482005519121438,-0.1731366617978375,0.011868238913561441
1403638156345096960,49.741507,679.1173524536116,8.793296166666666,0.9398039583333333,-2.705000958333333,0.3239331091701475,-0.17941984710501704,-0.05585053606381855
1403638156395097088,50.262213,812.1128843031754,8.948568125,0.35957716666666667,-4.936013833333333,0.2673844414055313,-0.056548667764616284,0.009075712110370514
1403638156445096960,49.860239,810.3821948854888,8.302963666666667,0.5720545833333333,-2.3535959999999996,0.2555162024919699,-0.153588974175501,-0.0439822971502571
1403638156495097088,49.932718,877.3431662488489,8.883190458333333,0.04903325,-2.6641399166666666,0.19408061282176942,-0.02722713633111154,0.04817108735504349
1403638156545096960,59.64756,870.6741219287276,6.758416291666666,-0.06537766666666667,-2.7376897916666665,0.10681415022205297,0.031415926535897934,0.13124875974997358
1403638156595097088,49.902916,974.8133478563218,7.534776083333333,-0.35140495833333335,-4.037070916666667,0.0614355896702004,-0.047472955654245766,0.11030480872604163
1403638156645096960,40.506601,1068.0833718526155,7.534776083333333,-0.35140495833333335,-4.037070916666667,0.0614355896702004,-0.047472955654245766,0.11030480872604163
1403638156695097088,50.024987,999.1347276968047,8.131347291666666,0.980665,-3.5549106249999998,0.08098327729253688,-0.047472955654245766,0.04677482395344803
1403638156745096960,49.470186,1053.7042798571713,9.013945791666666,1.299381125,-3.4323274999999995,-0.01117010721276371,0.0767944870877505,0.02652900463031381
1403638156795097088,60.00328,1056.5230518140552,9.757616749999999,0.7191543333333333,-3.702010375,0.017453292519943295,0.02234021442552742,0.048869219055841226
1403638156845096960,39.999485,1015.7000707019259,9.757616749999999,0.7191543333333333,-3.702010375,0.017453292519943295,0.02234021442552742,0.048869219055841226
1403638156895097088,50.495863,1051.4298532513574,8.000591958333333,0.7681875833333334,-3.2770555416666665,-0.09704030641088471,-0.04468042885105484,0.032114058236695664
1403638156945096960,50.045252,1027.1786681637016,8.450063416666666,-0.22882183333333334,-3.334261,-0.06283185307179587,-0.057246799465414,0.05305800926062762
1403638156995097088,49.87073,975.0220433920695,9.945577541666665,0.8580818749999999,-3.1463002083333333,-0.0041887902047863905,0.08377580409572781,0.0635299847725936
1403638157045096960,49.569368,1006.2996187311375,10.550320958333334,1.1604535833333331,-2.7131731666666665,-0.05166174585903216,0.011868238913561441,0.16824973989225336
1403638157095097088,50.514698,920.190324175395,10.019127416666667,0.2860272916666666,-3.898143375,-0.04537856055185257,-0.02722713633111154,0.14172073526193954
1403638157145096960,59.500218,914.0617795943236,9.005773583333333,0.06537766666666667,-2.4189736666666666,-0.07400196028455958,-0.07260569688296412,0.016057029118347832
1403638157195097088,39.741277,953.5083710703117,9.005773583333333,0.06537766666666667,-2.4189736666666666,-0.07400196028455958,-0.07260569688296412,0.016057029118347832
1403638157245096960,50.701618,881.8319178167716,9.438900625,0.7109821249999999,-3.268883333333333,-0.006981317007977318,0.08098327729253688,0.1361356816555577
1403638157295097088,50.051451,880.4038655353049,10.525804333333332,0.2860272916666666,-5.24655775,-0.0307177948351002,0.048869219055841226,0.11588986233242347
1403638157345096960,49.688101,766.4322173118717,7.1098212499999995,-0.15527195833333335,-1.9204689583333332,0.023038346126325153,0.09494591130849153,-0.06632251157578452
1403638157395097088,60.917616,780.0129191956835,9.201906583333333,0.3105439166666667,-3.87362675,0.01815142422074103,0.1556833692778942,-0.05794493116621174
1403638157445096960,48.702955,775.4656325116667,7.150682291666666,0.6456044583333332,-2.2718739166666664,0.07749261878854824,0.13683381335635544,-0.009075712110370514
1403638157495097088,40.54594,611.9960286774851,7.150682291666666,0.6456044583333332,-2.2718739166666664,0.07749261878854824,0.13683381335635544,-0.009075712110370514
1403638157545096960,49.872876,600.7965387394843,7.722736874999999,-0.196133,-3.4813607499999994,0.09704030641088471,0.04956735075663895,-0.023736477827122883
1403638157595097088,50.186634,617.0533051563956,9.773961166666666,-0.3023717083333333,-4.502886791666667,0.1647590813882647,0.19408061282176942,-0.06283185307179587
1403638157645096960,49.732685,591.0910950850231,11.81701325,-0.26151066666666667,-4.609125499999999,0.2548180707911721,0.24434609527920614,-0.1668534764906579
1403638157695097088,50.092459,554.5562794267294,8.646196416666667,0.416782625,-2.7948952499999997,0.23108159296404923,0.22549653935766736,-0.21293016874330817
1403638157745096960,49.742221,646.4055209977561,10.092677291666664,0.04086104166666667,-2.9011339583333333,0.24155356847601517,0.1096066770252439,-0.1626646862858715
1403638157795097088,50.540686,528.186263592157,9.16921775,0.26151066666666667,-2.5333845833333335,0.3490658503988659,0.13334315485236678,-0.20804324683772407
1403638157845096960,50.039291,586.9497686024249,10.182571583333333,0.6701210833333332,-3.92266,0.3860668305411457,0.006283185307179587,-0.07609635538695278
1403638157895097088,59.474946,522.9308867527413,9.692239083333332,0.7681875833333334,-3.138128,0.43563418129778464,0.020943951023931952,-0.056548667764616284
1403638157945096960,40.06648,586.8309617010948,9.692239083333332,0.7681875833333334,-3.138128,0.43563418129778464,0.020943951023931952,-0.056548667764616284
1403638157995097088,59.638024,632.2782241077268,7.379504124999999,0.5965712083333333,-3.015544875,0.40491638646268446,-0.12985249634837812,0.08237954069413235
1403638158045096960,49.859523,568.1776585503002,7.992419749999999,-0.08989429166666667,-3.170816833333333,0.3295181627765294,-0.05026548245743669,0.1605702911834783
1403638158095097088,40.367127,621.7471134855709,7.992419749999999,-0.08989429166666667,-3.170816833333333,0.3295181627765294,-0.05026548245743669,0.1605702911834783
1403638158145096960,50.082922,619.1010819998805,9.921060916666667,-0.11441091666666667,-2.672312125,0.30019663134302466,0.048869219055841226,0.14800392056911915
1403638158195097088,50.252199,698.5941113737763,7.763597916666666,0.9152873333333333,-3.023717083333333,0.26878070480712674,-0.014660765716752367,0.14172073526193954
1403638158245096960,53.790808,802.8683796370387,9.275456458333332,0.11441091666666667,-3.693838166666666,0.20036379812894903,0.05166174585903216,0.041189770347066175
1403638158295097088,48.295021,853.4294508317836,8.744262916666667,-0.3840937916666667,-3.162644625,0.08168140899333462,0.013962634015954637,-0.00767944870877505
1403638158345096960,47.587871,857.8091071519095,9.038462416666666,0.7028099166666667,-3.6039438749999997,0.05166174585903216,-0.03700098014227979,-0.02024581932313422
1403638158395097088,60.35161,920.4049099107156,8.204897166666667,0.8417374583333332,-2.8439284999999996,-0.027925268031909273,0.05794493116621174,-0.09843656981248018
1403638158445096960,49.779892,909.0252198303292,7.976075333333333,0.6292600416666666,-2.2963905416666663,-0.05026548245743669,0.09075712110370514,-0.09773843811168245
1403638158495097088,40.267945,931.2132631474085,7.976075333333333,0.6292600416666666,-2.2963905416666663,-0.05026548245743669,0.09075712110370514,-0.09773843811168245
1403638158545096960,59.735536,814.3689239889619,6.774760708333333,-0.24516625,-3.0809225416666663,-0.039793506945470715,-0.056548667764616284,0.03839724354387525
1403638158595097088,50.323963,868.2465123765398,11.661741291666667,-0.7109821249999999,-3.178989041666666,-0.011868238913561441,0.057246799465414,0.02722713633111154
1403638158645096960,39.878607,875.1841687100058,11.661741291666667,-0.7109821249999999,-3.178989041666666,-0.011868238913561441,0.057246799465414,0.02722713633111154
1403638158695097088,50.322295,854.4553968965688,8.719746291666667,-0.3105439166666667,-4.4211647083333325,-0.005585053606381855,-0.02234021442552742,0.12636183784438945
1403638158745096960,49.248933,886.9489492077163,9.283628666666665,-0.53936575,-3.9390044166666667,0.02722713633111154,0.033510321638291124,0.23876104167282428
1403638158795097088,50.388575,780.7603330517185,8.38468575,0.122583125,-4.143309625,0.0013962634015954637,-0.15638150097869194,0.22479840765686968
1403638158845096960,49.869776,783.8475799757339,9.872027666666666,-0.9888372083333332,-3.2525389166666665,0.006981317007977318,-0.10471975511965977,0.20874137853852182
1403638158895097088,59.711218,817.9262239984896,9.651378041666666,0.024516625,-3.7346992083333332,-0.033510321638291124,0.07400196028455958,0.24434609527920614
1403638158945096960,50.637722,782.3802333014658,10.6892485,-0.5883989999999999,-4.674503166666667,0.011868238913561441,-0.10821041362364843,0.07819075048934597
1403638158995097088,39.532899,682.0575372822541,10.6892485,-0.5883989999999999,-4.674503166666667,0.011868238913561441,-0.10821041362364843,0.07819075048934597
1403638159045096960,59.968472,701.2820838861142,9.528794916666666,-0.9724927916666666,-3.7837324583333327,-0.029321531433504733,-0.16824973989225336,0.124965574442794
1403638159095097088,40.178299,582.9062472433559,9.528794916666666,-0.9724927916666666,-3.7837324583333327,-0.029321531433504733,-0.16824973989225336,0.124965574442794
1403638159145096960,49.929857,554.7576644506493,9.896544291666666,0.2778550833333333,-2.8684451249999996,0.004886921905584123,-0.3274237676741362,0.17034413499464657
1403638159195097088,49.888373,743.6410611104825,10.411393416666668,-0.15527195833333335,-3.7919046666666665,-0.06771877497737998,-0.2722713633111154,0.021642082724729686
1403638159245096960,50.304412,609.9436650094352,8.77695175,-0.08172208333333333,-2.8439284999999996,-0.04677482395344803,-0.23457225146803787,0.047472955654245766
1403638159295097088,49.314261,430.19139354596257,8.580818749999999,-0.032688833333333334,-3.2443667083333327,-0.02652900463031381,0.1514945790731078,0.11030480872604163
1403638159345096960,60.331583,366.25283916242563,9.447072833333333,0.7763597916666666,-3.505877375,0.0013962634015954637,0.49427724416479407,0.143116998663535
1403638159395097088,40.295362,379.50213803367836,9.447072833333333,0.7763597916666666,-3.505877375,0.0013962634015954637,0.49427724416479407,0.143116998663535
1403638159445096960,59.870243,345.4068867484848,8.891362666666666,0.08172208333333333,-4.298581583333333,0.07539822368615504,0.5173155902911193,0.2527236756887789
1403638159495097088,40.075064,397.7179781184559,8.891362666666666,0.08172208333333333,-4.298581583333333,0.07539822368615504,0.5173155902911193,0.2527236756887789
1403638159545096960,49.77274,450.2807130781344,9.161045541666667,0.11441091666666667,-4.0615875416666665,0.08866272600131193,0.538957673015849,0.25132741228718347
1403638159595097088,50.504922,501.13190677732433,8.842329416666665,-0.17161637500000002,-3.759215833333333,0.13055062804917586,0.41748275707704363,0.44470989340815514
1403638159645096960,49.338103,540.8427886604543,10.6892485,-0.42495483333333334,-4.16782625,0.0767944870877505,0.29042278753185646,0.3385938748868999
1403638159695097088,50.795555,618.1667548914254,11.310336333333332,-0.3023717083333333,-2.459834708333333,0.07539822368615504,0.2059488517353309,0.2548180707911721
1403638159745096960,49.823522,716.8009696350204,10.427737833333332,0.4739880833333333,-2.778550833333333,0.09075712110370514,0.08517206749732328,0.24225170017681294
1403638159795097088,50.227404,732.3340816608824,10.435910041666666,-0.2778550833333333,-4.453853541666667,-0.03839724354387525,0.16336281798666924,-0.0006981317007977319
1403638159845096960,59.982062,749.4923379295944,9.398039583333333,0.43312704166666666,-3.1217835833333334,-0.1445132620651305,-0.039095375244672985,-0.29251718263424964
1403638159895097088,39.915561,632.5354780333166,9.398039583333333,0.43312704166666666,-3.1217835833333334,-0.1445132620651305,-0.039095375244672985,-0.29251718263424964
1403638159945096960,49.540281,652.3025513464047,8.065969625,-0.13075533333333333,-3.358777625,-0.039095375244672985,0.05585053606381855,-0.2303834612632515
1403638159995097088,60.306073,795.2707003015294,10.158054958333333,-1.1441091666666665,-3.979865458333333,-0.07120943348136866,-0.03630284844148206,-0.08866272600131193
1403638160045096960,39.71672,761.1185028118769,10.158054958333333,-1.1441091666666665,-3.979865458333333,-0.07120943348136866,-0.03630284844148206,-0.08866272600131193
1403638160095097088,50.456763,804.6253518812606,10.844520458333331,-0.367749375,-4.126965208333333,0.005585053606381855,-0.1270599695451872,-0.032114058236695664
1403638160145096960,49.510479,775.4679240917052,9.953749749999998,0.5557101666666666,-2.0512242916666668,-0.006981317007977318,-0.12217304763960307,0.02652900463031381
1403638160195097088,50.180196,621.5830951330139,11.146892166666666,0.196133,-3.8245934999999998,-0.005585053606381855,-0.35046211380046133,0.04258603374866164
1403638160245096960,49.424172,633.2681937333962,9.798477791666667,-0.8989429166666666,-3.702010375,-0.031415926535897934,-0.4726351614400644,0.02583087292951608
1403638160295097088,50.660372,657.0291292013088,9.332661916666666,0.057205458333333334,-3.7837324583333327,0.03560471674068433,-0.3679154063204046,0.04049163864626844
1403638160345096960,49.79062,783.7337439410534,11.212269833333332,0.15527195833333335,-4.985047083333333,0.0153588974175501,-0.249931148885588,0.031415926535897934
1403638160395097088,49.550534,782.9690142502369,9.381695166666667,0.0,-4.004382083333333,-0.011868238913561441,-0.1626646862858715,0.11030480872604163
1403638160445096960,50.27771,788.8818388928205,8.033280791666666,-0.10623870833333333,-2.582417833333333,-0.025132741228718346,-0.10192722831646883,0.06213372137099814
1403638160495097088,50.219774,765.7208343114354,9.692239083333332,-0.22882183333333334,-4.037070916666667,0.021642082724729686,-0.023736477827122883,0.09773843811168245
1403638160545096960,53.86734,739.3680696088688,8.28661925,-0.24516625,-2.0267076666666664,0.021642082724729686,-0.046076692252650306,0.07400196028455958
1403638160595097088,57.981014,740.419662648889,8.695229666666666,-0.5230213333333333,-3.18716125,0.0307177948351002,-0.06422811647339133,0.12077678423800758
1403638160645096960,38.49721,695.7878798630217,8.695229666666666,-0.5230213333333333,-3.18716125,0.0307177948351002,-0.06422811647339133,0.12077678423800758
1403638160695097088,49.810886,557.3381909168329,8.801468374999999,0.7273265416666667,-2.0021910416666664,-0.019547687622336492,0.05585053606381855,0.02234021442552742
1403638160745096960,59.54814,492.89990709909506,10.427737833333332,-0.32688833333333334,-2.9093061666666666,-0.009773843811168246,0.15847589608108512,0.2569124658935653
1403638160795097088,40.440559,455.99877353099305,10.427737833333332,-0.32688833333333334,-2.9093061666666666,-0.009773843811168246,0.15847589608108512,0.2569124658935653
1403638160845096960,49.711228,406.1884950623983,7.861664416666666,-0.18796079166666665,-2.3045627499999997,-0.011868238913561441,0.36582101121801147,0.2541199390903744
1403638160895097088,50.277233,416.0846043621335,7.493915041666666,-0.196133,-2.582417833333333,-0.10821041362364843,0.41050144006906625,0.3728023282259888
1403638160945096960,59.793949,402.43331394797104,8.572646541666666,0.7273265416666667,-2.378112625,-0.29042278753185646,0.21851522234969004,0.15777776438028737
1403638160995097088,40.080547,472.530630789997,8.572646541666666,0.7273265416666667,-2.378112625,-0.29042278753185646,0.21851522234969004,0.15777776438028737
1403638161045096960,49.788475,461.3853421068169,9.659550249999999,-0.612915625,-4.200515083333333,-0.2988003679414292,0.19617500792416265,0.23876104167282428
1403638161095097088,50.313234,529.6640999444436,8.956740333333332,0.057205458333333334,-3.5222217916666665,-0.35395277230445005,0.030019663134302467,0.2569124658935653
1403638161145096960,59.452773,507.72603054696907,7.216059958333333,-0.3023717083333333,-2.2228406666666665,-0.4384267081009756,0.011868238913561441,0.13823007675795088
1403638161195097088,40.486812,492.8337096035054,7.216059958333333,-0.3023717083333333,-2.2228406666666665,-0.4384267081009756,0.011868238913561441,0.13823007675795088
1403638161245096960,50.119877,480.7694636959231,9.945577541666665,0.612915625,-3.358777625,-0.4977679026687828,-0.0027925268031909274,0.17034413499464657
1403638161295097088,49.898624,482.3869992806611,9.095667875,-0.15527195833333335,-2.4680069166666665,-0.5619960191421741,-0.008377580409572781,0.24644049038159932
1403638161345096960,49.571276,507.05804668588644,10.656559666666666,0.7273265416666667,-4.968702666666667,-0.5452408583230285,-0.16824973989225336,0.21362830044410594
1403638161395097088,50.472975,414.8264434330848,6.161845083333333,0.4985047083333333,-2.0267076666666664,-0.499862297771176,-0.13543754995475996,0.19477874452256716
1403638161445096960,49.510479,444.43861367762076,9.422556208333333,0.0980665,-2.941995,-0.40282199136029123,-0.15079644737231007,0.24225170017681294
1403638161495097088,50.457239,506.4356320936906,9.275456458333332,-0.4739880833333333,-3.334261,-0.35674529910764097,-0.210835773640915,0.10192722831646883
1403638161545096960,49.742699,565.4081643277502,9.291800875,0.04086104166666667,-3.162644625,-0.3134611336581816,-0.15847589608108512,0.12566370614359174
1403638161595097088,50.11487,613.6041563746862,7.951558708333333,0.5965712083333333,-3.9635210416666666,-0.239459173373622,-0.032114058236695664,0.1982694030265558
1403638161645096960,60.471296,684.6859802858257,7.641014791666667,-0.196133,-2.5905900416666663,-0.16615534478986016,-0.07539822368615504,0.18779742751458986
1403638161695097088,39.332628,719.7931221628061,9.193734375,-0.6047434166666666,-3.7101825833333333,-0.11938052083641214,-0.04049163864626844,0.24155356847601517
1403638161745096960,50.117731,712.8393192018681,9.234595416666666,0.14709974999999997,-4.453853541666667,-0.0991347015132779,0.10332349171806432,0.20804324683772407
1403638161795097088,50.076485,619.9907421078941,8.548129916666667,0.3759215833333333,-3.260711125,-0.10192722831646883,0.09005898940290741,0.14381513036433274
1403638161845096960,49.957991,582.8086573509598,9.283628666666665,0.3350605416666666,-3.4323274999999995,-0.1864011641129944,0.1228711793404008,0.1424188669627373
1403638161895097088,50.0319,567.7386739439203,8.752435125,-0.40861041666666664,-2.574245625,-0.15428710587629874,0.2555162024919699,0.1626646862858715
1403638161945096960,49.890757,577.5349643755515,7.722736874999999,0.5557101666666666,-2.8847895416666667,-0.23177972466484695,0.023736477827122883,0.10681415022205297
1403638161995097088,50.252914,620.163867815251,8.703401874999999,-0.24516625,-3.0645781249999997,-0.18081611050661253,0.10332349171806432,0.1884955592153876
1403638162045096960,49.019814,749.0386204654757,10.239777041666667,0.06537766666666667,-4.020726499999999,-0.1340412865531645,0.05235987755982988,0.1864011641129944
1403638162095097088,51.852941,725.4344247233132,9.880199875,-0.269682875,-2.9093061666666666,-0.1556833692778942,0.013962634015954637,0.13543754995475996
1403638162145096960,49.828291,767.0951496079942,8.18855275,0.4739880833333333,-3.7919046666666665,-0.08587019919812101,-0.0041887902047863905,0.11938052083641214
1403638162195097088,49.870253,749.7338613885843,10.681076291666665,-0.35957716666666667,-4.151481833333333,-0.03420845333908886,-0.019547687622336492,0.22759093446006054
1403638162245096960,60.305118,788.8953639971353,9.896544291666666,-0.024516625,-2.459834708333333,-0.0635299847725936,-0.020943951023931952,0.08237954069413235
1403638162295097088,39.112568,781.3598043846038,9.896544291666666,-0.024516625,-2.459834708333333,-0.0635299847725936,-0.020943951023931952,0.08237954069413235
1403638162345096960,49.831629,745.2691227205867,8.613507583333332,0.43312704166666666,-3.955348833333333,0.013264502315156905,-0.05235987755982988,0.1954768762233649
1403638162395097088,60.538054,701.5997144724982,8.368341333333333,0.7028099166666667,-3.0890947499999997,-0.01117010721276371,0.15289084247470325,0.07260569688296412
1403638162445096960,39.480209,712.2675005424045,8.368341333333333,0.7028099166666667,-3.0890947499999997,-0.01117010721276371,0.15289084247470325,0.07260569688296412
1403638162495097088,61.211109,697.3846349570764,10.697420708333333,0.057205458333333334,-3.8491101249999997,-0.020943951023931952,0.06981317007977318,0.0006981317007977319
1403638162545096960,38.542986,671.8664317488862,10.697420708333333,0.057205458333333334,-3.8491101249999997,-0.020943951023931952,0.06981317007977318,0.0006981317007977319
1403638162595097088,50.647259,672.6522112995589,7.89435325,-0.40861041666666664,-3.930832208333333,-0.025132741228718346,-0.10821041362364843,0.016755160819145562
1403638162645096960,49.517631,713.9224747387874,8.270274833333334,-0.73549875,-4.020726499999999,-0.023038346126325153,0.011868238913561441,-0.08656833089891874
1403638162695097088,50.426484,748.412432359003,11.195925416666665,-0.3840937916666667,-4.028898708333333,-0.028623399732707,0.02583087292951608,-0.02652900463031381
1403638162745096960,60.182571,792.6007652704536,9.062979041666667,0.2533384583333333,-2.9338227916666666,0.014660765716752367,-0.07330382858376185,0.10471975511965977
1403638162795097088,50.169229,765.5261781544203,9.7085835,-0.6701210833333332,-3.015544875,-0.08726646259971647,-0.0635299847725936,0.14730578886832138
1403638162845096960,43.824196,712.6469384656871,9.7085835,-0.6701210833333332,-3.015544875,-0.08726646259971647,-0.0635299847725936,0.14730578886832138
1403638162895097088,47.55807,529.6923585627145,9.773961166666666,-0.661948875,-4.453853541666667,-0.06841690667817772,0.10192722831646883,0.24783675378319478
1403638162945096960,48.40517,487.8932199705234,9.586000375,-0.3350605416666666,-5.532585041666667,-0.019547687622336492,0.1605702911834783,0.3232349774693498
1403638162995097088,49.77107,426.02599214517653,8.825985,0.5066769166666666,-3.4404997083333333,-0.13055062804917586,0.314857397059777,0.16196655458507375
1403638163045096960,59.659243,491.3909585427383,6.186361708333333,0.4739880833333333,-3.293399958333333,-0.114493598930828,0.15917402778188286,0.16406094968746698
1403638163095097088,39.738894,539.8192504678964,6.186361708333333,0.4739880833333333,-3.293399958333333,-0.114493598930828,0.15917402778188286,0.16406094968746698
1403638163145096960,50.241708,642.7845386119724,7.89435325,-1.12776475,-3.800076875,-0.1759291886010284,0.04956735075663895,0.18360863730980345
1403638163195097088,50.401211,600.4263471033692,8.883190458333333,0.6782932916666666,-3.5549106249999998,-0.2199114857512855,-0.021642082724729686,0.10890854532444616
1403638163245096960,49.656391,586.1997513573681,8.695229666666666,-0.196133,-4.135137416666667,-0.30159289474462014,0.02583087292951608,0.0006981317007977319
1403638163295097088,50.729752,569.1410871353175,7.79628675,-0.7763597916666666,-3.309744375,-0.33161255787892263,-0.05585053606381855,0.03490658503988659
1403638163345096960,49.064636,569.4133100185775,7.984247541666667,0.06537766666666667,-3.6856659583333333,-0.3295181627765294,0.09145525280450287,0.04956735075663895
1403638163395097088,50.450564,587.9529982085962,7.89435325,0.14709974999999997,-3.0727503333333335,-0.40980330836826856,-0.02722713633111154,0.08936085770210968
1403638163445096960,49.542665,628.0130171547072,6.758416291666666,0.122583125,-1.96133,-0.3553490357060455,0.041887902047863905,0.12217304763960307
1403638163495097088,60.1511,651.5624699291027,9.602344791666665,-0.7273265416666667,-4.184170666666667,-0.2617993877991494,0.11379546723003027,0.16545721308906244
1403638163545096960,39.22391,679.6733356360974,9.602344791666665,-0.7273265416666667,-4.184170666666667,-0.2617993877991494,0.11379546723003027,0.16545721308906244
1403638163595097088,50.901412,701.6917264492452,11.097858916666665,0.35140495833333335,-3.0482337083333335,-0.14730578886832138,-0.1864011641129944,0.1864011641129944
1403638163645096960,59.6869,711.5355746493578,9.152873333333332,0.17978858333333333,-3.3832942499999996,-0.13334315485236678,0.033510321638291124,0.09005898940290741
1403638163695097088,50.661087,703.5118787989404,10.100849499999999,0.11441091666666667,-4.707191999999999,-0.11100294042683936,0.004886921905584123,0.1117010721276371
1403638163745096960,39.655924,743.5476834697887,10.100849499999999,0.11441091666666667,-4.707191999999999,-0.11100294042683936,0.004886921905584123,0.1117010721276371
1403638163795097088,62.821388,739.8902423875719,8.564474333333333,-0.26151066666666667,-3.0564059166666664,-0.05235987755982988,0.06213372137099814,0.15707963267948966
1403638163845096960,36.71813,889.3484704278235,8.564474333333333,-0.26151066666666667,-3.0564059166666664,-0.05235987755982988,0.06213372137099814,0.15707963267948966
1403638163895097088,50.543308,813.5242619445072,10.272465875,-0.9071151249999999,-3.6284604999999996,0.010471975511965976,0.12147491593880534,0.18779742751458986
1403638163945096960,53.971529,933.8513563774446,11.392058416666666,0.43312704166666666,-4.159654041666666,0.0020943951023931952,0.006981317007977318,0.09564404300928926
1403638163995097088,45.889139,908.954135630899,10.411393416666668,-0.6047434166666666,-3.571255041666667,0.028623399732707,-0.028623399732707,0.21851522234969004
1403638164045096960,59.521437,886.6926827808979,9.602344791666665,-0.22882183333333334,-2.631451083333333,0.041887902047863905,0.11379546723003027,0.15917402778188286
1403638164095097088,50.190926,825.6980775408297,11.081514499999999,-0.032688833333333334,-3.505877375,0.05864306286700947,0.06073745796940267,0.15638150097869194
1403638164145096960,39.738655,828.4124208287049,11.081514499999999,-0.032688833333333334,-3.505877375,0.05864306286700947,0.06073745796940267,0.15638150097869194
1403638164195097088,62.611341,737.6846818454985,10.231604833333332,-0.5883989999999999,-4.568264458333333,0.07958701389094143,0.12566370614359174,0.032812189937493394
1403638164245096960,37.753582,727.4140824766414,10.231604833333332,-0.5883989999999999,-4.568264458333333,0.07958701389094143,0.12566370614359174,0.032812189937493394
1403638164295097088,50.363302,704.1720033807785,8.499096666666667,0.29419949999999995,-3.1299557916666663,0.06422811647339133,0.0439822971502571,0.08656833089891874
1403638164345096960,49.273253,724.3614987277251,10.4931155,-0.29419949999999995,-4.4701979583333324,0.021642082724729686,0.07819075048934597,0.1096066770252439
1403638164395097088,60.161591,782.3601045007391,8.719746291666667,0.8417374583333332,-3.538566208333333,0.029321531433504733,0.06841690667817772,0.12077678423800758
