stamp,img_delta,blur,lin_acc.x,lin_acc.y,lin_acc.z,ang_vel.x,ang_vel.y,ang_vel.z
1403636858701666560,10.48398,570.6898242575243,9.26728425,-0.5965712083333333,-2.9338227916666666,-0.10192722831646883,-0.016755160819145562,0.09843656981248018
1403636858751666432,54.872752,572.5524676193394,9.912888708333332,-0.45764366666666667,-3.2280222916666665,-0.09564404300928926,-0.041189770347066175,0.06422811647339133
1403636858801666560,48.780202,559.1849668341267,9.953749749999998,-0.35957716666666667,-3.293399958333333,-0.03769911184307752,-0.023038346126325153,0.12566370614359174
1403636858851666432,46.875716,477.4161972137231,9.822994416666667,-0.34323275000000003,-3.1054391666666663,-0.07958701389094143,-0.029321531433504733,0.0635299847725936
1403636858901666560,49.77107,460.3538366354682,10.010955208333332,-0.04903325,-3.138128,-0.12636183784438945,-0.0153588974175501,0.07958701389094143
1403636858951666432,59.913874,453.66075815775974,9.773961166666666,-0.23699404166666665,-3.1299557916666663,-0.0991347015132779,-0.0027925268031909274,0.09145525280450287
1403636859001666560,39.821625,474.9922784684398,9.773961166666666,-0.23699404166666665,-3.1299557916666663,-0.0991347015132779,-0.0027925268031909274,0.09145525280450287
1403636859051666432,50.099134,535.9276376028478,8.768779541666666,-0.7518431666666666,-3.170816833333333,-0.10262536001726656,-0.0307177948351002,0.07051130178057091
1403636859101666560,55.107594,559.5363913009149,9.26728425,-0.4739880833333333,-3.0645781249999997,-0.0991347015132779,-0.07958701389094143,0.039793506945470715
1403636859151666432,54.599285,574.9605211125751,8.915879291666666,-1.1522813749999998,-3.2035056666666666,-0.041189770347066175,-0.0991347015132779,0.11239920382843484
1403636859201666560,40.13586,633.8333380979808,8.915879291666666,-1.1522813749999998,-3.2035056666666666,-0.041189770347066175,-0.0991347015132779,0.11239920382843484
1403636859251666432,54.89111,493.7792203443252,9.970094166666666,-0.6701210833333332,-3.4323274999999995,-0.11938052083641214,-0.06422811647339133,0.0767944870877505
1403636859301666560,45.405864,456.43366989243174,9.921060916666667,-0.8662540833333333,-3.7101825833333333,-0.13264502315156904,0.03700098014227979,0.09983283321407566
1403636859351666432,60.077429,435.8765178352887,10.632043041666666,-0.2533384583333333,-3.2361945,-0.10262536001726656,0.10122909661567112,0.07819075048934597
1403636859401666560,49.607515,444.4346029106259,9.773961166666666,-0.661948875,-3.342433208333333,-0.07120943348136866,-0.008377580409572781,0.10053096491487339
1403636859451666432,40.028811,525.0152292539232,9.773961166666666,-0.661948875,-3.342433208333333,-0.07120943348136866,-0.008377580409572781,0.10053096491487339
1403636859501666560,50.318241,531.7271468238263,10.059988458333333,-0.29419949999999995,-3.178989041666666,-0.0991347015132779,-0.114493598930828,0.047472955654245766
1403636859551666432,49.856424,488.6360688764701,9.970094166666666,-0.4739880833333333,-3.3506054166666663,-0.114493598930828,-0.12566370614359174,0.031415926535897934
1403636859601666560,49.763441,439.02069621283215,9.030290208333332,-0.367749375,-3.178989041666666,-0.18989182261698306,-0.00767944870877505,-0.0041887902047863905
1403636859651666432,62.537432,380.1771312491698,9.013945791666666,-0.5066769166666666,-3.1463002083333333,-0.143116998663535,0.19477874452256716,0.057246799465414
1403636859701666560,47.200918,364.422793850676,9.095667875,-0.07354987499999999,-3.2852277500000002,-0.15987215948268058,0.2673844414055313,-0.02234021442552742
1403636859751666432,40.638686,364.3705714189168,9.095667875,-0.07354987499999999,-3.2852277500000002,-0.15987215948268058,0.2673844414055313,-0.02234021442552742
1403636859801666560,49.873113,408.33536213252506,9.144701125,0.024516625,-3.2852277500000002,-0.15847589608108512,0.22689280275926282,-0.04537856055185257
1403636859851666432,50.154925,477.67145950777103,8.327480291666665,-0.2860272916666666,-3.0890947499999997,-0.1605702911834783,0.17732545200262387,-0.07958701389094143
1403636859901666560,49.964189,557.2942993311347,9.087495666666666,0.06537766666666667,-3.0890947499999997,-0.08377580409572781,0.11519173063162574,0.010471975511965976
1403636859951666432,49.896002,619.4381603155658,8.106830666666665,0.26151066666666667,-2.7867230416666664,-0.05235987755982988,0.08936085770210968,0.07609635538695278
1403636860001666560,49.991369,825.4924104080595,7.428537374999999,0.5883989999999999,-2.3290793749999996,-0.07260569688296412,0.03700098014227979,0.07120943348136866
1403636860051666432,49.85857,905.8482114822206,6.644005375,0.45764366666666667,-1.9286411666666665,-0.07749261878854824,-0.0153588974175501,0.08587019919812101
1403636860101666560,50.025463,863.888398053256,6.153672874999999,0.08172208333333333,-1.838746875,-0.06492624817418906,-0.07120943348136866,0.17872171540421936
1403636860151666432,56.344033,619.7892184410019,6.210878333333333,0.122583125,-1.985846625,-0.012566370614359173,-0.10821041362364843,0.1424188669627373
1403636860201666560,43.68782,449.9009255408733,6.210878333333333,-0.196133,-2.435318083333333,-0.003490658503988659,-0.14381513036433274,0.124965574442794
1403636860251666432,50.317288,363.73011600538706,6.954549291666666,-0.17978858333333333,-2.6477955,0.07051130178057091,-0.19198621771937624,0.19757127132575814
1403636860301666560,54.078817,308.17384488868436,8.180380541666665,0.18796079166666665,-2.9338227916666666,0.07051130178057091,-0.29251718263424964,0.20664698343612864
1403636860351666432,45.537233,271.6277836074396,8.294791458333332,-0.26151066666666667,-3.3260887916666664,-0.013962634015954637,-0.3832743037379548,0.15219271077390556
1403636860401666560,50.28081,255.8075160360195,9.079323458333333,-0.14709974999999997,-4.004382083333333,-0.013962634015954637,-0.4363323129985824,0.20525072003453312
1403636860451666432,55.51219,245.4521173280518,9.349006333333334,-0.34323275000000003,-3.7919046666666665,-0.027925268031909273,-0.457974395723312,0.16824973989225336
1403636860501666560,55.069446,236.75455618633507,10.100849499999999,-0.2533384583333333,-4.445681333333333,0.10611601852125524,-0.3895574890451343,0.19058995431778078
1403636860551666432,49.196005,242.92309133828712,10.019127416666667,-0.5311935416666667,-5.254729958333334,0.02652900463031381,-0.3274237676741362,0.1494001839707146
1403636860601666560,43.451548,254.9840224743028,10.019127416666667,-0.5311935416666667,-5.254729958333334,0.02652900463031381,-0.3274237676741362,0.1494001839707146
1403636860651666432,46.98348,301.58595633275036,9.937405333333334,-0.13075533333333333,-5.181180083333333,0.11030480872604163,-0.17662732030182612,0.1228711793404008
1403636860701666560,51.181555,378.7675281496376,10.574837583333332,-0.6210878333333334,-5.279246583333333,0.10332349171806432,-0.08237954069413235,0.04258603374866164
1403636860751666432,49.78466,551.586574031004,10.926242541666667,-0.21247741666666667,-5.565273875,-0.008377580409572781,-0.0020943951023931952,-0.06213372137099814
1403636860801666560,48.708916,714.7023242334783,10.909898125,-0.35140495833333335,-5.524412833333333,0.006283185307179587,0.03839724354387525,-0.10262536001726656
1403636860851666432,60.832262,496.53442623685856,11.106031125,-0.269682875,-5.597962708333332,0.048869219055841226,0.03700098014227979,-0.030019663134302467
1403636860901666560,49.616814,382.6166398761287,10.738281749999999,-0.14709974999999997,-5.508068416666666,0.06073745796940267,0.05166174585903216,-0.021642082724729686
1403636860951666432,50.218105,313.2540772184035,10.427737833333332,0.220649625,-5.074941374999999,0.0153588974175501,0.14521139376592823,-0.020943951023931952
1403636861001666560,44.159412,279.2049617470579,10.427737833333332,0.220649625,-5.074941374999999,0.0153588974175501,0.14521139376592823,-0.020943951023931952
1403636861051666432,48.945189,258.71307758798514,9.602344791666665,-0.20430520833333332,-4.797086291666667,0.01884955592153876,0.25132741228718347,0.060039326268604934
1403636861101666560,45.917272,244.97450590090008,9.455245041666666,0.04903325,-4.347614833333333,-0.02722713633111154,0.3511602455012591,0.05026548245743669
1403636861151666432,60.817004,248.53619482011723,9.136528916666666,-0.367749375,-4.1024485833333335,-0.004886921905584123,0.5124286683855351,0.05166174585903216
1403636861201666560,44.342279,253.36510493293707,9.136528916666666,-0.367749375,-4.1024485833333335,-0.004886921905584123,0.5124286683855351,0.05166174585903216
1403636861251666432,55.765391,259.8031737234679,8.597163166666666,-0.04086104166666667,-3.4404997083333333,0.01884955592153876,0.5026548245743669,0.11239920382843484
1403636861301666560,39.422512,267.15928665448945,8.597163166666666,-0.04086104166666667,-3.4404997083333333,0.01884955592153876,0.5026548245743669,0.11239920382843484
1403636861351666432,50.376415,297.5293258768765,7.559292708333333,0.32688833333333334,-3.0400614999999998,-0.02234021442552742,0.44401176170735746,0.10681415022205297
1403636861401666560,49.782276,328.9191998752134,7.346815291666666,-0.2778550833333333,-2.231012875,-0.023038346126325153,0.38746309394274114,0.18081611050661253
1403636861451666432,50.242901,431.97980102519887,6.219050541666666,0.20430520833333332,-2.3372515833333334,-0.05864306286700947,0.307177948351002,0.06771877497737998
1403636861501666560,63.376665,710.3504168497553,5.965712083333332,0.024516625,-1.9286411666666665,-0.09773843811168245,0.0747000919853573,0.041189770347066175
1403636861551666432,36.934853,937.7339526591223,5.965712083333332,0.024516625,-1.9286411666666665,-0.09773843811168245,0.0747000919853573,0.041189770347066175
1403636861601666560,59.489965,585.8292235252081,6.701210833333333,-0.3350605416666666,-2.10842975,0.03630284844148206,-0.18709929581379212,0.09494591130849153
1403636861651666432,44.390917,437.83468219075337,6.701210833333333,-0.3350605416666666,-2.10842975,0.03630284844148206,-0.18709929581379212,0.09494591130849153
1403636861701666560,45.4216,377.78295956183894,7.2487487916666655,-0.2533384583333333,-2.6396232916666666,0.02652900463031381,-0.20804324683772407,0.07888888219014369
1403636861751666432,59.949398,376.64547530266015,8.368341333333333,-0.2860272916666666,-2.974683833333333,-0.00767944870877505,-0.21223203704251048,0.016057029118347832
1403636861801666560,44.075489,349.9626838826761,8.368341333333333,-0.2860272916666666,-2.974683833333333,-0.00767944870877505,-0.21223203704251048,0.016057029118347832
1403636861851666432,55.612803,328.04172023610676,9.479761666666667,-0.057205458333333334,-3.18716125,0.09354964790689606,-0.3078760800517997,0.10262536001726656
1403636861901666560,51.174402,290.1225991823515,8.768779541666666,-0.2778550833333333,-3.7346992083333332,0.04537856055185257,-0.38885935734433663,0.12426744274199628
1403636861951666432,44.767857,259.54480754188586,8.768779541666666,-0.2778550833333333,-3.7346992083333332,0.04537856055185257,-0.38885935734433663,0.12426744274199628
1403636862001666560,54.216146,248.8484273535615,10.092677291666664,-0.3105439166666667,-4.257720541666666,0.0635299847725936,-0.36582101121801147,0.20106192982974677
1403636862051666432,39.544821,264.15596488663675,10.092677291666664,-0.3105439166666667,-4.257720541666666,0.0635299847725936,-0.36582101121801147,0.20106192982974677
1403636862101666560,50.579548,274.6135593386791,9.626861416666666,-0.10623870833333333,-4.4129925,0.006981317007977318,-0.26529004630313807,0.1445132620651305
1403636862151666432,50.110817,292.67278271523674,10.501287708333333,-0.13075533333333333,-4.895152791666666,0.08028514559173915,-0.1710422666954443,0.19338248112097173
1403636862201666560,49.85094,329.13299030230087,11.138719958333333,0.06537766666666667,-5.401829708333333,0.059341194567807204,-0.13264502315156904,0.032812189937493394
1403636862251666432,59.862614,376.5474843387538,11.751635583333332,-0.08989429166666667,-5.6306515416666665,-0.016755160819145562,-0.1228711793404008,-0.03490658503988659
1403636862301666560,40.300369,623.3620989564422,11.751635583333332,-0.08989429166666667,-5.6306515416666665,-0.016755160819145562,-0.1228711793404008,-0.03490658503988659
1403636862351666432,49.906016,563.642279387605,11.833357666666666,-0.2533384583333333,-5.834956749999999,-0.01117010721276371,-0.1514945790731078,-0.05235987755982988
1403636862401666560,59.694051,382.9183362819996,10.901725916666665,-0.04903325,-5.597962708333332,0.02583087292951608,0.048869219055841226,0.07819075048934597
1403636862451666432,60.261965,300.2742173775072,10.754626166666666,-0.04086104166666667,-5.4917240000000005,0.020943951023931952,0.06213372137099814,0.08587019919812101
1403636862501666560,28.798104,272.4895413647482,10.149882749999998,0.13892754166666665,-4.95235825,-0.05445427266222308,0.15917402778188286,0.017453292519943295
1403636862551666432,50.568342,250.6280990371409,9.888372083333332,0.21247741666666667,-4.576436666666666,-0.1626646862858715,0.228987197861656,0.0307177948351002
1403636862601666560,50.48418,245.48924723116187,9.46341725,0.220649625,-4.715364208333333,-0.2631956512007449,0.2813470754214859,-0.06632251157578452
1403636862651666432,49.890995,264.8785296405136,8.956740333333332,-0.44129925,-4.4701979583333324,-0.18151424220741028,0.3225368457685521,0.06841690667817772
1403636862701666560,59.756995,280.70866424647284,8.376513541666666,-0.13075533333333333,-3.7101825833333333,-0.014660765716752367,0.26529004630313807,0.3057816849494065
1403636862751666432,40.13586,336.98643311246843,8.376513541666666,-0.13075533333333333,-3.7101825833333333,-0.014660765716752367,0.26529004630313807,0.3057816849494065
1403636862801666560,50.288916,379.13355628261564,9.005773583333333,0.24516625,-4.233203916666667,-0.07749261878854824,0.1424188669627373,0.1494001839707146
1403636862851666432,49.960851,394.1323500394901,8.28661925,-0.392266,-3.8899711666666663,-0.05375614096142535,0.13823007675795088,0.3043854215478111
1403636862901666560,50.203562,401.81104624259956,7.861664416666666,0.057205458333333334,-3.5794272499999997,-0.05375614096142535,0.14381513036433274,0.18919369091618532
1403636862951666432,59.560061,408.8544876020809,5.687856999999999,0.08172208333333333,-2.574245625,0.06283185307179587,0.24783675378319478,0.10402162341886204
1403636863001666560,44.673919,480.52490667137175,5.687856999999999,0.08172208333333333,-2.574245625,0.06283185307179587,0.24783675378319478,0.10402162341886204
1403636863051666432,45.65382,609.1443125262304,5.720545833333333,0.18796079166666665,-1.9695022083333333,-0.021642082724729686,0.25970499269675623,-0.04328416544945937
1403636863101666560,59.768915,720.0072877885812,6.063778583333333,-0.24516625,-2.083913125,-0.0767944870877505,0.16196655458507375,-0.13124875974997358
1403636863151666432,46.07153,840.9489207228015,6.063778583333333,-0.24516625,-2.083913125,-0.0767944870877505,0.16196655458507375,-0.13124875974997358
1403636863201666560,53.574085,688.695977034048,6.431527958333334,0.367749375,-2.5660734166666663,0.016755160819145562,-0.012566370614359173,-0.00767944870877505
1403636863251666432,40.383816,536.8252147434216,6.431527958333334,0.367749375,-2.5660734166666663,0.016755160819145562,-0.012566370614359173,-0.00767944870877505
1403636863301666560,69.722175,506.91674312389864,8.433719,1.1522813749999998,-2.8439284999999996,-0.06422811647339133,-0.050963614158234416,0.06283185307179587
1403636863351666432,30.375719,457.44503452487345,8.433719,1.1522813749999998,-2.8439284999999996,-0.06422811647339133,-0.050963614158234416,0.06283185307179587
1403636863401666560,49.867392,445.54123819624726,8.834157208333334,-0.3840937916666667,-3.7346992083333332,-0.14172073526193954,-0.06911503837897544,-0.020943951023931952
1403636863451666432,50.148249,362.6706046947278,8.580818749999999,0.661948875,-3.162644625,-0.07958701389094143,-0.08168140899333462,0.09704030641088471
1403636863501666560,50.063133,325.7038812725803,8.662540833333333,0.13892754166666665,-3.800076875,-0.05166174585903216,-0.210835773640915,0.2331759880664424
1403636863551666432,60.201406,280.0822443187539,9.790305583333332,0.0,-3.9880376666666666,0.1494001839707146,-0.29042278753185646,0.2673844414055313
1403636863601666560,46.651602,263.06837127736213,9.790305583333332,0.0,-3.9880376666666666,0.1494001839707146,-0.29042278753185646,0.2673844414055313
1403636863651666432,55.602074,252.0411648677228,10.476771083333333,0.11441091666666667,-4.298581583333333,0.1340412865531645,-0.27646015351590175,0.22968532956245377
1403636863701666560,49.794197,256.9055538557982,11.097858916666665,-0.008172208333333333,-5.066769166666667,0.03630284844148206,-0.2722713633111154,0.239459173373622
1403636863751666432,43.812513,246.09748070777442,11.097858916666665,-0.008172208333333333,-5.066769166666667,0.03630284844148206,-0.2722713633111154,0.239459173373622
1403636863801666560,54.861308,261.36466863788473,11.76798,-0.32688833333333334,-6.063778583333333,-0.0020943951023931952,-0.22968532956245377,0.07051130178057091
1403636863851666432,39.712667,393.49591929598296,11.76798,-0.32688833333333334,-6.063778583333333,-0.0020943951023931952,-0.22968532956245377,0.07051130178057091
1403636863901666560,49.572229,656.5796387429771,12.01314625,-0.122583125,-6.0801229999999995,0.03490658503988659,-0.16126842288427606,0.05515240436302082
1403636863951666432,50.30489,382.9409512252121,12.094868333333332,-0.416782625,-6.145500666666667,0.09704030641088471,-0.07749261878854824,0.08028514559173915
1403636864001666560,60.219526,290.4326643537518,10.419565624999999,-0.3350605416666666,-5.426346333333333,0.08866272600131193,0.1494001839707146,0.04817108735504349
1403636864051666432,44.824362,278.8061056347937,10.419565624999999,-0.3350605416666666,-5.426346333333333,0.08866272600131193,0.1494001839707146,0.04817108735504349
1403636864101666560,44.650078,257.7544880576955,10.909898125,-0.3023717083333333,-5.099458,-0.0307177948351002,0.17662732030182612,-0.0991347015132779
1403636864151666432,62.250614,272.5356422707219,9.193734375,-0.4739880833333333,-4.2822371666666665,-0.1361356816555577,0.20874137853852182,-0.03769911184307752
1403636864201666560,37.638426,296.50620131904435,9.193734375,-0.4739880833333333,-4.2822371666666665,-0.1361356816555577,0.20874137853852182,-0.03769911184307752
1403636864251666432,60.572147,358.02276020934784,7.984247541666667,-0.24516625,-3.7919046666666665,0.030019663134302467,0.1165879940332212,0.08866272600131193
1403636864301666560,39.555073,390.9456586550511,7.984247541666667,-0.24516625,-3.7919046666666665,0.030019663134302467,0.1165879940332212,0.08866272600131193
1403636864351666432,60.386896,387.1359367528788,7.485742833333332,0.220649625,-3.6856659583333333,-0.009075712110370514,0.2150245638457014,0.1710422666954443
1403636864401666560,39.590836,345.24556952164176,7.485742833333332,0.220649625,-3.6856659583333333,-0.009075712110370514,0.2150245638457014,0.1710422666954443
1403636864451666432,60.022592,287.40108744364784,6.431527958333334,-0.08172208333333333,-3.1054391666666663,-0.07260569688296412,0.45308747381772796,0.2324778563656447
1403636864501666560,49.91436,290.73730609430805,7.191543333333333,-0.465815875,-2.655967708333333,0.06422811647339133,0.478918346747244,0.3036872898470133
1403636864551666432,39.889098,310.7482179200618,7.191543333333333,-0.465815875,-2.655967708333333,0.06422811647339133,0.478918346747244,0.3036872898470133
1403636864601666560,49.543857,395.9649269301943,5.998400916666666,0.6701210833333332,-2.672312125,-0.05515240436302082,0.40212385965949354,0.11100294042683936
1403636864651666432,60.156822,693.8671592852166,6.178189499999999,0.16344416666666667,-2.3290793749999996,-0.07749261878854824,0.11588986233242347,-0.12566370614359174
1403636864701666560,40.21883,798.4991056717815,6.178189499999999,0.16344416666666667,-2.3290793749999996,-0.07749261878854824,0.11588986233242347,-0.12566370614359174
1403636864751666432,49.760104,599.7561560689179,5.957539875,-0.13892754166666665,-2.3372515833333334,-0.07120943348136866,-0.033510321638291124,-0.10611601852125524
1403636864801666560,50.070286,479.5077897823103,7.436709583333332,-0.2778550833333333,-2.2228406666666665,0.01117010721276371,-0.143116998663535,-0.01117010721276371
1403636864851666432,49.973249,417.331613162741,7.199715541666666,-0.220649625,-3.0645781249999997,-0.009773843811168246,-0.16824973989225336,0.013264502315156905
1403636864901666560,49.993038,390.70471717355935,8.392857958333332,0.6456044583333332,-3.2035056666666666,-0.021642082724729686,-0.1556833692778942,0.09494591130849153
1403636864951666432,50.134182,367.76606826090705,9.112012291666666,-0.2533384583333333,-2.941995,-0.09494591130849153,-0.20036379812894903,0.0153588974175501
1403636865001666560,49.982786,327.41682775557007,8.556302125,0.44129925,-3.693838166666666,-0.16196655458507375,-0.20804324683772407,0.019547687622336492
1403636865051666432,49.779654,322.64625811883315,9.005773583333333,-0.3023717083333333,-4.045243125,-0.0027925268031909274,-0.22619467105846514,0.057246799465414
1403636865101666560,59.798002,320.5991856771714,9.26728425,-0.40861041666666664,-4.404820291666666,0.1340412865531645,-0.182212373908208,0.42516220578581865
1403636865151666432,49.773693,363.78027381621825,10.010955208333332,-0.016344416666666667,-4.633642125,0.18919369091618532,-0.14800392056911915,0.3937462792499207
1403636865201666560,40.457964,362.10133107615303,10.010955208333332,-0.016344416666666667,-4.633642125,0.18919369091618532,-0.14800392056911915,0.3937462792499207
1403636865251666432,50.191879,406.89754685778337,10.043644041666665,-0.016344416666666667,-5.034080333333333,0.20664698343612864,-0.09704030641088471,0.4146902302738527
1403636865301666560,50.032616,472.7029698912818,10.174399375,-0.416782625,-4.690847583333333,0.13543754995475996,-0.039793506945470715,0.23736477827122882
1403636865351666432,49.969435,511.1780693608338,10.2969825,-0.392266,-4.641814333333333,-0.025132741228718346,0.012566370614359173,0.14870205226991687
1403636865401666560,50.023794,458.01986291056767,10.337843541666667,-0.5475379583333333,-5.017735916666667,-0.0307177948351002,-0.041189770347066175,-0.0013962634015954637
1403636865451666432,50.063133,494.5160894484967,11.146892166666666,-0.4903325,-4.960530458333333,-0.04537856055185257,-0.11100294042683936,-0.08307767239493008
1403636865501666560,49.663782,620.8817116097296,11.359369583333333,-0.3023717083333333,-5.6306515416666665,-0.08587019919812101,-0.19617500792416265,-0.12147491593880534
1403636865551666432,60.179711,703.8651131068156,11.204097625,-0.612915625,-5.777751291666666,0.020943951023931952,-0.1647590813882647,-0.009075712110370514
1403636865601666560,44.356584,482.74930201458164,11.204097625,-0.612915625,-5.777751291666666,0.020943951023931952,-0.1647590813882647,-0.009075712110370514
1403636865651666432,44.890166,374.80186082456123,10.158054958333333,-0.44129925,-5.802267916666667,0.0991347015132779,-0.03630284844148206,0.06562437987498679
1403636865701666560,50.861597,287.8961546597074,10.231604833333332,-0.318716125,-5.123974625,0.10471975511965977,0.11798425743481668,0.07609635538695278
1403636865751666432,50.297498,261.55225232435697,9.937405333333334,-0.17978858333333333,-4.846119541666666,0.03630284844148206,0.23596851486963336,0.09843656981248018
1403636865801666560,49.877644,257.22257345509354,9.577828166666666,0.21247741666666667,-4.46202575,0.02652900463031381,0.314857397059777,0.10122909661567112
1403636865851666432,49.968958,257.5544226413073,9.635033625,-0.08172208333333333,-4.445681333333333,0.00767944870877505,0.35046211380046133,0.1605702911834783
1403636865901666560,50.121069,245.15148661543475,8.474580041666666,-0.29419949999999995,-4.404820291666666,0.014660765716752367,0.42516220578581865,0.11938052083641214
1403636865951666432,59.696436,233.89156130883052,8.433719,-0.5883989999999999,-3.7346992083333332,-0.0027925268031909274,0.55710909723659,0.124965574442794
1403636866001666560,44.038534,236.12839285987187,8.433719,-0.5883989999999999,-3.7346992083333332,-0.0027925268031909274,0.55710909723659,0.124965574442794
1403636866051666432,46.098709,230.37808813170025,8.245758208333333,-0.08172208333333333,-3.2443667083333327,-0.05585053606381855,0.6066764479932288,0.15987215948268058
1403636866101666560,49.954653,244.15963561901202,7.886181041666666,-0.5965712083333333,-2.7948952499999997,-0.08098327729253688,0.5487315168270172,0.0635299847725936
1403636866151666432,59.654236,340.9610152851407,6.668522,-0.7109821249999999,-1.9041245416666663,-0.032812189937493394,0.27715828521669955,0.012566370614359173
1403636866201666560,40.555715,489.85955243022147,6.668522,-0.7109821249999999,-1.9041245416666663,-0.032812189937493394,0.27715828521669955,0.012566370614359173
1403636866251666432,50.246716,758.4912394638524,6.071950791666666,0.20430520833333332,-1.5854084166666664,-0.07330382858376185,0.1361356816555577,0.0013962634015954637
1403636866301666560,59.158086,797.2873102654196,6.472389,0.11441091666666667,-1.4464808749999998,-0.1556833692778942,-0.13962634015954636,-0.021642082724729686
1403636866351666432,40.287734,588.8882433442852,6.472389,0.11441091666666667,-1.4464808749999998,-0.1556833692778942,-0.13962634015954636,-0.021642082724729686
1403636866401666560,50.011873,520.6617471759398,7.060788,0.04086104166666667,-1.7733692083333334,-0.08587019919812101,-0.22479840765686968,-0.05166174585903216
1403636866451666432,49.968004,471.3809782431237,6.897343833333333,-0.17161637500000002,-2.20649625,-0.0635299847725936,-0.21642082724729686,0.03420845333908886
1403636866501666560,50.224066,453.8109332705422,7.444881791666666,0.3759215833333333,-2.40262925,-0.016057029118347832,-0.2150245638457014,0.0020943951023931952
1403636866551666432,50.146341,439.14906492623265,8.482752249999999,-0.008172208333333333,-2.974683833333333,-0.04677482395344803,-0.1996656664281513,0.03700098014227979
1403636866601666560,49.835444,318.94823840123115,9.177389958333332,0.6292600416666666,-3.170816833333333,-0.05026548245743669,-0.20943951023931953,0.05235987755982988
1403636866651666432,49.90983,316.8950942190429,9.953749749999998,0.08989429166666667,-3.87362675,-0.11588986233242347,-0.23177972466484695,-0.012566370614359173
1403636866701666560,50.018787,327.9215115539188,10.223432625,0.416782625,-4.36395925,-0.048869219055841226,-0.24155356847601517,0.06771877497737998
1403636866751666432,49.791336,396.35957702329716,9.757616749999999,-0.2778550833333333,-4.380303666666666,0.08866272600131193,-0.210835773640915,0.039095375244672985
1403636866801666560,50.30632,402.9994307727658,9.912888708333332,-0.032688833333333334,-4.429336916666666,0.1096066770252439,-0.1731366617978375,0.07819075048934597
1403636866851666432,49.816132,367.097969826719,9.144701125,-0.34323275000000003,-3.8164212916666664,0.260403124397554,-0.18011797880581482,0.17523105690023066
1403636866901666560,59.6807,337.23922197054776,9.626861416666666,-0.024516625,-4.502886791666667,0.2282890661608583,-0.3043854215478111,0.2408554367752175
1403636866951666432,55.251122,337.62813146805036,9.872027666666666,-0.29419949999999995,-4.576436666666666,0.08168140899333462,-0.28832839242946323,0.15707963267948966
1403636867001666560,34.714699,372.4894341909311,9.872027666666666,-0.29419949999999995,-4.576436666666666,0.08168140899333462,-0.28832839242946323,0.15707963267948966
1403636867051666432,50.245523,439.8757752371727,10.084505083333333,-0.14709974999999997,-4.576436666666666,-0.020943951023931952,-0.24504422698000386,0.1556833692778942
1403636867101666560,50.210238,523.1549203619003,9.635033625,-0.17161637500000002,-5.042252541666667,0.05445427266222308,-0.1996656664281513,0.05864306286700947
1403636867151666432,59.716463,573.317028510525,8.687057458333333,-1.201314625,-5.042252541666667,0.1759291886010284,-0.07051130178057091,0.08726646259971647
1403636867201666560,44.52753,472.9622633792082,8.687057458333333,-1.201314625,-5.042252541666667,0.1759291886010284,-0.07051130178057091,0.08726646259971647
1403636867251666432,55.183649,574.0146132847914,9.430728416666666,-0.3023717083333333,-4.674503166666667,0.1759291886010284,-0.07539822368615504,0.0747000919853573
1403636867301666560,50.082684,715.6601516742435,9.079323458333333,-0.11441091666666667,-4.543747833333333,0.07958701389094143,-0.11728612573401893,0.07819075048934597
1403636867351666432,44.969797,797.5794619990592,9.079323458333333,-0.11441091666666667,-4.543747833333333,0.07958701389094143,-0.11728612573401893,0.07819075048934597
1403636867401666560,45.446396,831.1848027360008,8.850501625,-0.7191543333333333,-4.625469916666667,-0.0439822971502571,-0.13055062804917586,0.023038346126325153
1403636867451666432,49.824953,619.7630546433899,8.629852,-0.3023717083333333,-4.944186041666666,-0.04258603374866164,-0.20315632493213995,0.06073745796940267
1403636867501666560,50.164461,430.40617024628295,8.180380541666665,-0.7191543333333333,-4.633642125,-0.09354964790689606,-0.30997047515419296,0.031415926535897934
1403636867551666432,49.785614,263.2658679278425,7.763597916666666,0.17978858333333333,-4.985047083333333,-0.08936085770210968,-0.5145230634879283,-0.04468042885105484
1403636867601666560,50.11034,207.65722461131526,7.436709583333332,-0.4494714583333333,-5.009563708333333,-0.03839724354387525,-0.7253588371288433,0.030019663134302467
1403636867651666432,59.713841,179.93991817346384,7.346815291666666,-0.13075533333333333,-5.826784541666666,0.013962634015954637,-1.163785545229819,0.1668534764906579
1403636867701666560,40.14492,164.75643359651917,7.346815291666666,-0.13075533333333333,-5.826784541666666,0.013962634015954637,-1.163785545229819,0.1668534764906579
1403636867751666432,49.855948,159.673541946768,7.019926958333333,-0.35140495833333335,-6.4887334166666655,-0.031415926535897934,-1.2482594810263443,0.15917402778188286
1403636867801666560,50.337553,168.97138814611955,7.8289755833333325,-0.15527195833333335,-6.791105125,-0.11728612573401893,-1.1526154380170552,0.13962634015954636
1403636867851666432,59.464693,205.25748587285267,7.289609833333333,-0.612915625,-7.559292708333333,-0.05585053606381855,-0.5159193268895238,0.17243853009703977
1403636867901666560,44.900179,435.798673340476,7.289609833333333,-0.612915625,-7.559292708333333,-0.05585053606381855,-0.5159193268895238,0.17243853009703977
1403636867951666432,48.717975,674.763005970048,6.562283291666667,-0.5475379583333333,-7.878008833333333,-0.059341194567807204,-0.1445132620651305,0.22270401255447644
1403636868001666560,56.590319,355.9486175747329,5.696029208333333,-0.45764366666666667,-7.698220249999999,-0.013264502315156905,0.31066860685499065,0.12147491593880534
1403636868051666432,40.233135,321.25255036779595,5.696029208333333,-0.45764366666666667,-7.698220249999999,-0.013264502315156905,0.31066860685499065,0.12147491593880534
1403636868101666560,59.731245,369.5078011806971,5.777751291666666,-0.4739880833333333,-7.273265416666667,0.006981317007977318,0.307177948351002,0.07958701389094143
1403636868151666432,39.621115,486.57224591286416,5.777751291666666,-0.4739880833333333,-7.273265416666667,0.006981317007977318,0.307177948351002,0.07958701389094143
1403636868201666560,50.798178,754.0701391080195,6.161845083333333,-0.4004382083333333,-7.052615791666666,0.057246799465414,0.16196655458507375,0.08168140899333462
1403636868251666432,60.412883,773.225100873321,6.006573125,-0.93163175,-7.175198916666666,0.0307177948351002,0.003490658503988659,0.21711895894809458
1403636868301666560,39.627076,665.6517561996243,6.006573125,-0.93163175,-7.175198916666666,0.0307177948351002,0.003490658503988659,0.21711895894809458
1403636868351666432,49.849987,630.4468823767777,6.693038625,-0.5802267916666666,-7.444881791666666,0.01117010721276371,-0.08028514559173915,0.14032447186034408
1403636868401666560,50.248861,763.3585901506955,6.014745333333333,-0.7273265416666667,-7.2487487916666655,-0.005585053606381855,-0.006283185307179587,0.17174039839624203
1403636868451666432,49.821854,693.701037926755,6.791105125,-0.7191543333333333,-7.583809333333333,-0.02583087292951608,0.114493598930828,0.1228711793404008
1403636868501666560,66.152095,604.1454093759648,7.0689602083333325,-0.465815875,-7.485742833333332,-0.12985249634837812,0.268082573106329,0.09494591130849153
1403636868551666432,47.460318,542.8708004303384,6.513250041666667,-0.23699404166666665,-7.093476833333334,-0.1075122819228507,0.1954768762233649,0.16615534478986016
1403636868601666560,40.227175,710.1471368700085,6.513250041666667,-0.23699404166666665,-7.093476833333334,-0.1075122819228507,0.1954768762233649,0.16615534478986016
1403636868651666432,60.310363,862.7118849634575,5.867645583333333,-0.2860272916666666,-6.979065916666666,-0.050963614158234416,-0.04468042885105484,0.0942477796076938
1403636868701666560,44.169426,609.9596128237123,5.867645583333333,-0.2860272916666666,-6.979065916666666,-0.050963614158234416,-0.04468042885105484,0.0942477796076938
1403636868751666432,45.367241,460.852387394665,6.594972124999999,-0.53936575,-6.913688249999999,0.039095375244672985,-0.124965574442794,-0.0006981317007977319
1403636868801666560,49.803019,474.57866216082857,6.472389,-0.269682875,-7.093476833333334,0.01815142422074103,-0.1494001839707146,-0.00767944870877505
1403636868851666432,53.53117,720.7499093065578,6.946377083333333,-0.15527195833333335,-6.774760708333333,-0.021642082724729686,-0.10262536001726656,-0.046076692252650306
1403636868901666560,46.904564,837.3082388112633,7.003582541666666,-0.48216029166666663,-7.379504124999999,-0.060039326268604934,0.039793506945470715,-0.027925268031909273
1403636868951666432,49.706459,652.6861866532918,6.676694208333332,-0.3840937916666667,-7.036271375,-0.012566370614359173,0.13823007675795088,0.06841690667817772
1403636869001666560,59.939146,610.4237448815861,6.529594458333333,-0.3350605416666666,-7.265093208333333,0.11309733552923257,0.12426744274199628,0.11309733552923257
1403636869051666432,51.797867,649.1736563303532,6.398839124999999,-0.392266,-7.117993458333333,0.10821041362364843,0.1075122819228507,0.05794493116621174
1403636869101666560,37.699699,692.9266376024306,6.398839124999999,-0.392266,-7.117993458333333,0.10821041362364843,0.1075122819228507,0.05794493116621174
1403636869151666432,61.243057,812.8854254433753,6.774760708333333,0.032688833333333334,-6.815621749999999,0.06213372137099814,0.033510321638291124,0.06841690667817772
1403636869201666560,38.610935,842.0802688648521,6.856482791666667,-0.44129925,-6.921860458333333,0.05515240436302082,0.010471975511965976,-0.0006981317007977319
1403636869251666432,50.413132,888.0473235946682,6.496905624999999,-0.220649625,-7.183371125,0.005585053606381855,0.012566370614359173,0.06632251157578452
1403636869301666560,50.433874,891.5517906434644,6.815621749999999,-0.4004382083333333,-6.938204874999999,0.01117010721276371,0.013962634015954637,0.01815142422074103
1403636869351666432,59.725285,905.9701037751697,6.831966166666666,-0.29419949999999995,-7.150682291666666,0.016755160819145562,0.02722713633111154,0.041887902047863905
1403636869401666560,40.332317,910.4467708073533,6.831966166666666,-0.29419949999999995,-7.150682291666666,0.016755160819145562,0.02722713633111154,0.041887902047863905
1403636869451666432,49.81637,913.5266658472694,6.554111083333333,-0.13892754166666665,-7.101649041666666,0.02583087292951608,0.01815142422074103,0.07888888219014369
1403636869501666560,59.853316,825.042938197416,6.61948875,0.26151066666666667,-7.134337875,-0.014660765716752367,0.032114058236695664,0.08168140899333462
1403636869551666432,39.84785,743.7233294104561,6.61948875,0.26151066666666667,-7.134337875,-0.014660765716752367,0.032114058236695664,0.08168140899333462
1403636869601666560,56.873084,607.2038465245089,7.01175475,0.6456044583333332,-7.1588544999999995,-0.019547687622336492,-0.04468042885105484,0.05515240436302082
1403636869651666432,42.958259,496.0964527881323,7.01175475,0.6456044583333332,-7.1588544999999995,-0.019547687622336492,-0.04468042885105484,0.05515240436302082
1403636869701666560,60.225248,374.19983784496134,6.995410333333333,0.6456044583333332,-7.052615791666666,-0.05794493116621174,-0.0614355896702004,0.10053096491487339
1403636869751666432,43.879033,324.4799473736102,6.995410333333333,0.6456044583333332,-7.052615791666666,-0.05794493116621174,-0.0614355896702004,0.10053096491487339
1403636869801666560,46.184301,267.5734565390329,6.921860458333333,0.318716125,-7.142510083333334,-0.08098327729253688,0.00767944870877505,0.15219271077390556
1403636869851666432,60.683489,233.2346987546406,6.823793958333333,0.24516625,-7.1098212499999995,-0.13334315485236678,0.15289084247470325,0.19338248112097173
1403636869901666560,43.649673,224.8639801702254,6.823793958333333,0.24516625,-7.1098212499999995,-0.13334315485236678,0.15289084247470325,0.19338248112097173
1403636869951666432,45.404196,220.86405787340402,6.7502440833333335,0.21247741666666667,-6.905516041666667,-0.10681415022205297,0.16824973989225336,0.1954768762233649
1403636870001666560,50.208569,223.54898814848232,6.791105125,0.17978858333333333,-6.815621749999999,-0.1291543646475804,0.11100294042683936,0.1850049007113989
1403636870051666432,49.707174,211.3936807402405,6.554111083333333,0.032688833333333334,-7.003582541666666,-0.12636183784438945,0.030019663134302467,0.2234021442552742
1403636870101666560,50.078869,203.29129325006713,6.733899666666666,0.008172208333333333,-7.028099166666666,-0.15219271077390556,-0.056548667764616284,0.19408061282176942
1403636870151666432,54.754495,198.2572588572462,6.848310583333333,-0.04903325,-7.167026708333333,-0.18779742751458986,-0.10262536001726656,0.153588974175501
1403636870201666560,48.393727,193.7983212330698,6.668522,-0.3105439166666667,-7.379504124999999,-0.16755160819145562,-0.08726646259971647,0.06213372137099814
1403636870251666432,47.252893,195.82293607412555,6.71755525,-0.34323275000000003,-7.085304625,-0.08098327729253688,-0.010471975511965976,0.12356931104119852
1403636870301666560,49.654007,197.3752582516547,6.815621749999999,-0.367749375,-7.273265416666667,-0.06492624817418906,0.10471975511965977,0.1556833692778942
1403636870351666432,50.088644,198.91892532165963,6.594972124999999,-0.44129925,-6.897343833333333,-0.09564404300928926,0.17243853009703977,0.17523105690023066
1403636870401666560,50.444365,192.49927473729923,6.464216791666666,-0.35957716666666667,-7.175198916666666,-0.15987215948268058,0.182212373908208,0.06213372137099814
1403636870451666432,60.385465,229.8826850158145,6.161845083333333,-1.9041245416666663,-7.216059958333333,-0.041887902047863905,-0.016057029118347832,0.2457423586808016
1403636870501666560,42.692662,271.6250940796024,6.161845083333333,-1.9041245416666663,-7.216059958333333,-0.041887902047863905,-0.016057029118347832,0.2457423586808016
1403636870551666432,46.249151,203.03580098902174,6.464216791666666,-0.3105439166666667,-7.093476833333334,-0.033510321638291124,-0.09005898940290741,0.2750638901143063
1403636870601666560,60.035467,188.44188572235976,6.627660958333332,-1.0623870833333333,-7.167026708333333,-0.20106192982974677,-0.11868238913561441,0.1054178868204575
1403636870651666432,44.055939,199.17196567095428,6.627660958333332,-1.0623870833333333,-7.167026708333333,-0.20106192982974677,-0.11868238913561441,0.1054178868204575
1403636870701666560,45.917749,213.29443094812567,6.9300326666666665,-0.9152873333333333,-7.453054,-0.1494001839707146,0.03769911184307752,0.11519173063162574
1403636870751666432,61.257363,345.88590181391277,5.859473375,-0.4985047083333333,-7.346815291666666,0.06422811647339133,0.22968532956245377,0.24783675378319478
1403636870801666560,43.017387,361.496620119662,5.859473375,-0.4985047083333333,-7.346815291666666,0.06422811647339133,0.22968532956245377,0.24783675378319478
1403636870851666432,56.021452,367.8325261384875,6.447872374999999,-0.6782932916666666,-7.542948291666666,0.016057029118347832,0.2366666465704311,0.08098327729253688
1403636870901666560,39.932251,452.3889708527011,6.447872374999999,-0.6782932916666666,-7.542948291666666,0.016057029118347832,0.2366666465704311,0.08098327729253688
1403636870951666432,60.077906,502.4429958435493,6.774760708333333,-1.0869037083333333,-6.864654999999999,0.06632251157578452,0.06283185307179587,0.14381513036433274
1403636871001666560,39.891481,472.95956609882217,6.774760708333333,-1.0869037083333333,-6.864654999999999,0.06632251157578452,0.06283185307179587,0.14381513036433274
1403636871051666432,50.144672,324.7340369975525,6.627660958333332,-0.5475379583333333,-6.946377083333333,0.06422811647339133,-0.06492624817418906,0.24504422698000386
1403636871101666560,50.064087,230.5610093881839,6.880999416666667,-0.318716125,-7.1588544999999995,-0.07330382858376185,-0.19408061282176942,0.0991347015132779
1403636871151666432,49.142361,275.5115559869354,7.2487487916666655,-1.0705592916666666,-7.297782041666666,-0.18011797880581482,-0.22060961745208327,0.04049163864626844
1403636871201666560,50.907373,454.4929264707821,6.831966166666666,-1.0051816249999999,-7.820803375,-0.124965574442794,-0.1424188669627373,0.12426744274199628
1403636871251666432,49.736023,333.4690741262364,7.01175475,-1.1767979999999998,-7.0689602083333325,-0.07120943348136866,-0.02583087292951608,0.08028514559173915
1403636871301666560,60.137749,286.5025009668659,6.505077833333333,-1.2748645,-7.036271375,0.023736477827122883,0.0635299847725936,0.004886921905584123
1403636871351666432,39.621353,263.9514391133761,6.505077833333333,-1.2748645,-7.036271375,0.023736477827122883,0.0635299847725936,0.004886921905584123
1403636871401666560,59.836865,246.54692299402998,6.529594458333333,-1.1931424166666666,-7.085304625,0.0747000919853573,0.057246799465414,0.0
1403636871451666432,40.25197,234.59073022812765,6.529594458333333,-1.1931424166666666,-7.085304625,0.0747000919853573,0.057246799465414,0.0
1403636871501666560,63.175917,224.900254587028,6.627660958333332,-1.0296982499999998,-7.175198916666666,0.06632251157578452,0.004886921905584123,0.07190756518216637
1403636871551666432,43.137788,224.42215411955496,6.627660958333332,-1.0296982499999998,-7.175198916666666,0.06632251157578452,0.004886921905584123,0.07190756518216637
1403636871601666560,55.10521,201.04129718964526,6.398839124999999,-0.9071151249999999,-7.167026708333333,0.14590952546672595,-0.03560471674068433,0.09773843811168245
1403636871651666432,38.923502,177.05669662942225,6.398839124999999,-0.9071151249999999,-7.167026708333333,0.14590952546672595,-0.03560471674068433,0.09773843811168245
1403636871701666560,50.544738,153.545348285364,6.905516041666667,-1.2421756666666668,-7.232404375,0.1780235837034216,-0.03560471674068433,0.0767944870877505
1403636871751666432,59.797287,163.8760910228052,6.848310583333333,-0.6701210833333332,-6.799277333333333,0.14870205226991687,0.0020943951023931952,0.029321531433504733
1403636871801666560,39.988757,168.8341741171249,6.848310583333333,-0.6701210833333332,-6.799277333333333,0.14870205226991687,0.0020943951023931952,0.029321531433504733
1403636871851666432,49.660444,182.7631936069341,6.382494708333334,-0.7109821249999999,-7.003582541666666,0.08168140899333462,0.02652900463031381,-0.08307767239493008
1403636871901666560,60.006618,191.88633020186384,6.8401383749999995,-1.0215260416666667,-7.019926958333333,0.1668534764906579,0.10192722831646883,0.02234021442552742
1403636871951666432,49.77274,190.55345978075627,6.42335575,-0.6946377083333333,-6.61948875,0.2457423586808016,0.15777776438028737,0.05375614096142535
1403636872001666560,45.437574,201.67190537813002,6.42335575,-0.6946377083333333,-6.61948875,0.2457423586808016,0.15777776438028737,0.05375614096142535
1403636872051666432,54.762364,207.1396765429293,6.8401383749999995,-0.17978858333333333,-6.913688249999999,0.21711895894809458,0.12217304763960307,-0.00767944870877505
1403636872101666560,50.220489,227.73366395237207,6.554111083333333,-0.122583125,-6.872827208333333,0.12566370614359174,0.07888888219014369,-0.009773843811168246
1403636872151666432,44.179678,237.57578209729598,6.554111083333333,-0.122583125,-6.872827208333333,0.12566370614359174,0.07888888219014369,-0.009773843811168246
1403636872201666560,56.474447,227.30085887856941,6.848310583333333,-0.2860272916666666,-6.954549291666666,0.15847589608108512,-0.08936085770210968,-0.019547687622336492
1403636872251666432,38.799286,220.43996526751624,6.848310583333333,-0.2860272916666666,-6.954549291666666,0.15847589608108512,-0.08936085770210968,-0.019547687622336492
1403636872301666560,50.390482,219.67939619630855,6.578627708333332,-0.08172208333333333,-6.856482791666667,0.143116998663535,-0.15498523757709648,-0.02024581932313422
1403636872351666432,59.921026,239.39086437311485,6.815621749999999,0.3350605416666666,-6.995410333333333,0.11868238913561441,-0.12985249634837812,-0.013264502315156905
1403636872401666560,44.294358,273.6643479107719,6.815621749999999,0.3350605416666666,-6.995410333333333,0.11868238913561441,-0.12985249634837812,-0.013264502315156905
1403636872451666432,45.727014,369.58098358112096,7.436709583333332,0.6864655000000001,-7.297782041666666,0.07539822368615504,-0.0614355896702004,0.0041887902047863905
1403636872501666560,50.157786,479.07337073111233,6.9300326666666665,0.6782932916666666,-7.363159708333333,0.08028514559173915,-0.005585053606381855,0.021642082724729686
1403636872551666432,50.102949,665.7593718168758,7.1098212499999995,0.7927042083333332,-7.3304708750000005,0.04956735075663895,0.04956735075663895,0.0
1403636872601666560,49.79229,890.4263472107278,6.807449541666666,0.53936575,-7.305954249999999,0.07120943348136866,0.10053096491487339,-0.010471975511965976
1403636872651666432,60.158252,867.6532876099856,7.036271375,0.3759215833333333,-6.954549291666666,-0.023736477827122883,0.10611601852125524,-0.009075712110370514
1403636872701666560,50.130129,765.7100995375608,6.701210833333333,0.24516625,-6.791105125,-0.06911503837897544,0.05794493116621174,0.06562437987498679
1403636872751666432,49.476385,547.1060166296271,7.0689602083333325,0.48216029166666663,-6.807449541666666,-0.1165879940332212,-0.011868238913561441,0.03560471674068433
1403636872801666560,40.173531,486.5225458838181,7.0689602083333325,0.48216029166666663,-6.807449541666666,-0.1165879940332212,-0.011868238913561441,0.03560471674068433
1403636872851666432,59.666395,374.9511357713896,6.782932916666666,0.784532,-6.774760708333333,-0.08936085770210968,-0.032812189937493394,0.16126842288427606
1403636872901666560,44.25025,311.4937313606459,6.782932916666666,0.784532,-6.774760708333333,-0.08936085770210968,-0.032812189937493394,0.16126842288427606
1403636872951666432,45.496464,268.90710776578527,6.995410333333333,0.8008764166666666,-6.970893708333333,-0.14381513036433274,-0.006981317007977318,0.15289084247470325
1403636873001666560,50.232648,246.78122855525748,6.701210833333333,0.29419949999999995,-6.905516041666667,-0.13683381335635544,0.016755160819145562,0.15009831567151233
1403636873051666432,54.959298,238.97645073315007,6.970893708333333,0.196133,-7.126165666666666,-0.16615534478986016,0.046076692252650306,0.13264502315156904
1403636873101666560,55.363416,228.8904531159618,6.913688249999999,0.016344416666666667,-7.1098212499999995,-0.1165879940332212,-0.013264502315156905,0.18570303241219666
1403636873151666432,39.3219,220.6088426206424,6.913688249999999,0.016344416666666667,-7.1098212499999995,-0.1165879940332212,-0.013264502315156905,0.18570303241219666
1403636873201666560,53.397417,207.40160704138077,6.766588499999999,-0.16344416666666667,-7.1588544999999995,-0.1494001839707146,-0.008377580409572781,0.18779742751458986
1403636873251666432,47.11461,194.14325675690733,6.537766666666666,-0.367749375,-7.028099166666666,-0.14381513036433274,-0.00767944870877505,0.20455258833373544
1403636873301666560,60.709715,184.96139732798702,6.513250041666667,-0.45764366666666667,-7.077132416666666,-0.14521139376592823,0.0020943951023931952,0.1850049007113989
1403636873351666432,48.998118,174.49247848427854,6.3498058749999995,-0.6292600416666666,-7.134337875,-0.13055062804917586,0.006283185307179587,0.17383479349863523
1403636873401666560,51.49436,173.24770643925103,6.32528925,-0.980665,-7.077132416666666,-0.0879645943005142,-0.0020943951023931952,0.2199114857512855
1403636873451666432,48.469543,172.6978156910755,6.357978083333332,-0.7600153749999999,-7.2487487916666655,-0.13124875974997358,-0.03769911184307752,0.11868238913561441
1403636873501666560,44.015169,164.74675354307078,6.357978083333332,-0.7600153749999999,-7.2487487916666655,-0.13124875974997358,-0.03769911184307752,0.11868238913561441
1403636873551666432,45.39299,159.0211452020058,6.047434166666666,-1.1686257916666667,-7.265093208333333,-0.19477874452256716,-0.05864306286700947,0.1605702911834783
1403636873601666560,50.65918,165.54105239062287,6.088295208333333,-1.2503478749999999,-7.232404375,-0.19058995431778078,-0.060039326268604934,0.16545721308906244
1403636873651666432,59.926987,177.73478747804043,6.268083791666666,-1.4301364583333334,-7.444881791666666,-0.11588986233242347,-0.0635299847725936,0.18430676901060122
1403636873701666560,39.959669,203.7627101782952,6.268083791666666,-1.4301364583333334,-7.444881791666666,-0.11588986233242347,-0.0635299847725936,0.18430676901060122
1403636873751666432,50.533056,247.1286259502508,6.0801229999999995,-1.6671305,-7.567464916666665,-0.03560471674068433,-0.04956735075663895,0.1319468914507713
1403636873801666560,59.497595,281.66983861390275,5.990228708333333,-1.9449855833333332,-7.4693984166666665,-0.013264502315156905,0.01815142422074103,0.14172073526193954
1403636873851666432,40.48276,338.9654258376204,5.990228708333333,-1.9449855833333332,-7.4693984166666665,-0.013264502315156905,0.01815142422074103,0.14172073526193954
1403636873901666560,50.03333,383.7056711240475,6.4887334166666655,-1.5445473749999998,-7.297782041666666,-0.016755160819145562,0.03420845333908886,0.1165879940332212
1403636873951666432,49.856186,440.59748884399175,6.341633666666666,-1.4301364583333334,-7.420365166666667,-0.05585053606381855,0.07051130178057091,0.10192722831646883
1403636874001666560,50.026179,536.0891102026465,6.5704555000000004,-1.2912089166666665,-7.379504124999999,-0.060039326268604934,0.050963614158234416,0.12775810124598494
1403636874051666432,50.192594,598.1202736821118,6.554111083333333,-1.2748645,-7.3386430833333325,-0.05166174585903216,0.033510321638291124,0.11519173063162574
1403636874101666560,59.794903,529.4386021538159,6.578627708333332,-1.201314625,-7.641014791666667,0.010471975511965976,-0.008377580409572781,0.09704030641088471
1403636874151666432,40.128946,462.88840482597544,6.578627708333332,-1.201314625,-7.641014791666667,0.010471975511965976,-0.008377580409572781,0.09704030641088471
1403636874201666560,49.53003,394.31778507016026,6.112811833333333,-1.3157255416666664,-7.477570624999999,0.0153588974175501,-0.023038346126325153,0.030019663134302467
1403636874251666432,50.764799,342.0828341423752,6.456044583333333,-1.4056198333333334,-7.428537374999999,0.02583087292951608,-0.01815142422074103,0.05864306286700947
1403636874301666560,49.119711,215.5161611600927,6.1209840416666665,-2.0185354583333335,-7.305954249999999,0.09354964790689606,-0.03420845333908886,-0.057246799465414
1403636874351666432,50.691604,184.53273091090722,6.22722275,-1.7325081666666666,-7.371331916666667,0.10402162341886204,-0.029321531433504733,0.03839724354387525
1403636874401666560,49.4833,155.06928156856418,6.2599115833333325,-1.8305746666666667,-7.363159708333333,0.1780235837034216,-0.02652900463031381,-0.009075712110370514
1403636874451666432,50.123214,154.53880679287366,6.1209840416666665,-1.5200307499999999,-7.40402075,0.15498523757709648,0.01815142422074103,0.03839724354387525
1403636874501666560,49.711466,152.4879666426124,6.382494708333334,-1.0460426666666667,-7.583809333333333,0.11309733552923257,0.08098327729253688,-0.0027925268031909274
1403636874551666432,54.676294,156.59959839836552,6.194533916666667,-1.3729310000000001,-7.363159708333333,0.06841690667817772,0.1228711793404008,-0.0041887902047863905
1403636874601666560,55.241585,154.68566417142443,6.219050541666666,-1.1931424166666666,-7.289609833333333,0.17872171540421936,0.08447393579652555,0.008377580409572781
1403636874651666432,39.547444,154.56646629476637,6.219050541666666,-1.1931424166666666,-7.289609833333333,0.17872171540421936,0.08447393579652555,0.008377580409572781
1403636874701666560,55.504799,160.3756487683443,6.3743225,-0.6047434166666666,-6.831966166666666,0.1710422666954443,0.06562437987498679,-0.02722713633111154
1403636874751666432,48.501014,163.2390784982352,6.472389,-0.5230213333333333,-6.970893708333333,0.15219271077390556,0.032812189937493394,0.023038346126325153
1403636874801666560,46.959877,168.111796158794,6.104639625,-0.392266,-6.856482791666667,0.15219271077390556,0.012566370614359173,-0.02583087292951608
1403636874851666432,59.722901,171.92049887455357,6.6603497916666665,0.016344416666666667,-7.191543333333333,0.20525072003453312,-0.04468042885105484,0.033510321638291124
1403636874901666560,39.755106,186.6261234852438,6.6603497916666665,0.016344416666666667,-7.191543333333333,0.20525072003453312,-0.04468042885105484,0.033510321638291124
1403636874951666432,50.629854,213.33907584060694,6.987238125,0.4739880833333333,-7.305954249999999,0.14102260356114182,-0.00767944870877505,0.08098327729253688
1403636875001666560,49.732685,279.00589095811455,6.782932916666666,0.367749375,-7.191543333333333,0.11938052083641214,0.08377580409572781,0.009773843811168246
1403636875051666432,50.254583,382.14025932231806,7.379504124999999,0.29419949999999995,-6.962721499999999,-0.023038346126325153,0.23527038316883564,0.14032447186034408
1403636875101666560,59.794426,394.0000106969169,6.856482791666667,-0.4494714583333333,-7.265093208333333,-0.289026524130261,0.4293509959906051,0.3127630019573839
1403636875151666432,43.300867,350.8680849172697,6.856482791666667,-0.4494714583333333,-7.265093208333333,-0.289026524130261,0.4293509959906051,0.3127630019573839
1403636875201666560,46.828509,390.8193722537326,5.826784541666666,-0.21247741666666667,-6.987238125,-0.26249751949994715,0.41050144006906625,0.3127630019573839
1403636875251666432,60.155153,473.970066886308,6.112811833333333,-0.4739880833333333,-7.436709583333332,-0.3225368457685521,0.22200588085367873,0.48939032225921
1403636875301666560,43.84923,624.9671811306126,6.112811833333333,-0.4739880833333333,-7.436709583333332,-0.3225368457685521,0.22200588085367873,0.48939032225921
1403636875351666432,46.138763,683.1179005826779,7.199715541666666,-0.5802267916666666,-7.036271375,-0.2611012560983517,0.11239920382843484,0.5689773361501514
1403636875401666560,49.969197,656.925348464899,6.243567166666667,-0.23699404166666665,-7.559292708333333,-0.20664698343612864,0.0013962634015954637,0.55710909723659
1403636875451666432,49.89624,492.71707940750883,6.276256,-0.20430520833333332,-7.681875833333333,-0.1291543646475804,-0.039793506945470715,0.4935791124639964
1403636875501666560,49.747467,401.28313351637036,6.742071875,0.14709974999999997,-7.4693984166666665,-0.08447393579652555,-0.10890854532444616,0.43423791789618915
1403636875551666432,59.99279,365.3561565332283,6.823793958333333,0.08172208333333333,-7.322298666666667,-0.057246799465414,-0.09494591130849153,0.30647981665020424
1403636875601666560,44.456244,377.8381543602403,6.823793958333333,0.08172208333333333,-7.322298666666667,-0.057246799465414,-0.09494591130849153,0.30647981665020424
1403636875651666432,45.570611,385.9026722431082,7.019926958333333,-0.13075533333333333,-7.044443583333333,-0.1291543646475804,-0.01117010721276371,0.3225368457685521
1403636875701666560,60.833931,302.13536068746464,6.52142225,-0.7191543333333333,-6.8401383749999995,-0.31066860685499065,0.12147491593880534,0.29042278753185646
1403636875751666432,42.687893,263.2724339854406,6.52142225,-0.7191543333333333,-6.8401383749999995,-0.31066860685499065,0.12147491593880534,0.29042278753185646
1403636875801666560,56.737423,249.87220152138488,7.077132416666666,-0.318716125,-6.7502440833333335,-0.36233035271402286,0.02234021442552742,0.2960078411382383
1403636875851666432,49.886942,205.64299266081647,7.232404375,-1.1522813749999998,-6.799277333333333,-0.3846705671395502,-0.024434609527920613,0.33510321638291124
1403636875901666560,45.330048,182.83365838260326,7.232404375,-1.1522813749999998,-6.799277333333333,-0.3846705671395502,-0.024434609527920613,0.33510321638291124
1403636875951666432,44.371605,167.79627570051778,7.518431666666666,-0.5148491249999999,-6.594972124999999,-0.44401176170735746,-0.0013962634015954637,0.3518583772020568
1403636876001666560,49.836397,142.31210595609795,7.788114541666666,-0.8989429166666666,-6.684866416666666,-0.4475024202113461,0.08307767239493008,0.4230678106834254
1403636876051666432,49.580336,124.44160848785347,7.9188698749999995,-0.5311935416666667,-6.161845083333333,-0.5557128338349946,0.1647590813882647,0.31066860685499065
1403636876101666560,50.768852,122.41987096778537,7.886181041666666,-1.2421756666666668,-6.071950791666666,-0.5298819609054785,0.2282890661608583,0.3651228795172137
1403636876151666432,49.500465,134.57751843100695,7.681875833333333,-1.1441091666666665,-5.6306515416666665,-0.4970697709679851,0.23806290997202653,0.335801348083709
1403636876201666560,50.473213,130.80343078029975,7.861664416666666,-1.32389775,-5.753234666666667,-0.4132939668722573,0.17732545200262387,0.3309144261781249
1403636876251666432,59.75914,139.29258790606727,7.959730916666666,-1.3320699583333333,-5.459035166666666,-0.2932153143350474,-0.0013962634015954637,0.2631956512007449
1403636876301666560,49.84808,153.34673305949914,7.665531416666666,-0.980665,-5.6715125833333335,-0.30997047515419296,-0.03839724354387525,0.2722713633111154
1403636876351666432,49.867153,151.9067891001017,7.591981541666666,-1.103248125,-5.761406875,-0.23596851486963336,-0.07819075048934597,0.18919369091618532
1403636876401666560,40.266037,142.62934993385662,7.591981541666666,-1.103248125,-5.761406875,-0.23596851486963336,-0.07819075048934597,0.18919369091618532
1403636876451666432,59.616804,132.5580975480562,7.559292708333333,-1.4709975,-6.562283291666667,-0.2331759880664424,0.08656833089891874,-0.006981317007977318
1403636876501666560,40.620566,140.6305759644564,7.559292708333333,-1.4709975,-6.562283291666667,-0.2331759880664424,0.08656833089891874,-0.006981317007977318
1403636876551666432,50.020218,166.59542455582366,7.518431666666666,-1.7570247916666666,-6.202706124999999,-0.12566370614359174,0.22759093446006054,0.0041887902047863905
1403636876601666560,49.95656,206.0758746768616,7.935214291666666,-1.6671305,-6.693038625,-0.056548667764616284,0.27715828521669955,-0.15987215948268058
1403636876651666432,50.118685,240.42364467135974,6.464216791666666,-2.1166019583333333,-6.733899666666666,0.04677482395344803,0.31066860685499065,-0.15009831567151233
1403636876701666560,59.734344,186.35737773292965,6.32528925,-1.9286411666666665,-7.363159708333333,0.2617993877991494,0.1780235837034216,-0.18011797880581482
1403636876751666432,40.035486,179.9477169971572,6.32528925,-1.9286411666666665,-7.363159708333333,0.2617993877991494,0.1780235837034216,-0.18011797880581482
1403636876801666560,55.555105,147.5077351264729,6.774760708333333,-2.3209071666666663,-6.8401383749999995,0.2981022362406315,0.15219271077390556,-0.29042278753185646
1403636876851666432,56.792975,153.1564926320073,6.32528925,-2.3127349583333334,-6.823793958333333,0.43423791789618915,0.18151424220741028,-0.3302162944773272
1403636876901666560,37.945747,147.34939308562926,6.32528925,-2.3127349583333334,-6.823793958333333,0.43423791789618915,0.18151424220741028,-0.3302162944773272
1403636876951666432,54.731608,163.37873094416634,6.357978083333332,-1.9940188333333333,-7.028099166666666,0.4977679026687828,0.19058995431778078,-0.3469714552964727
1403636877001666560,47.84441,172.78637420962832,6.635833166666666,-1.6834749166666665,-6.946377083333333,0.6108652381980153,0.17034413499464657,-0.31695179216217023
1403636877051666432,46.418667,188.54189371290428,6.390666916666666,-1.9041245416666663,-7.265093208333333,0.6639232474586428,0.11938052083641214,-0.4237659423842232
1403636877101666560,50.778389,198.39897483382444,7.060788,-1.3647587916666666,-7.117993458333333,0.7330382858376184,0.09215338450530061,-0.37210419652519106
1403636877151666432,49.835681,190.43467556273174,6.415183541666666,-1.8224024583333331,-7.436709583333332,0.7630579489719208,0.046076692252650306,-0.5047492196767601
1403636877201666560,49.901724,186.76068414181069,6.995410333333333,-1.3402421666666664,-7.0689602083333325,0.8042477193189871,0.0027925268031909274,-0.3755948550291797
1403636877251666432,60.138226,181.37261717901913,6.529594458333333,-0.9234595416666666,-7.232404375,0.7204719152232593,-0.017453292519943295,-0.3427826650916863
1403636877301666560,39.957285,183.7749448261267,6.529594458333333,-0.9234595416666666,-7.232404375,0.7204719152232593,-0.017453292519943295,-0.3427826650916863
1403636877351666432,49.427747,182.16288908802292,6.4887334166666655,-0.661948875,-7.681875833333333,0.7204719152232593,-0.03769911184307752,-0.4237659423842232
1403636877401666560,50.73452,173.24784978529345,6.390666916666666,-0.563882375,-7.240576583333333,0.6799802765769908,-0.06492624817418906,-0.37768925013157295
1403636877451666432,59.631587,166.1322821557002,6.276256,-0.18796079166666665,-7.305954249999999,0.6080727113948244,-0.15707963267948966,-0.2645919146023404
1403636877501666560,51.010847,159.0618867697063,6.251739374999999,0.13892754166666665,-7.273265416666667,0.5173155902911193,-0.18709929581379212,-0.1270599695451872
1403636877551666432,49.110651,158.62216162730743,6.333461458333334,0.5066769166666666,-7.526603874999999,0.45029494701453704,-0.25342180738957665,-0.07888888219014369
1403636877601666560,40.150165,167.57444653350402,6.333461458333334,0.5066769166666666,-7.526603874999999,0.45029494701453704,-0.25342180738957665,-0.07888888219014369
1403636877651666432,61.031103,172.56967630588494,6.831966166666666,0.48216029166666663,-7.485742833333332,0.3420845333908886,-0.20804324683772407,0.09564404300928926
1403636877701666560,42.930603,201.760325485436,6.831966166666666,0.48216029166666663,-7.485742833333332,0.3420845333908886,-0.20804324683772407,0.09564404300928926
1403636877751666432,46.070576,222.91805853678713,6.603144333333333,0.032688833333333334,-7.4693984166666665,0.2059488517353309,-0.1864011641129944,0.1340412865531645
1403636877801666560,61.022282,239.29966584833772,6.864654999999999,0.13892754166666665,-6.970893708333333,-0.041189770347066175,-0.1689478715930511,0.29112091923265415
1403636877851666432,44.208526,262.7181564899777,6.864654999999999,0.13892754166666665,-6.970893708333333,-0.041189770347066175,-0.1689478715930511,0.29112091923265415
1403636877901666560,44.762135,249.9743284967431,6.398839124999999,0.24516625,-6.913688249999999,-0.15289084247470325,-0.16126842288427606,0.24015730507441974
1403636877951666432,49.431085,256.37649586020706,7.085304625,0.24516625,-6.880999416666667,-0.2569124658935653,-0.17872171540421936,0.2813470754214859
1403636878001666560,50.602198,271.61434944013536,6.52142225,0.20430520833333332,-7.085304625,-0.29391344603584507,-0.11868238913561441,0.29391344603584507
1403636878051666432,49.389839,292.93757058449813,7.40402075,0.8417374583333332,-6.554111083333333,-0.4125958351714595,-0.07330382858376185,0.2960078411382383
1403636878101666560,50.486803,261.52846647894324,7.199715541666666,0.2860272916666666,-6.872827208333333,-0.43214352279379603,0.0006981317007977319,0.41050144006906625
1403636878151666432,59.715033,226.63070130618695,7.485742833333332,0.3105439166666667,-6.831966166666666,-0.4391248398017733,0.11309733552923257,0.42795473258900957
1403636878201666560,40.352583,200.94960508678219,7.485742833333332,0.3105439166666667,-6.831966166666666,-0.4391248398017733,0.11309733552923257,0.42795473258900957
1403636878251666432,50.697803,183.64052330454956,7.077132416666666,0.42495483333333334,-6.284428208333333,-0.48659779545601906,0.12217304763960307,0.4314453910929983
1403636878301666560,49.367667,168.48846595789874,7.869836625,0.016344416666666667,-6.586799916666666,-0.364424747816416,0.13334315485236678,0.5291838292046808
1403636878351666432,50.170898,149.17318400918572,7.395848541666666,-0.08172208333333333,-6.317117041666666,-0.3832743037379548,0.14381513036433274,0.5375614096142535
1403636878401666560,60.496807,139.24555871101882,7.706392458333333,-0.44129925,-6.300772625,-0.4656538444320871,0.10262536001726656,0.4907865856608055
1403636878451666432,49.272776,132.12771762368786,8.638024208333333,-0.63743225,-6.276256,-0.5054473513775578,0.10053096491487339,0.37070793312359557
1403636878501666560,50.911665,125.60470274254865,7.992419749999999,-1.0869037083333333,-6.055606375,-0.4970697709679851,0.10611601852125524,0.4230678106834254
1403636878551666432,39.055586,121.3598728845858,7.992419749999999,-1.0869037083333333,-6.055606375,-0.4970697709679851,0.10611601852125524,0.4230678106834254
1403636878601666560,59.470653,122.0137958177128,7.7390812916666665,-1.0869037083333333,-6.112811833333333,-0.4628613176288962,0.14172073526193954,0.3274237676741362
1403636878651666432,40.202141,124.8869170981095,7.7390812916666665,-1.0869037083333333,-6.112811833333333,-0.4628613176288962,0.14172073526193954,0.3274237676741362
1403636878701666560,50.124407,130.6020030003027,8.065969625,-1.1767979999999998,-6.063778583333333,-0.48939032225921,0.1494001839707146,0.20525072003453312
1403636878751666432,50.355673,141.38820768727123,7.4693984166666665,-1.2666922916666667,-6.2599115833333325,-0.41957715217943675,0.19338248112097173,0.14800392056911915
1403636878801666560,50.104856,161.98787239917814,7.485742833333332,-1.3974476249999999,-6.047434166666666,-0.3141592653589793,0.1884955592153876,0.20734511513692636
1403636878851666432,49.187899,183.52503450884782,7.101649041666666,-1.201314625,-6.137328458333333,-0.23736477827122882,0.13264502315156904,0.11519173063162574
1403636878901666560,50.454378,191.29446382378194,6.6603497916666665,-1.2094868333333333,-6.3089448333333324,-0.10681415022205297,0.06841690667817772,0.17941984710501704
1403636878951666432,49.975633,256.51657990995517,7.346815291666666,-1.985846625,-6.300772625,-0.060039326268604934,0.023736477827122883,0.1361356816555577
1403636879001666560,60.100794,269.497488063553,7.60015375,-2.1247741666666666,-6.701210833333333,0.029321531433504733,0.02024581932313422,0.13892820845874865
1403636879051666432,46.063185,252.55715404235153,7.60015375,-2.1247741666666666,-6.701210833333333,0.029321531433504733,0.02024581932313422,0.13892820845874865
1403636879101666560,43.549538,168.4706860303363,7.1098212499999995,-1.7325081666666666,-6.970893708333333,0.04468042885105484,0.12775810124598494,0.06841690667817772
1403636879151666432,63.072204,146.65075538165925,6.913688249999999,-1.936813375,-6.8891716249999995,0.11728612573401893,0.31974431896536115,0.012566370614359173
1403636879201666560,48.518658,146.36534494468617,6.913688249999999,-1.936813375,-6.8891716249999995,0.11728612573401893,0.31974431896536115,0.012566370614359173
1403636879251666432,43.040752,149.3918680636788,6.815621749999999,-1.871435708333333,-6.856482791666667,0.14102260356114182,0.325329372571743,-0.07330382858376185
1403636879301666560,46.478272,149.4239768019174,6.831966166666666,-1.8305746666666667,-6.9300326666666665,0.19687313962496036,0.3120648702565861,-0.06283185307179587
1403636879351666432,60.418844,164.1840192106903,6.946377083333333,-1.7325081666666666,-6.823793958333333,0.3364994797845067,0.19338248112097173,-0.17872171540421936
1403636879401666560,39.684296,178.97868519396337,6.946377083333333,-1.7325081666666666,-6.823793958333333,0.3364994797845067,0.19338248112097173,-0.17872171540421936
1403636879451666432,60.374737,206.953933676831,6.905516041666667,-1.2340034583333332,-6.946377083333333,0.5033529562751646,0.08377580409572781,-0.2848377339254746
1403636879501666560,42.970657,224.13861299094089,6.905516041666667,-1.2340034583333332,-6.946377083333333,0.5033529562751646,0.08377580409572781,-0.2848377339254746
1403636879551666432,56.406736,217.87898082610548,6.987238125,-0.980665,-7.01175475,0.5270894341022875,-0.02652900463031381,-0.2115339053417127
1403636879601666560,39.811135,216.20370118697954,6.987238125,-0.980665,-7.01175475,0.5270894341022875,-0.02652900463031381,-0.2115339053417127
1403636879651666432,49.886703,202.80424893239282,6.758416291666666,-1.3729310000000001,-7.142510083333334,0.5403539364174444,-0.020943951023931952,-0.15079644737231007
1403636879701666560,60.165882,196.7812311299104,6.71755525,-0.7927042083333332,-6.6603497916666665,0.5096361415823442,-0.08237954069413235,-0.08377580409572781
1403636879751666432,39.845944,194.51106930903646,6.71755525,-0.7927042083333332,-6.6603497916666665,0.5096361415823442,-0.08237954069413235,-0.08377580409572781
1403636879801666560,50.221443,189.10856881556072,6.447872374999999,-0.5148491249999999,-7.150682291666666,0.43772857640017787,-0.13124875974997358,-0.11938052083641214
1403636879851666432,49.903393,199.99342042661152,6.513250041666667,0.024516625,-6.684866416666666,0.37908551353316833,-0.16406094968746698,-0.05515240436302082
1403636879901666560,50.18115,197.4489598216505,6.472389,-0.057205458333333334,-7.485742833333332,0.2631956512007449,-0.1954768762233649,-0.09773843811168245
1403636879951666432,50.041437,238.7205146057274,6.505077833333333,0.6047434166666666,-7.207887749999999,0.22689280275926282,-0.18570303241219666,0.010471975511965976
1403636880001666560,50.144911,254.46996920555938,6.807449541666666,0.9234595416666666,-7.183371125,0.15009831567151233,-0.1780235837034216,-0.011868238913561441
1403636880051666432,49.622536,306.87052028784376,7.060788,1.2503478749999999,-7.003582541666666,0.13753194505715316,-0.1466076571675237,0.021642082724729686
1403636880101666560,49.919605,310.2922162647784,7.183371125,1.4056198333333334,-7.134337875,0.024434609527920613,-0.0991347015132779,0.05864306286700947
1403636880151666432,49.995184,388.5168403317796,7.273265416666667,1.3647587916666666,-6.693038625,-0.04468042885105484,-0.04328416544945937,0.047472955654245766
1403636880201666560,60.157061,467.14008719062883,7.117993458333333,0.7927042083333332,-6.594972124999999,-0.3134611336581816,0.12566370614359174,0.20943951023931953
1403636880251666432,42.917251,422.091586012949,7.117993458333333,0.7927042083333332,-6.594972124999999,-0.3134611336581816,0.12566370614359174,0.20943951023931953
1403636880301666560,46.940565,349.7074205531626,7.305954249999999,0.15527195833333335,-6.407011333333333,-0.4419173666049642,0.153588974175501,0.29740410453983374
1403636880351666432,49.790621,298.55910376395326,7.763597916666666,0.14709974999999997,-6.447872374999999,-0.4977679026687828,0.16964600329384885,0.31974431896536115
1403636880401666560,60.157061,279.57778966729944,7.681875833333333,-0.8744262916666666,-6.733899666666666,-0.5801474433629151,0.16964600329384885,0.3337069529813158
1403636880451666432,39.634943,276.4966690964606,7.681875833333333,-0.8744262916666666,-6.733899666666666,-0.5801474433629151,0.16964600329384885,0.3337069529813158
1403636880501666560,50.302505,303.02403227854876,7.273265416666667,-1.6344416666666666,-6.505077833333333,-0.4984660343695805,0.13892820845874865,0.2834414705238791
1403636880551666432,49.873829,335.92961918286846,7.4693984166666665,-1.6017528333333333,-6.341633666666666,-0.5187118536927147,0.08377580409572781,0.31974431896536115
1403636880601666560,50.1647,344.81163264004283,7.093476833333334,-1.9041245416666663,-6.03108975,-0.38257617203715705,-0.01117010721276371,0.22549653935766736
1403636880651666432,49.724578,290.81827336319924,7.534776083333333,-2.1492907916666666,-6.104639625,-0.3162536604613725,-0.10192722831646883,0.24294983187761068
1403636880701666560,50.228358,280.6049667139351,7.085304625,-1.8632635,-5.736890249999999,-0.1710422666954443,-0.16755160819145562,0.19198621771937624
1403636880751666432,59.735775,390.1474056287913,7.477570624999999,-1.6099250416666664,-5.524412833333333,0.024434609527920613,-0.12845623294678266,0.1361356816555577
1403636880801666560,40.179968,387.1649972678009,7.477570624999999,-1.6099250416666664,-5.524412833333333,0.024434609527920613,-0.12845623294678266,0.1361356816555577
1403636880851666432,60.820341,277.27983305261483,7.976075333333333,-1.4301364583333334,-5.410001916666666,0.23736477827122882,0.02234021442552742,0.024434609527920613
1403636880901666560,48.707008,247.15995618138737,8.164036124999999,-0.93163175,-5.213868916666666,0.2548180707911721,0.1291543646475804,-0.016057029118347832
1403636880951666432,39.629936,245.4861387909428,8.164036124999999,-0.93163175,-5.213868916666666,0.2548180707911721,0.1291543646475804,-0.016057029118347832
1403636881001666560,50.611258,258.0153603067202,8.458235625,-0.784532,-5.385485291666667,0.25202554398798116,0.21432643214490363,-0.07819075048934597
1403636881051666432,49.675941,255.17381525545744,7.951558708333333,-0.6782932916666666,-5.189352291666666,0.27646015351590175,0.2708750999095199,-0.1291543646475804
1403636881101666560,60.497523,249.44279528096197,8.245758208333333,-0.32688833333333334,-5.279246583333333,0.4237659423842232,0.21572269554649914,-0.1668534764906579
1403636881151666432,49.474716,261.3250974959948,8.302963666666667,-0.11441091666666667,-5.295591,0.507541746479951,0.16615534478986016,-0.1689478715930511
1403636881201666560,40.636063,267.0097386461163,8.302963666666667,-0.11441091666666667,-5.295591,0.507541746479951,0.16615534478986016,-0.1689478715930511
1403636881251666432,49.454927,286.4832360667846,8.450063416666666,0.3023717083333333,-5.311935416666666,0.5417501998190398,0.11239920382843484,-0.1864011641129944
1403636881301666560,61.178923,334.08134652524546,8.294791458333332,0.563882375,-5.107630208333333,0.3769911184307752,0.057246799465414,-0.2436479635784084
1403636881351666432,38.838386,415.65035494664164,8.294791458333332,0.563882375,-5.107630208333333,0.3769911184307752,0.057246799465414,-0.2436479635784084
1403636881401666560,60.365677,535.9947386362613,7.976075333333333,0.9071151249999999,-5.123974625,0.1710422666954443,0.07749261878854824,-0.25621433419276757
1403636881451666432,44.251919,455.1381458683609,7.976075333333333,0.9071151249999999,-5.123974625,0.1710422666954443,0.07749261878854824,-0.25621433419276757
1403636881501666560,50.12083,418.5598935693746,8.5317855,1.3647587916666666,-5.5407572499999995,0.09215338450530061,0.12985249634837812,-0.17383479349863523
1403636881551666432,45.711279,391.9976901724195,7.477570624999999,0.8744262916666666,-5.410001916666666,0.04468042885105484,0.1514945790731078,-0.2750638901143063
1403636881601666560,59.672356,384.27761729283253,7.240576583333333,1.103248125,-5.589790499999999,0.059341194567807204,0.09634217471008698,-0.2199114857512855
1403636881651666432,40.228844,409.01536570278705,7.240576583333333,1.103248125,-5.589790499999999,0.059341194567807204,0.09634217471008698,-0.2199114857512855
1403636881701666560,50.253391,419.91389475195257,7.763597916666666,1.1686257916666667,-5.638823749999999,-0.013962634015954637,0.06283185307179587,-0.12985249634837812
1403636881751666432,49.949407,384.4714890180742,7.518431666666666,0.784532,-5.704201416666666,-0.011868238913561441,-0.024434609527920613,-0.08517206749732328
1403636881801666560,49.989462,332.86306368583996,7.40402075,0.2860272916666666,-6.055606375,-0.13753194505715316,-0.0307177948351002,-0.02583087292951608
1403636881851666432,49.316168,317.82743954470226,7.2487487916666655,0.5311935416666667,-6.300772625,-0.1605702911834783,-0.019547687622336492,0.13543754995475996
1403636881901666560,60.763836,311.2741349795858,7.060788,0.3023717083333333,-6.742071875,-0.1668534764906579,-0.04049163864626844,0.23108159296404923
1403636881951666432,38.819313,308.8871571271121,7.060788,0.3023717083333333,-6.742071875,-0.1668534764906579,-0.04049163864626844,0.23108159296404923
1403636882001666560,60.902357,298.6240915690101,6.799277333333333,-0.17978858333333333,-6.8401383749999995,-0.17453292519943295,0.03560471674068433,0.24713862208239704
1403636882051666432,44.252157,295.37545775047084,6.799277333333333,-0.17978858333333333,-6.8401383749999995,-0.17453292519943295,0.03560471674068433,0.24713862208239704
1403636882101666560,45.538903,293.47494549164674,6.668522,-0.5883989999999999,-6.594972124999999,-0.18011797880581482,0.05166174585903216,0.2722713633111154
1403636882151666432,60.064792,306.25133539947683,6.8891716249999995,-1.2666922916666667,-6.627660958333332,-0.2303834612632515,0.1054178868204575,0.2059488517353309
1403636882201666560,45.344592,285.4519347461143,6.8891716249999995,-1.2666922916666667,-6.627660958333332,-0.2303834612632515,0.1054178868204575,0.2059488517353309
1403636882251666432,45.048952,328.64644538311063,7.265093208333333,-1.7815414166666665,-6.815621749999999,-0.21711895894809458,0.13892820845874865,0.1445132620651305
1403636882301666560,59.942007,389.6647846971893,7.755425708333333,-1.9286411666666665,-6.096467416666667,-0.010471975511965976,0.13962634015954636,0.15009831567151233
1403636882351666432,49.737453,418.7636402973423,7.804458958333332,-1.846919083333333,-5.581618291666667,0.06841690667817772,0.09704030641088471,0.050963614158234416
1403636882401666560,39.700985,383.09199958741783,7.804458958333332,-1.846919083333333,-5.581618291666667,0.06841690667817772,0.09704030641088471,0.050963614158234416
1403636882451666432,60.323,374.63372071085394,8.711574083333332,-1.3320699583333333,-4.690847583333333,0.20455258833373544,0.07051130178057091,0.07120943348136866
1403636882501666560,45.336247,366.9223071336955,8.711574083333332,-1.3320699583333333,-4.690847583333333,0.20455258833373544,0.07051130178057091,0.07120943348136866
1403636882551666432,44.186592,337.82295928437014,8.850501625,-1.201314625,-4.674503166666667,0.29251718263424964,0.1054178868204575,0.10053096491487339
1403636882601666560,49.827575,298.73536660804524,9.250939833333334,-0.7518431666666666,-4.200515083333333,0.228987197861656,0.18919369091618532,0.0013962634015954637
1403636882651666432,49.801827,277.09992065207877,9.218250999999999,-0.7927042083333332,-4.004382083333333,0.2638937829015426,0.3274237676741362,0.009773843811168246
1403636882701666560,50.397396,246.8199958896056,8.915879291666666,-0.7436709583333333,-4.020726499999999,0.3385938748868999,0.5033529562751646,-0.0013962634015954637
1403636882751666432,49.965382,252.16483174126174,8.719746291666667,-0.32688833333333334,-3.6693215416666662,0.481710873550435,0.6024876577884426,-0.03560471674068433
1403636882801666560,50.139665,266.0962532629372,8.425546791666665,-0.4004382083333333,-3.947176625,0.4740314248416599,0.6366961111275314,-0.12077678423800758
1403636882851666432,49.84498,306.2215981738991,8.131347291666666,-0.196133,-3.7346992083333332,0.5166174585903216,0.6003932626860493,-0.12566370614359174
1403636882901666560,60.646534,320.3936926261242,8.368341333333333,-0.4004382083333333,-3.9144877916666663,0.5319763560078716,0.2708750999095199,-0.059341194567807204
1403636882951666432,42.637587,326.18850096302367,8.368341333333333,-0.4004382083333333,-3.9144877916666663,0.5319763560078716,0.2708750999095199,-0.059341194567807204
1403636883001666560,46.910524,300.1354095144614,8.613507583333332,-0.7109821249999999,-4.028898708333333,0.49288098076319864,0.10192722831646883,-0.07819075048934597
1403636883051666432,60.071945,320.1196321982295,9.013945791666666,-0.5557101666666666,-4.2822371666666665,0.3239331091701475,0.03560471674068433,-0.11379546723003027
1403636883101666560,44.97552,369.5693897827818,9.013945791666666,-0.5557101666666666,-4.2822371666666665,0.3239331091701475,0.03560471674068433,-0.11379546723003027
1403636883151666432,54.874897,381.29273563785455,8.940395916666665,-0.5311935416666667,-4.069759749999999,0.15428710587629874,0.1759291886010284,-0.17523105690023066
1403636883201666560,39.810657,423.0740108727418,8.940395916666665,-0.5311935416666667,-4.069759749999999,0.15428710587629874,0.1759291886010284,-0.17523105690023066
1403636883251666432,50.176859,407.85121259991064,9.193734375,-0.3759215833333333,-3.9880376666666666,0.14521139376592823,0.1884955592153876,-0.13892820845874865
1403636883301666560,50.432682,436.98136051933767,9.242767624999999,-0.23699404166666665,-4.249548333333333,0.18430676901060122,0.18360863730980345,0.0013962634015954637
1403636883351666432,49.740791,491.00597840890464,9.618689208333333,-0.08989429166666667,-3.8899711666666663,0.11938052083641214,0.1228711793404008,0.0006981317007977319
1403636883401666560,50.438643,492.0248414255538,9.536967125,-0.32688833333333334,-3.9390044166666667,0.14730578886832138,0.10332349171806432,0.09075712110370514
1403636883451666432,59.640646,543.7496857665416,9.749444541666666,-0.196133,-3.759215833333333,0.15707963267948966,0.19198621771937624,0.02652900463031381
1403636883501666560,40.155172,509.02879663593563,9.749444541666666,-0.196133,-3.759215833333333,0.15707963267948966,0.19198621771937624,0.02652900463031381
1403636883551666432,50.132036,478.0874392006217,9.177389958333332,-0.8172208333333333,-3.3751220416666667,0.1340412865531645,0.239459173373622,-0.033510321638291124
1403636883601666560,59.53908,516.598183406041,9.234595416666666,-0.6782932916666666,-3.260711125,0.18709929581379212,0.13264502315156904,0.048869219055841226
1403636883651666432,40.163517,503.13667254625483,9.234595416666666,-0.6782932916666666,-3.260711125,0.18709929581379212,0.13264502315156904,0.048869219055841226
1403636883701666560,50.395012,537.4038431600073,9.667722458333333,-0.220649625,-3.358777625,0.1096066770252439,0.041189770347066175,-0.10402162341886204
1403636883751666432,49.514532,585.8995032992003,9.389867375,-0.2860272916666666,-3.1544724166666662,0.11030480872604163,0.030019663134302467,0.06632251157578452
1403636883801666560,55.312395,571.832471229665,8.809640583333332,-0.42495483333333334,-3.015544875,0.059341194567807204,0.023736477827122883,0.0307177948351002
1403636883851666432,48.387051,588.9976193780163,9.471589458333332,-0.220649625,-3.18716125,0.15638150097869194,0.06422811647339133,0.2366666465704311
1403636883901666560,56.569576,572.6244853185045,9.471589458333332,-0.42495483333333334,-3.0073726666666665,0.03769911184307752,0.04328416544945937,0.041887902047863905
1403636883951666432,39.940119,594.0316266707489,9.471589458333332,-0.42495483333333334,-3.0073726666666665,0.03769911184307752,0.04328416544945937,0.041887902047863905
1403636884001666560,50.266504,536.6340292090156,12.470789916666666,-0.5883989999999999,-4.584608875,0.07330382858376185,0.17174039839624203,0.10611601852125524
1403636884051666432,59.686661,540.1588224151232,8.9240515,-0.04086104166666667,-2.8357562916666668,0.11588986233242347,0.11100294042683936,0.13473941825396224
1403636884101666560,50.219059,475.76362533094243,9.643205833333333,-0.8825985,-2.803067458333333,-0.14172073526193954,0.06771877497737998,-0.2792526803190927
1403636884151666432,39.794207,605.181407906332,9.643205833333333,-0.8825985,-2.803067458333333,-0.14172073526193954,0.06771877497737998,-0.2792526803190927
1403636884201666560,60.397148,644.1464845214325,9.112012291666666,-0.07354987499999999,-2.288218333333333,-0.028623399732707,0.1780235837034216,0.02024581932313422
1403636884251666432,40.339946,571.2619504525361,9.112012291666666,-0.07354987499999999,-2.288218333333333,-0.028623399732707,0.1780235837034216,0.02024581932313422
1403636884301666560,59.498072,576.76861068447,9.177389958333332,0.16344416666666667,-2.9583394166666666,0.02024581932313422,0.04468042885105484,0.10192722831646883
1403636884351666432,39.993763,659.7786275301468,9.177389958333332,0.16344416666666667,-2.9583394166666666,0.02024581932313422,0.04468042885105484,0.10192722831646883
1403636884401666560,49.53146,654.029337503673,9.422556208333333,-0.5148491249999999,-2.427145875,0.005585053606381855,0.02234021442552742,0.09075712110370514
1403636884451666432,60.029268,652.5352850285539,8.719746291666667,-0.04903325,-2.3699404166666667,0.0,0.050963614158234416,0.10192722831646883
1403636884501666560,40.418863,650.2537799191077,8.719746291666667,-0.04903325,-2.3699404166666667,0.0,0.050963614158234416,0.10192722831646883
1403636884551666432,60.8809,656.0062382537715,9.635033625,-0.34323275000000003,-2.623278875,0.01117010721276371,0.0439822971502571,0.09285151620609833
1403636884601666560,45.506,657.7972715543225,9.316317499999998,-0.122583125,-2.5333845833333335,0.00767944870877505,0.04817108735504349,0.09634217471008698
1403636884651666432,43.282748,658.4919641284285,10.198916,-0.4739880833333333,-2.7622064166666664,0.006981317007977318,0.013264502315156905,0.08237954069413235
1403636884701666560,60.492754,652.0357275298526,9.332661916666666,-0.16344416666666667,-2.4925235416666665,0.016755160819145562,-0.00767944870877505,0.09704030641088471
1403636884751666432,49.796343,661.8354013410972,9.438900625,-0.6292600416666666,-2.655967708333333,-0.006283185307179587,0.02722713633111154,0.05026548245743669
1403636884801666560,40.14182,660.4479242879949,9.438900625,-0.6292600416666666,-2.655967708333333,-0.006283185307179587,0.02722713633111154,0.05026548245743669
1403636884851666432,50.846816,663.3585911434802,9.528794916666666,-0.35957716666666667,-2.557901208333333,0.016057029118347832,0.02583087292951608,0.10262536001726656
1403636884901666560,61.0466,659.961374818844,9.357178541666666,-0.612915625,-2.5088679583333335,0.012566370614359173,0.006981317007977318,0.10262536001726656
1403636884951666432,38.489818,661.8470032723071,9.357178541666666,-0.612915625,-2.5088679583333335,0.012566370614359173,0.006981317007977318,0.10262536001726656
1403636885001666560,50.043107,661.7255517894644,9.422556208333333,-0.29419949999999995,-2.5333845833333335,-0.0027925268031909274,0.01884955592153876,0.05794493116621174
1403636885051666432,55.125236,662.3375693650842,9.422556208333333,-0.5883989999999999,-2.5660734166666663,-0.0020943951023931952,0.023736477827122883,0.08168140899333462
1403636885101666560,44.843912,664.231494167265,9.528794916666666,-0.22882183333333334,-2.606934458333333,0.0,0.024434609527920613,0.08237954069413235
1403636885151666432,49.966097,663.9557662712816,9.414383999999998,-0.45764366666666667,-2.557901208333333,-0.009075712110370514,0.012566370614359173,0.07190756518216637
1403636885201666560,55.193424,666.6721872130141,9.438900625,-0.4004382083333333,-2.655967708333333,0.0041887902047863905,0.020943951023931952,0.08936085770210968
1403636885251666432,44.711352,665.3708687994763,9.26728425,-0.3840937916666667,-2.4516625,-0.008377580409572781,0.013962634015954637,0.06073745796940267
1403636885301666560,60.179948,666.1469847752022,9.308145291666667,-0.32688833333333334,-2.476179125,-0.005585053606381855,0.020943951023931952,0.08237954069413235
1403636885351666432,39.920092,667.7684719489899,9.308145291666667,-0.32688833333333334,-2.476179125,-0.005585053606381855,0.020943951023931952,0.08237954069413235
1403636885401666560,49.589157,666.7162092290238,9.46341725,-0.4739880833333333,-2.672312125,-0.006981317007977318,0.016057029118347832,0.07120943348136866
1403636885451666432,49.909592,665.697964550383,9.561483749999999,-0.35957716666666667,-2.5905900416666663,-0.003490658503988659,0.023736477827122883,0.07190756518216637
1403636885501666560,55.91917,666.4248085955182,9.46341725,-0.3759215833333333,-2.5660734166666663,-0.003490658503988659,0.019547687622336492,0.07749261878854824
1403636885551666432,43.740273,666.9478779069863,9.438900625,-0.43312704166666666,-2.5415567916666664,-0.0041887902047863905,0.014660765716752367,0.0767944870877505
1403636885601666560,60.842514,664.8847348219018,9.422556208333333,-0.45764366666666667,-2.5252123749999997,-0.0027925268031909274,0.017453292519943295,0.06562437987498679
1403636885651666432,49.20721,665.4693021571304,9.471589458333332,-0.392266,-2.582417833333333,0.0013962634015954637,0.0153588974175501,0.09215338450530061
1403636885701666560,52.558661,666.2264231226624,9.455245041666666,-0.3840937916666667,-2.6151066666666667,-0.0041887902047863905,0.029321531433504733,0.06073745796940267
1403636885751666432,47.456503,664.990916185649,9.528794916666666,-0.4004382083333333,-2.5170401666666664,-0.0027925268031909274,0.0153588974175501,0.08587019919812101
1403636885801666560,45.237064,665.5327134786253,9.528794916666666,-0.4004382083333333,-2.5170401666666664,-0.0027925268031909274,0.0153588974175501,0.08587019919812101
1403636885851666432,44.995785,664.0561626588401,9.520622708333333,-0.4985047083333333,-2.623278875,-0.0041887902047863905,0.029321531433504733,0.07051130178057091
1403636885901666560,50.388098,666.6270093401489,9.340834124999999,-0.29419949999999995,-2.5660734166666663,-0.0013962634015954637,0.005585053606381855,0.0942477796076938
1403636885951666432,49.733638,663.877517511473,9.381695166666667,-0.4903325,-2.557901208333333,-0.006981317007977318,0.02583087292951608,0.056548667764616284
1403636886001666560,49.859286,665.519824484545,9.381695166666667,-0.392266,-2.476179125,0.006283185307179587,0.020943951023931952,0.09704030641088471
1403636886051666432,55.057049,665.6224745682167,9.569655958333334,-0.3023717083333333,-2.680484333333333,-0.006283185307179587,0.020943951023931952,0.059341194567807204
1403636886101666560,59.169292,664.5458235330477,9.308145291666667,-0.3023717083333333,-2.5170401666666664,-0.0020943951023931952,0.017453292519943295,0.08098327729253688
1403636886151666432,45.330524,664.5452977398136,9.373522958333332,-0.5557101666666666,-2.5170401666666664,-0.006981317007977318,0.02024581932313422,0.07120943348136866
1403636886201666560,40.536643,666.9379183635228,9.373522958333332,-0.5557101666666666,-2.5170401666666664,-0.006981317007977318,0.02024581932313422,0.07120943348136866
1403636886251666432,50.411701,665.0085800875848,9.46341725,-0.35957716666666667,-2.631451083333333,0.0,0.02722713633111154,0.0879645943005142
1403636886301666560,49.9053,665.2247963317453,9.398039583333333,-0.4004382083333333,-2.5006957499999998,-0.006981317007977318,0.020943951023931952,0.0635299847725936
1403636886351666432,49.906015,666.7018175919471,9.5124505,-0.44129925,-2.6477955,0.003490658503988659,0.0153588974175501,0.09005898940290741
1403636886401666560,50.212384,665.2425272317846,9.471589458333332,-0.3023717083333333,-2.557901208333333,-0.004886921905584123,0.01815142422074103,0.07051130178057091
1403636886451666432,49.323558,664.1888950957415,9.438900625,-0.4903325,-2.623278875,-0.003490658503988659,0.01884955592153876,0.08028514559173915
1403636886501666560,50.584793,662.3991512769719,9.422556208333333,-0.3840937916666667,-2.4925235416666665,-0.0006981317007977319,0.025132741228718346,0.07888888219014369
1403636886551666432,49.487591,663.6077205794074,9.316317499999998,-0.42495483333333334,-2.606934458333333,-0.005585053606381855,0.021642082724729686,0.07819075048934597
1403636886601666560,50.61698,665.0896591122743,9.373522958333332,-0.3840937916666667,-2.5088679583333335,-0.0013962634015954637,0.023038346126325153,0.08028514559173915
1403636886651666432,49.552679,662.4090605587621,9.438900625,-0.3759215833333333,-2.582417833333333,-0.0006981317007977319,0.023038346126325153,0.07819075048934597
1403636886701666560,60.556888,662.5778097655216,9.504278291666665,-0.392266,-2.6477955,0.0,0.013264502315156905,0.07819075048934597
1403636886751666432,38.630248,663.0392582281735,9.504278291666665,-0.392266,-2.6477955,0.0,0.013264502315156905,0.07819075048934597
1403636886801666560,50.727129,663.1463759503016,9.422556208333333,-0.40861041666666664,-2.5660734166666663,-0.003490658503988659,0.02234021442552742,0.07260569688296412
1403636886851666432,55.567264,663.5760244613207,9.520622708333333,-0.40861041666666664,-2.655967708333333,0.0013962634015954637,0.019547687622336492,0.08028514559173915
1403636886901666560,54.44932,663.2109270698912,9.455245041666666,-0.392266,-2.59876225,-0.0027925268031909274,0.021642082724729686,0.07539822368615504
1403636886951666432,39.503813,663.2258015563623,9.455245041666666,-0.392266,-2.59876225,-0.0027925268031909274,0.021642082724729686,0.07539822368615504
1403636887001666560,60.187578,663.273544490076,9.430728416666666,-0.367749375,-2.574245625,0.0027925268031909274,0.019547687622336492,0.08168140899333462
1403636887051666432,39.468765,661.8970621900673,9.430728416666666,-0.367749375,-2.574245625,0.0027925268031909274,0.019547687622336492,0.08168140899333462
1403636887101666560,60.814381,662.3016923728948,9.340834124999999,-0.392266,-2.5415567916666664,0.0020943951023931952,0.019547687622336492,0.08726646259971647
1403636887151666432,50.670147,662.3910096410311,9.291800875,-0.40861041666666664,-2.5333845833333335,0.003490658503988659,0.03560471674068433,0.08098327729253688
1403636887201666560,39.273977,661.5201599779615,9.291800875,-0.40861041666666664,-2.5333845833333335,0.003490658503988659,0.03560471674068433,0.08098327729253688
1403636887251666432,50.311327,660.6522408130314,9.594172583333334,-0.48216029166666663,-2.5905900416666663,-0.0020943951023931952,0.013962634015954637,0.0747000919853573
1403636887301666560,49.85404,660.0647724220032,9.561483749999999,-0.416782625,-2.7131731666666665,-0.006283185307179587,0.010471975511965976,0.07190756518216637
1403636887351666432,49.906016,660.6803714509091,9.406211791666665,-0.3105439166666667,-2.459834708333333,-0.0020943951023931952,0.030019663134302467,0.07958701389094143
1403636887401666560,49.891471,662.056063554951,9.430728416666666,-0.4985047083333333,-2.655967708333333,-0.005585053606381855,0.013962634015954637,0.07190756518216637
1403636887451666432,55.21679,661.9663391030314,9.447072833333333,-0.367749375,-2.5252123749999997,0.0006981317007977319,0.021642082724729686,0.0879645943005142
1403636887501666560,44.448137,662.4573317634503,9.504278291666665,-0.43312704166666666,-2.6886565416666666,-0.006981317007977318,0.01884955592153876,0.07051130178057091
1403636887551666432,50.482512,662.6749913437284,9.349006333333334,-0.392266,-2.4925235416666665,0.0020943951023931952,0.02234021442552742,0.08237954069413235
1403636887601666560,49.892902,661.91880315501,9.447072833333333,-0.367749375,-2.574245625,-0.005585053606381855,0.024434609527920613,0.07609635538695278
1403636887651666432,50.162792,661.256595623814,9.528794916666666,-0.5311935416666667,-2.5905900416666663,-0.0020943951023931952,0.013962634015954637,0.0767944870877505
1403636887701666560,50.042629,661.5134628259519,9.438900625,-0.35957716666666667,-2.574245625,0.0,0.025132741228718346,0.08098327729253688
1403636887751666432,49.579621,661.8462519564654,9.340834124999999,-0.4739880833333333,-2.557901208333333,-0.006981317007977318,0.019547687622336492,0.0747000919853573
1403636887801666560,50.246238,661.0952939665618,9.447072833333333,-0.32688833333333334,-2.5415567916666664,0.0027925268031909274,0.02722713633111154,0.08587019919812101
1403636887851666432,59.679985,661.2771072690169,9.504278291666665,-0.392266,-2.4843513333333336,0.0006981317007977319,0.010471975511965976,0.08377580409572781
1403636887901666560,46.973229,660.385284334828,9.381695166666667,-0.43312704166666666,-2.574245625,-0.0027925268031909274,0.008377580409572781,0.07120943348136866
1403636887951666432,53.580522,661.104593079057,9.373522958333332,-0.3840937916666667,-2.5252123749999997,0.0006981317007977319,0.017453292519943295,0.08098327729253688
1403636888001666560,39.546967,661.8030776748902,9.373522958333332,-0.3840937916666667,-2.5252123749999997,0.0006981317007977319,0.017453292519943295,0.08098327729253688
1403636888051666432,50.315142,662.0454565221464,9.414383999999998,-0.40861041666666664,-2.606934458333333,-0.0013962634015954637,0.023038346126325153,0.07888888219014369
1403636888101666560,59.70025,661.4803776187109,9.422556208333333,-0.45764366666666667,-2.5333845833333335,-0.0020943951023931952,0.01815142422074103,0.0767944870877505
1403636888151666432,39.754868,662.5128059364644,9.422556208333333,-0.45764366666666667,-2.5333845833333335,-0.0020943951023931952,0.01815142422074103,0.0767944870877505
1403636888201666560,50.234556,661.6726017850336,9.316317499999998,-0.44129925,-2.5252123749999997,-0.0006981317007977319,0.010471975511965976,0.07819075048934597
1403636888251666432,60.225964,662.0353231248557,9.406211791666665,-0.42495483333333334,-2.574245625,-0.0013962634015954637,0.025132741228718346,0.07749261878854824
1403636888301666560,44.590711,660.9100125314023,9.406211791666665,-0.42495483333333334,-2.574245625,-0.0013962634015954637,0.025132741228718346,0.07749261878854824
1403636888351666432,59.392214,661.9164698827344,9.471589458333332,-0.4985047083333333,-2.582417833333333,-0.0041887902047863905,0.016057029118347832,0.07120943348136866
1403636888401666560,46.033144,660.4175367458596,9.430728416666666,-0.32688833333333334,-2.606934458333333,-0.0013962634015954637,0.02024581932313422,0.08656833089891874
1403636888451666432,39.817095,661.0447465722976,9.430728416666666,-0.32688833333333334,-2.606934458333333,-0.0013962634015954637,0.02024581932313422,0.08656833089891874
1403636888501666560,50.405741,662.0076641684219,9.504278291666665,-0.416782625,-2.574245625,-0.006981317007977318,0.023038346126325153,0.07051130178057091
1403636888551666432,49.892425,660.3433934085238,9.496106083333332,-0.42495483333333334,-2.549729,0.0006981317007977319,0.023038346126325153,0.08307767239493008
1403636888601666560,60.738802,594.497606724665,10.427737833333332,0.4004382083333333,-3.0564059166666664,0.11728612573401893,-0.009773843811168246,0.04677482395344803
1403636888651666432,43.801308,551.3794911596252,10.427737833333332,0.4004382083333333,-3.0564059166666664,0.11728612573401893,-0.009773843811168246,0.04677482395344803
1403636888701666560,44.920921,433.9247844643586,10.370532375,-1.054214875,-2.6151066666666667,0.18291050560900574,-0.023038346126325153,0.004886921905584123
1403636888751666432,49.959421,431.68041299332083,10.378704583333333,-0.980665,-2.5660734166666663,0.2324778563656447,-0.03630284844148206,-0.03490658503988659
1403636888801666560,60.605288,575.2845734453908,9.455245041666666,-2.1656352083333332,-2.132946375,0.08587019919812101,-0.08587019919812101,0.039793506945470715
1403636888851666432,39.939403,582.3438738934158,9.455245041666666,-2.1656352083333332,-2.132946375,0.08587019919812101,-0.08587019919812101,0.039793506945470715
1403636888901666560,60.807944,646.221318065359,8.785123958333333,-1.5118585416666666,-2.231012875,0.0020943951023931952,0.032812189937493394,0.04468042885105484
1403636888951666432,48.847675,643.5639886093925,8.793296166666666,-1.9940188333333333,-1.8796079166666666,0.021642082724729686,-0.0027925268031909274,0.05026548245743669
1403636889001666560,52.82712,602.466964128428,9.210078791666666,-1.22583125,-2.4108014583333333,0.09354964790689606,0.004886921905584123,0.039095375244672985
1403636889051666432,36.812305,623.7845083508026,9.210078791666666,-1.22583125,-2.4108014583333333,0.09354964790689606,0.004886921905584123,0.039095375244672985
1403636889101666560,50.316334,606.8095481474146,9.087495666666666,-2.239185083333333,-2.3699404166666667,0.04258603374866164,-0.003490658503988659,0.03630284844148206
1403636889151666432,60.22501,646.781575693952,7.371331916666667,-0.008172208333333333,-1.22583125,-0.023736477827122883,0.04817108735504349,0.07819075048934597
1403636889201666560,39.612055,598.8522449108006,7.371331916666667,-0.008172208333333333,-1.22583125,-0.023736477827122883,0.04817108735504349,0.07819075048934597
1403636889251666432,50.560713,612.8813536535736,7.305954249999999,-0.44129925,-1.4137920416666665,-0.08726646259971647,0.07539822368615504,0.11588986233242347
1403636889301666560,59.444189,616.2290657493139,9.291800875,0.11441091666666667,-2.623278875,-0.06213372137099814,0.032812189937493394,0.10053096491487339
1403636889351666432,40.935993,638.4441217374422,9.291800875,0.11441091666666667,-2.623278875,-0.06213372137099814,0.032812189937493394,0.10053096491487339
1403636889401666560,49.252033,651.8528374342166,9.275456458333332,-0.5802267916666666,-2.574245625,-0.029321531433504733,0.050963614158234416,0.0879645943005142
1403636889451666432,49.775362,646.3063598035999,9.888372083333332,-0.6537766666666667,-2.5333845833333335,0.07260569688296412,-0.009773843811168246,0.06562437987498679
1403636889501666560,60.441494,655.8913873500007,9.005773583333333,-1.2666922916666667,-2.5170401666666664,-0.031415926535897934,0.024434609527920613,0.06283185307179587
1403636889551666432,44.655323,654.7598819899715,9.005773583333333,-1.2666922916666667,-2.5170401666666664,-0.031415926535897934,0.024434609527920613,0.06283185307179587
1403636889601666560,45.347214,638.082913480595,8.409202375,-0.18796079166666665,-2.0348798749999997,0.009075712110370514,0.023038346126325153,0.0747000919853573
1403636889651666432,60.650349,625.2307443152725,9.782133375,0.3105439166666667,-2.7703786249999998,-0.005585053606381855,0.06073745796940267,0.09354964790689606
1403636889701666560,49.014091,618.9948528686789,9.332661916666666,-0.9234595416666666,-2.378112625,-0.009075712110370514,0.0,0.13055062804917586
1403636889751666432,39.843082,650.4182233306728,9.332661916666666,-0.9234595416666666,-2.378112625,-0.009075712110370514,0.0,0.13055062804917586
1403636889801666560,50.527335,623.3462631615555,9.226423208333333,0.196133,-2.606934458333333,-0.0942477796076938,0.05864306286700947,0.08517206749732328
1403636889851666432,60.489177,647.274899506771,9.357178541666666,1.5363751666666667,-2.9501672083333332,-0.011868238913561441,0.04817108735504349,0.11379546723003027
1403636889901666560,39.241791,573.380409142029,9.357178541666666,1.5363751666666667,-2.9501672083333332,-0.011868238913561441,0.04817108735504349,0.11379546723003027
1403636889951666432,50.106049,586.0878445657609,9.299973083333333,-0.8580818749999999,-2.3944570416666666,-0.08656833089891874,0.03700098014227979,0.12845623294678266
1403636890001666560,50.144434,529.1006962031922,8.915879291666666,-0.7109821249999999,-2.4925235416666665,-0.15009831567151233,0.032114058236695664,0.15289084247470325
1403636890051666432,49.500465,493.49254353803565,8.915879291666666,0.9398039583333333,-2.99102825,-0.18011797880581482,0.06981317007977318,0.14870205226991687
1403636890101666560,50.439596,546.1439280860939,8.825985,1.1767979999999998,-2.852100708333333,-0.05864306286700947,0.11868238913561441,0.12077678423800758
1403636890151666432,49.605847,582.3389952910246,9.675894666666666,1.1441091666666665,-2.9256505833333333,0.020943951023931952,0.11938052083641214,0.05794493116621174
1403636890201666560,50.40431,546.134897130104,10.378704583333333,0.35957716666666667,-2.8194118749999997,0.10471975511965977,0.048869219055841226,0.027925268031909273
1403636890251666432,50.055504,561.4153676959621,10.509459916666668,-0.5720545833333333,-2.6477955,0.11798425743481668,-0.05166174585903216,0.03630284844148206
1403636890301666560,49.943208,600.0522022582139,9.896544291666666,-1.6262694583333333,-2.4843513333333336,0.02652900463031381,-0.09354964790689606,0.08377580409572781
1403636890351666432,59.637309,580.9627089682067,8.115002875,0.04086104166666667,-2.655967708333333,-0.12147491593880534,0.039095375244672985,0.13892820845874865
1403636890401666560,40.140867,541.3250800058738,8.115002875,0.04086104166666667,-2.655967708333333,-0.12147491593880534,0.039095375244672985,0.13892820845874865
1403636890451666432,60.772896,551.3211266006047,9.569655958333334,0.784532,-2.754034208333333,0.017453292519943295,0.12636183784438945,0.04677482395344803
1403636890501666560,40.128946,596.6393655919715,9.569655958333334,0.784532,-2.754034208333333,0.017453292519943295,0.12636183784438945,0.04677482395344803
1403636890551666432,61.006784,529.1924120962276,10.828176041666667,-0.7191543333333333,-2.631451083333333,0.12636183784438945,-0.059341194567807204,0.0153588974175501
1403636890601666560,58.612347,535.1310068883245,9.626861416666666,-1.5772362083333331,-2.1002575416666667,0.060039326268604934,-0.09285151620609833,0.07888888219014369
1403636890651666432,40.854692,583.035680085541,8.499096666666667,-1.593580625,-2.3454237916666667,-0.07539822368615504,-0.0439822971502571,0.114493598930828
1403636890701666560,39.558888,571.575538398509,8.499096666666667,-1.593580625,-2.3454237916666667,-0.07539822368615504,-0.0439822971502571,0.114493598930828
1403636890751666432,50.293684,535.8790376009273,8.213069375,-0.7681875833333334,-2.3535959999999996,-0.13753194505715316,0.013962634015954637,0.14381513036433274
1403636890801666560,49.063206,543.1112062757218,8.482752249999999,0.29419949999999995,-2.7948952499999997,-0.0991347015132779,0.09494591130849153,0.1228711793404008
1403636890851666432,50.230264,574.8520693444522,9.013945791666666,1.3402421666666664,-2.59876225,-0.047472955654245766,0.1494001839707146,0.06841690667817772
1403636890901666560,60.2839,629.6248741321823,11.138719958333333,-0.07354987499999999,-2.778550833333333,-0.02024581932313422,0.032812189937493394,0.09983283321407566
1403636890951666432,39.69717,654.2256318649968,11.138719958333333,-0.07354987499999999,-2.778550833333333,-0.02024581932313422,0.032812189937493394,0.09983283321407566
1403636891001666560,49.623728,653.1904298893849,9.626861416666666,0.24516625,-2.729517583333333,-0.010471975511965976,-0.006981317007977318,0.1075122819228507
1403636891051666432,61.188698,649.4433691744875,9.659550249999999,0.024516625,-2.729517583333333,-0.010471975511965976,0.047472955654245766,0.09354964790689606
1403636891101666560,48.760414,650.7312766065205,9.103840083333333,0.14709974999999997,-2.4108014583333333,-0.0153588974175501,0.02652900463031381,0.09354964790689606
1403636891151666432,40.260315,652.2696059806502,9.103840083333333,0.14709974999999997,-2.4108014583333333,-0.0153588974175501,0.02652900463031381,0.09354964790689606
1403636891201666560,49.466848,653.930126707761,9.471589458333332,-0.122583125,-2.705000958333333,-0.02652900463031381,0.033510321638291124,0.07958701389094143
1403636891251666432,65.903902,656.0116655328992,9.316317499999998,-0.48216029166666663,-2.557901208333333,-0.006283185307179587,0.017453292519943295,0.07260569688296412
1403636891301666560,33.92911,656.7907366802369,9.316317499999998,-0.48216029166666663,-2.557901208333333,-0.006283185307179587,0.017453292519943295,0.07260569688296412
1403636891351666432,50.806999,658.2862852699068,9.398039583333333,-0.4004382083333333,-2.672312125,0.009075712110370514,0.03700098014227979,0.07190756518216637
1403636891401666560,59.41844,656.6924951503439,9.46341725,-0.196133,-2.4925235416666665,0.0,0.02024581932313422,0.09005898940290741
1403636891451666432,50.961494,657.4969294827338,9.618689208333333,-0.29419949999999995,-2.4843513333333336,-0.0041887902047863905,0.033510321638291124,0.0767944870877505
1403636891501666560,48.582077,657.7735589673291,9.414383999999998,-0.3840937916666667,-2.5905900416666663,-0.0041887902047863905,0.009773843811168246,0.07958701389094143
1403636891551666432,40.142059,658.4811092772552,9.414383999999998,-0.3840937916666667,-2.5905900416666663,-0.0041887902047863905,0.009773843811168246,0.07958701389094143
1403636891601666560,60.77838,657.7833717160072,9.561483749999999,-0.367749375,-2.59876225,0.0013962634015954637,0.029321531433504733,0.06911503837897544
1403636891651666432,49.027681,657.589991031476,9.487933875,-0.3350605416666666,-2.5170401666666664,-0.0020943951023931952,0.013962634015954637,0.07260569688296412
1403636891701666560,39.759159,657.4078565600624,9.487933875,-0.3350605416666666,-2.5170401666666664,-0.0020943951023931952,0.013962634015954637,0.07260569688296412
1403636891751666432,61.468125,654.6192311754944,9.406211791666665,-0.196133,-2.549729,-0.017453292519943295,0.029321531433504733,0.08656833089891874
1403636891801666560,49.077272,657.2746878530451,9.291800875,-0.5802267916666666,-2.557901208333333,-0.014660765716752367,0.023736477827122883,0.07120943348136866
1403636891851666432,40.100813,655.7145533718598,9.291800875,-0.5802267916666666,-2.557901208333333,-0.014660765716752367,0.023736477827122883,0.07120943348136866
1403636891901666560,60.692787,658.7866375882547,9.586000375,-0.465815875,-2.557901208333333,0.0013962634015954637,0.017453292519943295,0.07120943348136866
1403636891951666432,43.236494,657.2129174239803,9.586000375,-0.465815875,-2.557901208333333,0.0013962634015954637,0.017453292519943295,0.07120943348136866
1403636892001666560,45.671702,655.6086364662899,9.250939833333334,-0.35140495833333335,-2.4434902916666665,-0.0041887902047863905,0.02583087292951608,0.0879645943005142
1403636892051666432,60.646295,658.2408371797594,9.872027666666666,-0.5230213333333333,-2.6641399166666666,-0.00767944870877505,0.024434609527920613,0.07120943348136866
1403636892101666560,49.042225,658.056021206765,8.997601374999999,-0.35140495833333335,-2.263701708333333,-0.0013962634015954637,0.020943951023931952,0.0879645943005142
1403636892151666432,40.495634,656.8197384769502,8.997601374999999,-0.35140495833333335,-2.263701708333333,-0.0013962634015954637,0.020943951023931952,0.0879645943005142
1403636892201666560,59.86023,655.6502419786448,9.667722458333333,-0.48216029166666663,-2.623278875,0.005585053606381855,0.013962634015954637,0.07888888219014369
1403636892251666432,44.725179,657.3866748590193,9.667722458333333,-0.48216029166666663,-2.623278875,0.005585053606381855,0.013962634015954637,0.07888888219014369
1403636892301666560,45.482397,630.2673699189423,9.602344791666665,-0.22882183333333334,-2.672312125,-0.05305800926062762,0.027925268031909273,0.08168140899333462
1403636892351666432,50.046921,630.4263518178448,8.768779541666666,0.10623870833333333,-2.3862848333333333,-0.041887902047863905,0.05864306286700947,0.10681415022205297
1403636892401666560,59.951306,633.1023074263227,9.299973083333333,0.14709974999999997,-2.5006957499999998,-0.0307177948351002,0.06492624817418906,0.0879645943005142
1403636892451666432,40.041208,637.5790038067736,9.299973083333333,0.14709974999999997,-2.5006957499999998,-0.0307177948351002,0.06492624817418906,0.0879645943005142
1403636892501666560,49.735308,646.1473978861898,9.381695166666667,0.04086104166666667,-2.582417833333333,-0.016755160819145562,0.06422811647339133,0.09215338450530061
1403636892551666432,50.095081,649.9137240201024,9.896544291666666,0.008172208333333333,-2.966511625,-0.016057029118347832,0.009075712110370514,0.08447393579652555
1403636892601666560,50.070763,650.174968209283,10.019127416666667,0.032688833333333334,-2.680484333333333,-0.006981317007977318,-0.008377580409572781,0.09704030641088471
1403636892651666432,49.787759,652.4385389048648,9.635033625,-0.3105439166666667,-2.8194118749999997,-0.006283185307179587,0.023038346126325153,0.07190756518216637
1403636892701666560,52.214384,652.9478961966953,9.316317499999998,-0.04903325,-2.5170401666666664,-0.012566370614359173,0.016755160819145562,0.10053096491487339
1403636892751666432,59.667826,649.3327581295904,9.675894666666666,-0.9152873333333333,-2.672312125,-0.006981317007977318,0.011868238913561441,0.07958701389094143
1403636892801666560,38.537264,655.3419609812845,9.675894666666666,-0.9152873333333333,-2.672312125,-0.006981317007977318,0.011868238913561441,0.07958701389094143
1403636892851666432,61.999798,650.000927833107,9.038462416666666,-0.45764366666666667,-2.4680069166666665,-0.023038346126325153,0.04328416544945937,0.07051130178057091
1403636892901666560,62.011003,648.7794454498696,9.438900625,-0.08172208333333333,-2.6396232916666666,-0.012566370614359173,0.031415926535897934,0.09075712110370514
1403636892951666432,40.644646,646.7067557549005,9.177389958333332,-0.35957716666666667,-2.5905900416666663,0.0041887902047863905,0.012566370614359173,0.07749261878854824
1403636893001666560,39.684057,648.2726565034308,9.177389958333332,-0.35957716666666667,-2.5905900416666663,0.0041887902047863905,0.012566370614359173,0.07749261878854824
1403636893051666432,45.486689,650.9800815774803,10.133538333333334,-0.5475379583333333,-3.0727503333333335,-0.00767944870877505,0.020943951023931952,0.08168140899333462
1403636893101666560,60.510158,652.4021978894233,9.561483749999999,-0.4903325,-2.4680069166666665,-0.016755160819145562,0.014660765716752367,0.07609635538695278
1403636893151666432,49.631596,654.2202591173017,9.26728425,-0.5802267916666666,-2.574245625,-0.02234021442552742,0.0153588974175501,0.0747000919853573
1403636893201666560,40.294886,653.9150546545095,9.26728425,-0.5802267916666666,-2.574245625,-0.02234021442552742,0.0153588974175501,0.0747000919853573
1403636893251666432,49.781799,652.1661457503197,9.389867375,-0.24516625,-2.582417833333333,-0.016057029118347832,0.03700098014227979,0.08726646259971647
1403636893301666560,51.296949,652.0662915808949,9.161045541666667,-0.5230213333333333,-2.4516625,-0.009773843811168246,0.01884955592153876,0.057246799465414
1403636893351666432,60.494185,651.1103922507546,9.128356708333332,-0.10623870833333333,-2.4189736666666666,-0.006981317007977318,0.04328416544945937,0.06073745796940267
1403636893401666560,49.447775,652.0664157103112,9.994610791666668,-0.6782932916666666,-2.941995,-0.009773843811168246,0.012566370614359173,0.07051130178057091
1403636893451666432,49.600124,652.4106978604912,9.144701125,-0.3105439166666667,-2.427145875,0.0020943951023931952,0.030019663134302467,0.06771877497737998
1403636893501666560,39.265633,651.6113260367005,9.144701125,-0.3105439166666667,-2.427145875,0.0020943951023931952,0.030019663134302467,0.06771877497737998
1403636893551666432,49.911976,650.9182473329147,10.149882749999998,-0.26151066666666667,-2.9338227916666666,0.009075712110370514,-0.016057029118347832,0.08098327729253688
1403636893601666560,61.349868,652.8404458043915,9.283628666666665,-0.32688833333333334,-2.4434902916666665,-0.01117010721276371,-0.012566370614359173,0.07958701389094143
1403636893651666432,37.891388,653.6990448318787,9.283628666666665,-0.32688833333333334,-2.4434902916666665,-0.01117010721276371,-0.012566370614359173,0.07958701389094143
1403636893701666560,51.021576,653.4376637992822,9.389867375,-0.9152873333333333,-2.549729,0.012566370614359173,0.024434609527920613,0.07051130178057091
1403636893751666432,49.668074,654.6850973976004,9.487933875,-1.0051816249999999,-2.476179125,0.0041887902047863905,-0.008377580409572781,0.07539822368615504
1403636893801666560,50.374985,655.0794146259033,9.299973083333333,-0.8744262916666666,-2.427145875,-0.0006981317007977319,0.017453292519943295,0.05794493116621174
1403636893851666432,49.595832,656.4862755352045,9.079323458333333,-0.6537766666666667,-2.3617682083333333,-0.011868238913561441,0.006981317007977318,0.06562437987498679
1403636893901666560,50.246954,654.6614848251577,9.283628666666665,-0.8253930416666666,-2.427145875,0.0041887902047863905,0.005585053606381855,0.06422811647339133
1403636893951666432,60.146571,655.5980744827399,9.381695166666667,-0.40861041666666664,-2.549729,0.006283185307179587,0.02722713633111154,0.08656833089891874
1403636894001666560,39.513588,655.4824314327228,9.381695166666667,-0.40861041666666664,-2.549729,0.006283185307179587,0.02722713633111154,0.08656833089891874
1403636894051666432,56.03075,654.8670595779446,9.013945791666666,-0.48216029166666663,-2.3699404166666667,-0.01815142422074103,0.01117010721276371,0.08168140899333462
1403636894101666560,44.065237,654.6455422050938,9.357178541666666,-0.3105439166666667,-2.655967708333333,0.00767944870877505,0.031415926535897934,0.07400196028455958
1403636894151666432,63.763618,655.0777687984471,9.308145291666667,-0.5802267916666666,-2.5006957499999998,-0.011868238913561441,0.013264502315156905,0.09215338450530061
1403636894201666560,36.805392,653.9021899005137,9.929233125,-0.5148491249999999,-2.941995,-0.0041887902047863905,0.010471975511965976,0.06841690667817772
1403636894251666432,49.636125,656.0305704129697,9.087495666666666,-0.29419949999999995,-2.3617682083333333,-0.006981317007977318,0.041189770347066175,0.06562437987498679
1403636894301666560,49.974203,657.0959218501205,9.373522958333332,-0.2778550833333333,-2.5170401666666664,-0.004886921905584123,0.010471975511965976,0.07819075048934597
1403636894351666432,49.871683,657.5146726984834,9.618689208333333,-0.784532,-2.631451083333333,-0.005585053606381855,0.019547687622336492,0.08377580409572781
1403636894401666560,60.57477,655.6376689762873,9.438900625,-0.2533384583333333,-2.5333845833333335,-0.0027925268031909274,0.031415926535897934,0.07888888219014369
1403636894451666432,39.440155,654.5857353420822,9.749444541666666,-0.5066769166666666,-2.7948952499999997,-0.0041887902047863905,0.032114058236695664,0.07888888219014369
1403636894501666560,50.031662,656.9011083583734,9.128356708333332,-0.4494714583333333,-2.288218333333333,-0.012566370614359173,0.016755160819145562,0.0991347015132779
1403636894551666432,59.221983,656.7817348268508,9.185562166666665,-0.122583125,-2.6151066666666667,-0.0006981317007977319,0.020943951023931952,0.06841690667817772
1403636894601666560,40.326596,654.4173287723867,9.185562166666665,-0.122583125,-2.6151066666666667,-0.0006981317007977319,0.020943951023931952,0.06841690667817772
1403636894651666432,54.54278,655.0687600804176,9.128356708333332,-0.43312704166666666,-2.4108014583333333,-0.014660765716752367,0.029321531433504733,0.07819075048934597
1403636894701666560,56.067943,657.8371932451212,9.7085835,-0.44129925,-2.5660734166666663,0.0,0.008377580409572781,0.08168140899333462
1403636894751666432,39.743662,655.1810753234677,9.7085835,-0.44129925,-2.5660734166666663,0.0,0.008377580409572781,0.08168140899333462
1403636894801666560,60.461044,654.822010012185,9.250939833333334,-0.48216029166666663,-2.3209071666666663,0.006981317007977318,0.017453292519943295,0.07400196028455958
1403636894851666432,49.51191,643.0161957739123,10.117193916666666,-0.416782625,-2.8194118749999997,0.020943951023931952,0.006283185307179587,0.06213372137099814
1403636894901666560,60.679912,652.439454333331,9.586000375,-0.13892754166666665,-2.5333845833333335,0.02234021442552742,0.01815142422074103,0.07888888219014369
1403636894951666432,35.415173,647.3662668390764,9.586000375,-0.13892754166666665,-2.5333845833333335,0.02234021442552742,0.01815142422074103,0.07888888219014369
1403636895001666560,44.229507,647.9657767368109,10.2969825,-0.08172208333333333,-2.9011339583333333,0.011868238913561441,0.011868238913561441,0.06771877497737998
1403636895051666432,49.713612,648.3941946322486,9.038462416666666,-0.21247741666666667,-2.427145875,0.0041887902047863905,0.01884955592153876,0.06632251157578452
1403636895101666560,50.595999,643.9978148765598,9.381695166666667,0.0,-2.655967708333333,0.020943951023931952,0.011868238913561441,0.0747000919853573
1403636895151666432,61.164617,651.7596652287455,10.010955208333332,-0.196133,-2.803067458333333,0.04328416544945937,0.009773843811168246,0.07958701389094143
1403636895201666560,43.0758,639.4862879389863,10.010955208333332,-0.196133,-2.803067458333333,0.04328416544945937,0.009773843811168246,0.07958701389094143
1403636895251666432,59.970856,643.4516898356422,9.324489708333333,0.024516625,-2.2473572916666664,0.010471975511965976,0.020943951023931952,0.09215338450530061
1403636895301666560,35.538912,642.7981241907951,9.324489708333333,0.024516625,-2.2473572916666664,0.010471975511965976,0.020943951023931952,0.09215338450530061
1403636895351666432,60.102224,650.2415604928179,9.994610791666668,-0.18796079166666665,-2.8439284999999996,0.01884955592153876,0.016057029118347832,0.06771877497737998
1403636895401666560,50.272465,653.4315704662223,9.438900625,-0.14709974999999997,-2.435318083333333,0.02722713633111154,0.0307177948351002,0.06632251157578452
1403636895451666432,38.877249,650.5334280317683,9.438900625,-0.14709974999999997,-2.435318083333333,0.02722713633111154,0.0307177948351002,0.06632251157578452
1403636895501666560,61.117649,647.5813491406377,9.291800875,0.2778550833333333,-2.476179125,0.008377580409572781,-0.0027925268031909274,0.06283185307179587
1403636895551666432,49.480915,654.6121056774318,9.643205833333333,-0.35957716666666667,-2.5905900416666663,0.004886921905584123,0.02234021442552742,0.06981317007977318
1403636895601666560,39.61873,651.5954235944839,9.643205833333333,-0.35957716666666667,-2.5905900416666663,0.004886921905584123,0.02234021442552742,0.06981317007977318
1403636895651666432,50.213814,656.197526677776,9.283628666666665,-0.008172208333333333,-2.3944570416666666,0.006981317007977318,0.02652900463031381,0.0767944870877505
