stamp,img_delta,blur,lin_acc.x,lin_acc.y,lin_acc.z,ang_vel.x,ang_vel.y,ang_vel.z
1403638518177829376,51.143169,312.0226011451409,9.054806833333332,0.032688833333333334,-3.8082490833333327,-0.0006981317007977319,0.016057029118347832,0.0747000919853573
1403638518227829504,38.006067,311.40892397530814,9.07115125,-0.008172208333333333,-3.8245934999999998,-0.0020943951023931952,0.02583087292951608,0.08168140899333462
1403638518277829376,49.72744,311.6018200607765,9.013945791666666,-0.04086104166666667,-3.7837324583333327,-0.0027925268031909274,0.013264502315156905,0.07330382858376185
1403638518327829504,49.279928,311.73020085840716,9.022118,-0.024516625,-3.7919046666666665,-0.0027925268031909274,0.019547687622336492,0.08098327729253688
1403638518377829376,50.838232,311.44920601737283,8.964912541666667,-0.016344416666666667,-3.8082490833333327,-0.003490658503988659,0.01815142422074103,0.08028514559173915
1403638518427829504,61.874152,311.9052482030963,8.97308475,-0.057205458333333334,-3.7919046666666665,-0.003490658503988659,0.02024581932313422,0.07888888219014369
1403638518477829376,48.811912,311.4547070822661,8.899534874999999,-0.04903325,-3.759215833333333,0.0,0.019547687622336492,0.07958701389094143
1403638518527829504,38.482428,310.64138461092494,9.054806833333332,-0.04086104166666667,-3.800076875,-0.003490658503988659,0.023038346126325153,0.08168140899333462
1403638518577829376,64.912081,311.768686024497,8.997601374999999,-0.024516625,-3.7673880416666665,-0.003490658503988659,0.021642082724729686,0.0767944870877505
1403638518627829504,35.829782,310.9776000990071,9.07115125,-0.04903325,-3.8164212916666664,-0.0027925268031909274,0.023736477827122883,0.0767944870877505
1403638518677829376,49.539805,311.611431810893,9.054806833333332,-0.008172208333333333,-3.759215833333333,-0.0027925268031909274,0.01884955592153876,0.0767944870877505
1403638518727829504,50.136566,311.0185411656081,9.07115125,-0.04903325,-3.7673880416666665,-0.003490658503988659,0.01815142422074103,0.07958701389094143
1403638518777829376,49.525022,311.28277149303864,8.948568125,-0.016344416666666667,-3.7919046666666665,0.0,0.02024581932313422,0.07958701389094143
1403638518827829504,61.535835,311.661597456987,8.997601374999999,-0.06537766666666667,-3.7919046666666665,-0.0020943951023931952,0.023038346126325153,0.0747000919853573
1403638518877829376,45.982361,311.20932081575677,9.054806833333332,-0.04903325,-3.8082490833333327,-0.0027925268031909274,0.02234021442552742,0.07819075048934597
1403638518927829504,44.565201,311.95496068550483,9.112012291666666,-0.06537766666666667,-3.8245934999999998,-0.0006981317007977319,0.020943951023931952,0.07539822368615504
1403638518977829376,59.458971,311.11643288791913,9.030290208333332,-0.04086104166666667,-3.800076875,-0.0020943951023931952,0.021642082724729686,0.07609635538695278
1403638519027829504,55.485487,311.31415303916583,9.038462416666666,-0.04086104166666667,-3.7919046666666665,-0.0013962634015954637,0.0153588974175501,0.08377580409572781
1403638519077829376,33.633471,312.2226204234286,8.956740333333332,-0.032688833333333334,-3.7919046666666665,-0.0006981317007977319,0.023038346126325153,0.07888888219014369
1403638519127829504,50.398588,311.50711415317835,8.97308475,-0.07354987499999999,-3.8082490833333327,-0.0013962634015954637,0.020943951023931952,0.07749261878854824
1403638519177829376,49.230814,311.3005487906645,9.022118,-0.008172208333333333,-3.7919046666666665,-0.0041887902047863905,0.02652900463031381,0.07958701389094143
1403638519227829504,49.582243,311.05489748690223,9.062979041666667,0.008172208333333333,-3.8409379166666664,-0.0020943951023931952,0.019547687622336492,0.07958701389094143
1403638519277829376,61.646223,311.481975399739,9.038462416666666,-0.04086104166666667,-3.7837324583333327,-0.0020943951023931952,0.023736477827122883,0.07819075048934597
1403638519327829504,38.612604,310.79259539422526,9.038462416666666,-0.07354987499999999,-3.7837324583333327,-0.003490658503988659,0.019547687622336492,0.07539822368615504
1403638519377829376,61.285019,311.3983550913258,8.981256958333333,-0.057205458333333334,-3.77556025,0.0,0.023736477827122883,0.07958701389094143
1403638519427829504,50.213575,311.37366029866695,8.948568125,-0.016344416666666667,-3.77556025,-0.006283185307179587,0.01884955592153876,0.07539822368615504
1403638519477829376,38.59663,311.259219611257,8.989429166666666,-0.057205458333333334,-3.8164212916666664,-0.006283185307179587,0.02024581932313422,0.07819075048934597
1403638519527829504,61.449051,310.9638725088884,9.022118,-0.024516625,-3.7837324583333327,-0.0006981317007977319,0.01884955592153876,0.07400196028455958
1403638519577829376,38.750887,311.1606085026402,9.103840083333333,-0.008172208333333333,-3.800076875,-0.004886921905584123,0.01815142422074103,0.07749261878854824
1403638519627829504,50.360203,311.64135224799344,9.022118,-0.06537766666666667,-3.7919046666666665,-0.0006981317007977319,0.013264502315156905,0.0747000919853573
1403638519677829376,49.309254,311.93036433446946,8.989429166666666,-0.04903325,-3.77556025,0.003490658503988659,0.021642082724729686,0.08098327729253688
1403638519727829504,61.638355,311.2655559642373,8.940395916666665,-0.06537766666666667,-3.7837324583333327,-0.0006981317007977319,0.021642082724729686,0.07888888219014369
1403638519777829376,56.894541,311.08515083502175,9.046634625,-0.032688833333333334,-3.7837324583333327,-0.0027925268031909274,0.021642082724729686,0.07749261878854824
1403638519827829504,47.646999,311.5149319455398,9.128356708333332,-0.06537766666666667,-3.8409379166666664,-0.0041887902047863905,0.01815142422074103,0.08098327729253688
1403638519877829376,36.056995,310.6502821373276,8.997601374999999,-0.04086104166666667,-3.742871416666666,0.0,0.019547687622336492,0.08028514559173915
1403638519927829504,65.790654,311.43696453615814,8.997601374999999,-0.04903325,-3.800076875,-0.0027925268031909274,0.017453292519943295,0.0747000919853573
1403638519977829376,32.876968,311.1422051900873,8.907707083333333,-0.07354987499999999,-3.7673880416666665,-0.0020943951023931952,0.019547687622336492,0.07819075048934597
1403638520027829504,50.429821,310.39798959199703,9.062979041666667,-0.057205458333333334,-3.832765708333333,0.0,0.024434609527920613,0.07400196028455958
1403638520077829376,50.06361,311.3218072021861,8.940395916666665,-0.016344416666666667,-3.7673880416666665,-0.0020943951023931952,0.01884955592153876,0.07400196028455958
1403638520127829504,61.356545,311.2100384744982,9.062979041666667,-0.008172208333333333,-3.8164212916666664,-0.003490658503988659,0.01815142422074103,0.07819075048934597
1403638520177829376,38.500309,311.1161523687937,9.079323458333333,-0.04903325,-3.8082490833333327,-0.0020943951023931952,0.01884955592153876,0.07609635538695278
1403638520227829504,50.053119,311.01908893769206,9.030290208333332,-0.016344416666666667,-3.7919046666666665,-0.003490658503988659,0.020943951023931952,0.08168140899333462
1403638520277829376,48.901797,311.10371087885494,8.940395916666665,-0.032688833333333334,-3.800076875,0.0006981317007977319,0.016755160819145562,0.07400196028455958
1403638520327829504,62.026262,310.9769488422468,9.038462416666666,-0.024516625,-3.7837324583333327,-0.0006981317007977319,0.023038346126325153,0.08377580409572781
1403638520377829376,54.556608,311.08651907339123,9.103840083333333,0.032688833333333334,-3.8164212916666664,-0.0013962634015954637,0.024434609527920613,0.07400196028455958
1403638520427829504,33.759833,310.73321350192055,9.1201845,-0.032688833333333334,-3.832765708333333,-0.0006981317007977319,0.017453292519943295,0.07888888219014369
1403638520477829376,49.58558,311.5349610142429,8.989429166666666,-0.016344416666666667,-3.77556025,-0.0027925268031909274,0.017453292519943295,0.0767944870877505
1403638520527829504,51.083327,310.7887182679509,8.989429166666666,-0.032688833333333334,-3.8245934999999998,-0.004886921905584123,0.01815142422074103,0.07819075048934597
1403638520577829376,48.963785,311.43454249289,8.981256958333333,-0.0980665,-3.7837324583333327,-0.0027925268031909274,0.023038346126325153,0.08098327729253688
1403638520627829504,61.902284,311.1947435249914,8.964912541666667,-0.0980665,-3.7919046666666665,-0.0006981317007977319,0.01815142422074103,0.08098327729253688
1403638520677829376,38.051367,310.857309553174,9.046634625,-0.024516625,-3.8164212916666664,-0.0006981317007977319,0.02234021442552742,0.07888888219014369
1403638520727829504,61.992646,310.6353962404432,9.079323458333333,0.032688833333333334,-3.8082490833333327,-0.0006981317007977319,0.016755160819145562,0.0767944870877505
1403638520777829376,49.653768,311.2584974654062,9.005773583333333,-0.04086104166666667,-3.7919046666666665,-0.003490658503988659,0.02234021442552742,0.08028514559173915
1403638520827829504,38.86056,311.207037533964,9.022118,-0.016344416666666667,-3.7919046666666665,-0.003490658503988659,0.013264502315156905,0.0747000919853573
1403638520877829376,49.117326,311.9717357213101,8.97308475,-0.06537766666666667,-3.7919046666666665,-0.0006981317007977319,0.02652900463031381,0.07958701389094143
1403638520927829504,50.039768,311.04127140800966,9.030290208333332,-0.06537766666666667,-3.8164212916666664,-0.0013962634015954637,0.02024581932313422,0.07609635538695278
1403638520977829376,50.786019,311.0283771401187,9.054806833333332,-0.057205458333333334,-3.7919046666666665,-0.0020943951023931952,0.023038346126325153,0.07330382858376185
1403638521027829504,49.046278,311.26984878235345,9.103840083333333,0.016344416666666667,-3.857282333333333,0.0041887902047863905,0.01884955592153876,0.0767944870877505
1403638521077829376,61.705589,310.48921529115694,9.038462416666666,-0.016344416666666667,-3.800076875,-0.0020943951023931952,0.021642082724729686,0.07749261878854824
1403638521127829504,39.453745,310.65267666313747,9.161045541666667,0.04086104166666667,-3.9144877916666663,0.020943951023931952,0.03490658503988659,0.09494591130849153
1403638521177829376,71.44928,309.010862147163,8.915879291666666,-0.04903325,-3.7837324583333327,0.0020943951023931952,0.025132741228718346,0.056548667764616284
1403638521227829504,29.007912,310.84340517408543,9.26728425,0.008172208333333333,-3.800076875,0.012566370614359173,0.024434609527920613,0.0635299847725936
1403638521277829376,49.674272,310.1378187447905,9.022118,0.024516625,-3.8409379166666664,0.006283185307179587,0.02652900463031381,0.06632251157578452
1403638521327829504,60.390234,310.1084147291298,9.005773583333333,-0.057205458333333334,-3.8491101249999997,-0.0020943951023931952,0.030019663134302467,0.08377580409572781
1403638521377829376,39.515734,311.4102031693066,9.095667875,0.06537766666666667,-3.7837324583333327,0.0013962634015954637,0.014660765716752367,0.08028514559173915
1403638521427829504,50.084829,310.8568774487665,8.964912541666667,-0.13892754166666665,-3.800076875,-0.004886921905584123,0.02583087292951608,0.07888888219014369
1403638521477829376,48.79427,309.8043270540772,8.809640583333332,-0.016344416666666667,-3.7673880416666665,-0.0013962634015954637,0.02722713633111154,0.10262536001726656
1403638521527829504,50.014496,313.850329457211,9.152873333333332,-0.3105439166666667,-3.759215833333333,0.010471975511965976,0.03420845333908886,0.12775810124598494
1403638521577829376,66.843748,309.356559998168,9.161045541666667,0.269682875,-3.751043625,-0.0041887902047863905,0.01117010721276371,0.019547687622336492
1403638521627829504,33.886432,311.761822103939,8.9240515,-0.196133,-3.955348833333333,0.016057029118347832,0.01815142422074103,0.07958701389094143
1403638521677829376,49.425602,310.61969623308374,9.144701125,-0.11441091666666667,-3.7346992083333332,-0.004886921905584123,0.03490658503988659,0.08587019919812101
1403638521727829504,50.055742,313.34461066511636,9.144701125,0.269682875,-3.7919046666666665,-0.01117010721276371,0.014660765716752367,0.07609635538695278
1403638521777829376,49.815417,313.20258519363927,8.989429166666666,-0.16344416666666667,-3.8491101249999997,0.014660765716752367,0.028623399732707,0.07609635538695278
1403638521827829504,61.718225,314.6628629296877,9.128356708333332,-0.057205458333333334,-3.751043625,-0.0013962634015954637,0.020943951023931952,0.08587019919812101
1403638521877829376,39.13641,312.83320693232156,9.128356708333332,-0.17161637500000002,-3.702010375,0.024434609527920613,0.00767944870877505,0.09704030641088471
1403638521927829504,60.786009,310.70445917257985,9.7085835,-0.4494714583333333,-3.702010375,0.031415926535897934,0.041189770347066175,0.008377580409572781
1403638521977829376,50.047397,301.22930278046834,8.580818749999999,-0.22882183333333334,-3.530394,0.10821041362364843,-0.023038346126325153,0.06562437987498679
1403638522027829504,55.339575,302.833192179012,9.577828166666666,0.032688833333333334,-4.274064958333334,-0.030019663134302467,-0.050963614158234416,0.0013962634015954637
1403638522077829376,33.862591,284.9608307711831,10.002782999999999,-0.3840937916666667,-4.26589275,0.031415926535897934,-0.0991347015132779,0.028623399732707
1403638522127829504,49.314737,188.0252569241761,10.223432625,0.04903325,-4.3312704166666665,0.09005898940290741,0.006981317007977318,0.13753194505715316
1403638522177829376,68.226815,117.61793413282635,10.256121458333332,0.14709974999999997,-4.323098208333334,0.07888888219014369,0.13473941825396224,0.11868238913561441
1403638522227829504,43.41197,100.65792041746906,10.435910041666666,-0.23699404166666665,-3.97169325,0.12077678423800758,0.21642082724729686,0.10192722831646883
1403638522277829376,39.127588,96.38356731800275,10.34601575,0.220649625,-4.094276375,0.1340412865531645,0.24294983187761068,0.124965574442794
1403638522327829504,49.394608,105.11901592794386,9.798477791666667,-0.18796079166666665,-3.97169325,0.11938052083641214,0.17174039839624203,0.08936085770210968
1403638522377829376,49.759626,130.44781686189074,9.741272333333333,-0.23699404166666665,-3.693838166666666,0.1605702911834783,0.05375614096142535,0.12426744274199628
1403638522427829504,61.478615,149.19309254590414,9.528794916666666,-0.367749375,-3.6121160833333334,0.1954768762233649,-0.05794493116621174,0.19058995431778078
1403638522477829376,39.187193,198.80715837477007,9.177389958333332,-0.392266,-3.832765708333333,0.1319468914507713,-0.1228711793404008,0.2017600615305445
1403638522527829504,48.987388,184.74801981205127,9.144701125,-0.5720545833333333,-3.4813607499999994,0.15917402778188286,-0.09983283321407566,0.25202554398798116
1403638522577829376,50.328732,192.34337318688657,9.373522958333332,-0.2860272916666666,-3.5222217916666665,0.1494001839707146,0.0020943951023931952,0.1710422666954443
1403638522627829504,49.705267,182.4866083118183,9.259112041666667,-0.8907707083333333,-3.2852277500000002,0.12566370614359174,0.13473941825396224,0.013264502315156905
1403638522677829376,50.148249,153.39861241955552,9.226423208333333,-0.8907707083333333,-3.742871416666666,0.10471975511965977,0.20385445663293766,-0.07539822368615504
1403638522727829504,50.677776,139.85477089755204,9.479761666666667,-0.3759215833333333,-3.832765708333333,0.15498523757709648,0.22549653935766736,0.01884955592153876
1403638522777829376,50.248384,147.76532410736337,9.193734375,-0.5802267916666666,-3.391466458333333,0.20315632493213995,0.20385445663293766,0.12636183784438945
1403638522827829504,60.526848,160.03669248501205,9.022118,-0.32688833333333334,-3.5794272499999997,0.2115339053417127,0.1954768762233649,0.2918190509334519
1403638522877829376,39.522886,180.17581254336565,8.760607333333333,-0.40861041666666664,-3.718354791666666,0.11938052083641214,0.21432643214490363,0.3295181627765294
1403638522927829504,49.729348,216.01486836149581,8.433719,-0.35140495833333335,-2.8929617499999996,0.08098327729253688,0.20106192982974677,0.19268434942017396
1403638522977829376,61.025858,269.491990763615,7.878008833333333,-0.7109821249999999,-2.680484333333333,0.023736477827122883,0.12007865253720987,0.1514945790731078
1403638523027829504,39.200782,345.7369985065237,7.436709583333332,-0.7109821249999999,-2.778550833333333,-0.021642082724729686,0.10471975511965977,0.06213372137099814
1403638523077829376,65.843583,493.50273549954227,7.657359208333333,-0.9398039583333333,-2.574245625,0.014660765716752367,0.06213372137099814,0.06283185307179587
1403638523127829504,44.656991,545.0042424544879,7.060788,-0.5066769166666666,-2.6886565416666666,-0.031415926535897934,0.041189770347066175,0.05515240436302082
1403638523177829376,38.837195,541.0093925889068,7.0689602083333325,-0.23699404166666665,-2.4189736666666666,-0.07051130178057091,0.09564404300928926,0.02722713633111154
1403638523227829504,50.785065,527.8477540209997,6.725727458333332,-0.6701210833333332,-1.846919083333333,-0.21362830044410594,0.14172073526193954,-0.08866272600131193
1403638523277829376,60.415268,563.4427088107528,7.256920999999999,-1.1849702083333333,-1.96133,-0.13334315485236678,0.1075122819228507,-0.005585053606381855
1403638523327829504,38.729667,615.8109871680145,7.79628675,-0.661948875,-2.476179125,-0.05864306286700947,0.04677482395344803,0.060039326268604934
1403638523377829376,50.652981,526.4901852329957,8.18855275,-0.21247741666666667,-2.582417833333333,-0.04677482395344803,-0.032812189937493394,0.013962634015954637
1403638523427829504,48.876524,377.4202881118409,8.098658458333333,-0.44129925,-3.293399958333333,-0.039793506945470715,-0.11728612573401893,-0.016057029118347832
1403638523477829376,58.007479,245.6558717545359,8.97308475,-0.73549875,-3.0809225416666663,-0.06841690667817772,-0.24434609527920614,-0.05026548245743669
1403638523527829504,42.320728,138.04299602053607,8.907707083333333,-0.5066769166666666,-3.178989041666666,-0.06213372137099814,-0.3274237676741362,-0.06213372137099814
1403638523577829376,49.834251,124.98196332379776,9.07115125,-0.42495483333333334,-3.571255041666667,-0.09704030641088471,-0.35674529910764097,-0.05585053606381855
1403638523627829504,50.165892,129.74493643961816,9.340834124999999,-0.45764366666666667,-3.6039438749999997,-0.05515240436302082,-0.28064894372068816,0.0
1403638523677829376,50.783634,133.07701630142924,9.26728425,-0.6456044583333332,-3.726527,-0.048869219055841226,-0.2017600615305445,-0.01884955592153876
1403638523727829504,49.019337,157.31886449852695,9.112012291666666,-0.318716125,-3.8409379166666664,-0.016057029118347832,-0.1165879940332212,-0.0027925268031909274
1403638523777829376,50.625801,191.8278738669645,9.594172583333334,-0.612915625,-4.192342875,-0.011868238913561441,-0.05235987755982988,0.016057029118347832
1403638523827829504,49.461842,206.91648187133362,9.659550249999999,0.13075533333333333,-4.200515083333333,-0.013962634015954637,0.019547687622336492,-0.02024581932313422
1403638523877829376,61.845064,186.39336266022548,9.80665,-0.5720545833333333,-3.9962098749999995,-0.11938052083641214,0.0439822971502571,-0.10332349171806432
1403638523927829504,39.1891,168.49692968369774,10.550320958333334,-0.35140495833333335,-4.257720541666666,-0.08028514559173915,0.005585053606381855,-0.12636183784438945
1403638523977829376,66.22982,169.41512042550852,11.106031125,-0.35957716666666667,-4.192342875,-0.06283185307179587,-0.0614355896702004,-0.15777776438028737
1403638524027829504,33.395529,156.41829245453778,11.506469333333333,0.0,-4.527403416666666,-0.006283185307179587,-0.124965574442794,-0.12077678423800758
1403638524077829376,49.428463,228.16868980197034,11.686257916666666,0.220649625,-4.813430708333333,0.019547687622336492,-0.1647590813882647,-0.0747000919853573
1403638524127829504,50.597906,318.08913896755524,11.678085708333333,0.08989429166666667,-4.870636166666666,0.0767944870877505,-0.15219271077390556,0.05166174585903216
1403638524177829376,49.329996,165.41156602376637,11.498297125,0.5883989999999999,-4.641814333333333,0.10611601852125524,-0.08866272600131193,0.114493598930828
1403638524227829504,50.091982,163.49155666400634,10.632043041666666,0.392266,-4.486542375,0.12077678423800758,0.006283185307179587,0.13892820845874865
1403638524277829376,66.749573,150.22164836476952,10.051816249999998,-0.016344416666666667,-4.486542375,0.13473941825396224,0.08587019919812101,0.1864011641129944
1403638524327829504,33.818722,139.8036826823457,9.773961166666666,0.04903325,-4.094276375,0.13823007675795088,0.1514945790731078,0.20804324683772407
1403638524377829376,49.81184,130.32545371473176,9.430728416666666,-0.08989429166666667,-3.9144877916666663,0.08517206749732328,0.21781709064889232,0.20525072003453312
1403638524427829504,49.538612,127.06009038323157,9.062979041666667,-0.06537766666666667,-3.857282333333333,0.08098327729253688,0.2792526803190927,0.15009831567151233
1403638524477829376,50.343275,108.43001158018596,8.891362666666666,-0.42495483333333334,-3.3996386666666667,0.08098327729253688,0.3323106895797203,0.12985249634837812
1403638524527829504,49.596548,116.51735242291119,8.621679791666667,-0.196133,-3.3832942499999996,0.0013962634015954637,0.34487706019407954,0.09843656981248018
1403638524577829376,70.391417,149.46871390829358,8.719746291666667,-0.17161637500000002,-3.195333458333333,-0.05864306286700947,0.29461157773664276,0.13823007675795088
1403638524627829504,44.050455,173.1209764382254,7.976075333333333,-0.32688833333333334,-2.9583394166666666,-0.1850049007113989,0.2408554367752175,0.09494591130849153
1403638524677829376,36.649942,236.72829806833087,7.861664416666666,-0.34323275000000003,-3.0400614999999998,-0.23806290997202653,0.17732545200262387,0.014660765716752367
1403638524727829504,67.756176,294.9702289893175,7.591981541666666,0.21247741666666667,-2.827584083333333,-0.2932153143350474,0.15009831567151233,0.008377580409572781
1403638524777829376,32.953263,322.4134708264356,7.910697666666666,-0.2860272916666666,-2.680484333333333,-0.3008947630438224,0.07749261878854824,0.006981317007977318
1403638524827829504,48.755169,443.79640724244683,7.7390812916666665,-0.08172208333333333,-2.974683833333333,0.0153588974175501,0.07051130178057091,0.14800392056911915
1403638524877829376,50.474643,721.1954059461414,7.3386430833333325,0.45764366666666667,-2.9093061666666666,0.06562437987498679,0.07539822368615504,0.10262536001726656
1403638524927829504,49.299002,693.6083286158109,7.322298666666667,-0.008172208333333333,-2.8602729166666667,0.1780235837034216,0.07190756518216637,0.1319468914507713
1403638524977829376,62.028885,726.8262354435403,7.183371125,0.0,-2.3290793749999996,0.0747000919853573,0.09005898940290741,0.0614355896702004
1403638525027829504,37.953377,951.3977832528517,6.946377083333333,0.0980665,-2.190151833333333,-0.0439822971502571,0.09145525280450287,-0.04677482395344803
1403638525077829376,50.924778,935.7032310115057,7.101649041666666,-0.26151066666666667,-2.3617682083333333,-0.029321531433504733,0.09634217471008698,-0.046076692252650306
1403638525127829504,50.140619,986.8364069152668,7.992419749999999,0.40861041666666664,-2.459834708333333,0.02583087292951608,0.046076692252650306,-0.0041887902047863905
1403638525177829376,48.862696,657.6643562357572,8.074141833333334,0.318716125,-2.803067458333333,0.02583087292951608,-0.02024581932313422,-0.028623399732707
1403638525227829504,49.90673,506.7964242575047,8.253930416666666,0.08989429166666667,-2.8847895416666667,0.07958701389094143,-0.11938052083641214,0.027925268031909273
1403638525277829376,61.764241,366.7530589677573,8.409202375,0.08172208333333333,-2.99102825,0.06702064327658225,-0.22549653935766736,0.005585053606381855
1403638525327829504,53.684711,162.1535427652365,8.9240515,0.0,-3.489532958333333,0.13753194505715316,-0.314857397059777,0.06981317007977318
1403638525377829376,34.630537,128.23471225001526,9.332661916666666,0.0,-3.6366327083333334,0.1270599695451872,-0.4056145181634821,0.114493598930828
1403638525427829504,49.965382,119.92078430350007,9.250939833333334,0.057205458333333334,-3.67749375,0.210835773640915,-0.4384267081009756,0.20106192982974677
1403638525477829376,51.124572,113.82179078001906,9.36535075,0.34323275000000003,-4.151481833333333,0.1556833692778942,-0.3735004599267865,0.1884955592153876
1403638525527829504,48.692704,117.35809710941113,9.749444541666666,-0.18796079166666665,-4.208687291666666,0.0767944870877505,-0.27646015351590175,0.1647590813882647
1403638525577829376,50.302267,157.5296535977122,9.7085835,0.122583125,-4.2413761249999995,0.016057029118347832,-0.14102260356114182,0.1626646862858715
1403638525627829504,51.251173,178.99641846954933,9.831166624999998,-0.269682875,-4.143309625,-0.03560471674068433,-0.06213372137099814,0.13473941825396224
1403638525677829376,49.882173,235.5107102022659,9.684066875,0.07354987499999999,-4.527403416666666,-0.11239920382843484,0.03769911184307752,0.11100294042683936
1403638525727829504,56.273222,262.5295608201993,9.839338833333333,-0.3759215833333333,-4.274064958333334,-0.1075122819228507,0.124965574442794,0.1759291886010284
1403638525777829376,44.434071,222.06777978906584,9.888372083333332,-0.14709974999999997,-4.323098208333334,-0.15777776438028737,0.14521139376592823,0.09773843811168245
1403638525827829504,48.152923,233.28213604513138,9.749444541666666,0.17978858333333333,-4.56009225,-0.18151424220741028,0.1759291886010284,0.048869219055841226
1403638525877829376,50.758839,238.86565204949434,9.724927916666667,0.7600153749999999,-4.748053041666666,-0.2017600615305445,0.12566370614359174,-0.008377580409572781
1403638525927829504,49.383879,248.0986059006349,9.945577541666665,1.054214875,-4.535575625,-0.15009831567151233,0.046076692252650306,0.0
1403638525977829376,62.199592,271.3296453119619,9.912888708333332,1.32389775,-4.151481833333333,-0.09564404300928926,-0.01117010721276371,0.008377580409572781
1403638526027829504,37.775994,288.98112845770106,9.586000375,1.1359369583333332,-4.339442625,-0.09285151620609833,-0.05445427266222308,0.08726646259971647
1403638526077829376,50.056696,254.2721687073288,9.635033625,1.0296982499999998,-4.323098208333334,-0.1340412865531645,-0.06911503837897544,0.19896753472735357
1403638526127829504,61.662674,220.75462589381158,9.651378041666666,0.8989429166666666,-4.396648083333333,-0.13473941825396224,-0.056548667764616284,0.23108159296404923
1403638526177829376,38.210868,189.08267232942964,9.414383999999998,0.5475379583333333,-4.314926,-0.13823007675795088,-0.003490658503988659,0.20943951023931953
1403638526227829504,50.99392,172.15934265016227,9.022118,0.612915625,-4.396648083333333,-0.1780235837034216,0.08866272600131193,0.17383479349863523
1403638526277829376,48.891783,164.2078928191772,8.850501625,0.220649625,-4.184170666666667,-0.12426744274199628,0.1514945790731078,0.19617500792416265
1403638526327829504,50.814151,167.80309719267015,8.605335375,0.44129925,-4.118792999999999,-0.13962634015954636,0.19058995431778078,0.1954768762233649
1403638526377829376,49.751997,180.01261661333635,8.736090708333332,0.2778550833333333,-3.8899711666666663,-0.15777776438028737,0.20943951023931953,0.21293016874330817
1403638526427829504,49.078942,184.7371882724719,8.539957708333333,0.20430520833333332,-3.5957716666666664,-0.13962634015954636,0.20455258833373544,0.25970499269675623
1403638526477829376,50.009727,189.83326427386996,8.842329416666665,0.5720545833333333,-3.6611493333333334,-0.1626646862858715,0.19477874452256716,0.239459173373622
1403638526527829504,50.027132,191.36122497214754,8.785123958333333,0.5230213333333333,-3.505877375,-0.13683381335635544,0.210835773640915,0.2408554367752175
1403638526577829376,60.734987,183.1644829690455,9.005773583333333,0.4739880833333333,-3.5549106249999998,-0.15079644737231007,0.21572269554649914,0.1884955592153876
1403638526627829504,40.277482,196.31631291361217,8.825985,0.2533384583333333,-3.5957716666666664,-0.17872171540421936,0.19128808601857852,0.15428710587629874
1403638526677829376,49.865484,239.54117914678272,8.866846041666665,0.122583125,-3.530394,-0.1689478715930511,0.15428710587629874,0.12566370614359174
1403638526727829504,60.883045,264.9359862093073,8.997601374999999,0.26151066666666667,-3.2035056666666666,-0.228987197861656,0.11798425743481668,0.03490658503988659
1403638526777829376,38.561344,272.34459928883376,9.079323458333333,-0.5148491249999999,-3.2770555416666665,-0.2199114857512855,0.08936085770210968,-0.0020943951023931952
1403638526827829504,50.566197,338.4298187688426,9.299973083333333,-0.29419949999999995,-3.342433208333333,-0.1466076571675237,0.019547687622336492,0.05794493116621174
1403638526877829376,49.159288,337.13955835165405,9.013945791666666,-0.63743225,-3.2280222916666665,-0.11239920382843484,-0.05166174585903216,0.11100294042683936
1403638526927829504,50.909996,290.431196135615,9.103840083333333,-0.3840937916666667,-3.211677875,-0.1668534764906579,-0.114493598930828,0.13264502315156904
1403638526977829376,49.735785,218.4541165672753,9.316317499999998,-0.7109821249999999,-3.2443667083333327,-0.23177972466484695,-0.14102260356114182,0.17732545200262387
1403638527027829504,60.212373,188.93369260981473,9.504278291666665,-0.6292600416666666,-3.293399958333333,-0.3183480555637657,-0.153588974175501,0.19896753472735357
1403638527077829376,39.064408,198.11818831169455,9.349006333333334,-0.8008764166666666,-3.563082833333333,-0.30997047515419296,-0.11868238913561441,0.23736477827122882
1403638527127829504,65.800905,228.00436321607182,9.496106083333332,-1.2340034583333332,-3.342433208333333,-0.30997047515419296,-0.04537856055185257,0.2192133540504878
1403638527177829376,45.792818,254.1375815007912,9.054806833333332,-1.3974476249999999,-3.3506054166666663,-0.317649923862968,0.03839724354387525,0.22689280275926282
1403638527227829504,50.02594,264.0966749313874,9.389867375,-1.6589582916666665,-3.3015721666666664,-0.37070793312359557,0.12426744274199628,0.15219271077390556
1403638527277829376,38.382292,289.915297764796,9.128356708333332,-2.0348798749999997,-3.260711125,-0.37768925013157295,0.1668534764906579,0.08307767239493008
1403638527327829504,49.673318,309.50291919526165,8.981256958333333,-1.9776744166666664,-3.358777625,-0.35325464060365225,0.17662732030182612,0.032114058236695664
1403638527377829376,50.703049,354.1234233286444,8.981256958333333,-2.0021910416666664,-3.317916583333333,-0.2827433388230814,0.1626646862858715,0.03700098014227979
1403638527427829504,64.756155,472.9515495727103,8.915879291666666,-2.0267076666666664,-3.2280222916666665,-0.19896753472735357,0.1117010721276371,0.03630284844148206
1403638527477829376,35.460472,563.4436834492071,8.97308475,-1.936813375,-3.2280222916666665,-0.10332349171806432,0.06562437987498679,0.06702064327658225
1403638527527829504,60.977459,602.6385062747416,8.842329416666665,-2.0103632499999997,-3.293399958333333,-0.05235987755982988,0.028623399732707,0.059341194567807204
1403638527577829376,38.321257,711.7522863141327,9.103840083333333,-1.5527195833333332,-3.2770555416666665,0.01815142422074103,0.012566370614359173,0.06492624817418906
1403638527627829504,61.569452,640.2385247624903,8.989429166666666,-1.3565865833333333,-3.3015721666666664,0.08866272600131193,0.017453292519943295,0.024434609527920613
1403638527677829376,38.890839,573.9458968676122,9.430728416666666,-1.0215260416666667,-3.0890947499999997,0.13334315485236678,0.021642082724729686,-0.016057029118347832
1403638527727829504,50.636768,345.00694296861457,9.430728416666666,-0.5720545833333333,-3.2280222916666665,0.17034413499464657,-0.016057029118347832,0.033510321638291124
1403638527777829376,48.959494,326.9830263376339,9.5124505,-0.4004382083333333,-3.7346992083333332,0.2408554367752175,-0.06422811647339133,0.12566370614359174
1403638527827829504,50.470114,311.47548567442317,9.389867375,-0.5311935416666667,-3.6448049166666663,0.2897246558310587,-0.07400196028455958,0.16545721308906244
1403638527877829376,49.573659,338.71240242283386,9.259112041666667,-0.23699404166666665,-3.6202882916666663,0.2590068609959585,-0.039095375244672985,0.15289084247470325
1403638527927829504,49.753428,352.95647879479316,9.455245041666666,0.016344416666666667,-3.6366327083333334,0.17872171540421936,0.02234021442552742,0.07888888219014369
1403638527977829376,68.054914,359.87534074738716,8.825985,-0.22882183333333334,-3.268883333333333,0.1424188669627373,0.07051130178057091,0.024434609527920613
1403638528027829504,39.150477,299.8829778037477,8.548129916666667,-0.07354987499999999,-3.391466458333333,0.20734511513692636,0.08447393579652555,0.047472955654245766
1403638528077829376,45.694351,299.57532322254394,8.9240515,0.10623870833333333,-3.178989041666666,0.2324778563656447,0.05026548245743669,0.047472955654245766
1403638528127829504,49.235344,296.6235258169592,8.866846041666665,0.5965712083333333,-2.7622064166666664,0.24783675378319478,0.014660765716752367,0.03839724354387525
1403638528177829376,49.852371,296.03607315295267,9.275456458333332,0.32688833333333334,-2.40262925,0.2897246558310587,-0.009075712110370514,0.050963614158234416
1403638528227829504,49.419642,280.1111946010095,9.577828166666666,0.73549875,-2.2963905416666663,0.3225368457685521,-0.02583087292951608,0.03420845333908886
1403638528277829376,50.889969,293.02251221891225,9.26728425,0.9970094166666666,-2.7131731666666665,0.2645919146023404,-0.005585053606381855,0.027925268031909273
1403638528327829504,49.018144,264.75370274025846,9.234595416666666,1.0460426666666667,-3.0400614999999998,0.16196655458507375,0.07609635538695278,0.030019663134302467
1403638528377829376,49.830437,292.48153135150113,9.7085835,0.8253930416666666,-2.778550833333333,0.028623399732707,0.08237954069413235,-0.003490658503988659
1403638528427829504,49.924374,307.5136653772855,9.26728425,0.5883989999999999,-3.0809225416666663,-0.0041887902047863905,0.041189770347066175,-0.006283185307179587
1403638528477829376,66.232204,334.6175484243477,9.414383999999998,0.5883989999999999,-3.4568441249999995,-0.0767944870877505,-0.013962634015954637,0.06632251157578452
1403638528527829504,34.374475,319.9799534234847,9.455245041666666,0.34323275000000003,-3.162644625,-0.09075712110370514,-0.059341194567807204,0.15707963267948966
1403638528577829376,49.050093,304.16572354372505,9.389867375,0.17161637500000002,-3.489532958333333,-0.11100294042683936,-0.06841690667817772,0.22549653935766736
1403638528627829504,49.926758,315.2824930425878,9.496106083333332,0.4985047083333333,-3.800076875,-0.05515240436302082,-0.014660765716752367,0.2115339053417127
1403638528677829376,50.133944,328.71202915157687,9.234595416666666,0.17978858333333333,-4.257720541666666,-0.11938052083641214,0.033510321638291124,0.11728612573401893
1403638528727829504,50.68922,357.44742952129513,8.989429166666666,0.20430520833333332,-4.666330958333333,-0.1864011641129944,0.06841690667817772,0.07400196028455958
1403638528777829376,49.225092,415.17350375161897,9.062979041666667,0.122583125,-4.9114972083333335,-0.07190756518216637,0.03769911184307752,0.18919369091618532
1403638528827829504,61.941624,426.74645961390195,9.087495666666666,-0.2533384583333333,-5.230213333333333,-0.016057029118347832,0.03839724354387525,0.28204520712228365
1403638528877829376,38.283109,441.892009485737,9.128356708333332,-0.2860272916666666,-5.2710743749999995,-0.008377580409572781,0.0439822971502571,0.2722713633111154
1403638528927829504,67.685604,526.3002181098185,9.496106083333332,-0.73549875,-5.164835666666666,0.02024581932313422,-0.0027925268031909274,0.24294983187761068
1403638528977829376,38.150788,525.6476338303482,8.441891208333333,-0.612915625,-5.1975245,0.03490658503988659,-0.023038346126325153,0.18430676901060122
1403638529027829504,49.185037,554.494570674264,8.458235625,-1.1359369583333332,-4.380303666666666,-0.07120943348136866,0.0013962634015954637,0.07190756518216637
1403638529077829376,48.937321,484.99371591241317,8.237585999999999,-0.93163175,-3.947176625,-0.18709929581379212,0.016755160819145562,-0.182212373908208
1403638529127829504,49.882889,444.5844032581552,7.959730916666666,-0.9152873333333333,-3.92266,-0.2234021442552742,0.013264502315156905,-0.25342180738957665
1403638529177829376,49.45302,423.0957828389142,7.714564666666666,-0.45764366666666667,-3.587599458333333,-0.1466076571675237,-0.0020943951023931952,-0.18989182261698306
1403638529227829504,65.785885,307.64209793737064,8.098658458333333,-0.4004382083333333,-3.6121160833333334,-0.13892820845874865,-0.021642082724729686,-0.16755160819145562
1403638529277829376,34.156322,244.44119152696337,8.28661925,-0.008172208333333333,-3.1463002083333333,-0.05515240436302082,-0.10471975511965977,-0.08726646259971647
1403638529327829504,61.021328,213.96736871629082,8.253930416666666,0.44129925,-3.015544875,-0.02024581932313422,-0.17523105690023066,-0.05166174585903216
1403638529377829376,38.673878,168.7261534017341,8.441891208333333,0.2533384583333333,-2.574245625,-0.0027925268031909274,-0.2792526803190927,-0.017453292519943295
1403638529427829504,50.789356,128.6281010065308,8.613507583333332,0.29419949999999995,-2.8929617499999996,0.0614355896702004,-0.37070793312359557,0.06562437987498679
1403638529477829376,49.541712,110.96984764963716,8.850501625,0.3840937916666667,-3.2443667083333327,0.07539822368615504,-0.39304814754912304,0.07958701389094143
1403638529527829504,50.230741,114.63859308785712,9.185562166666665,0.7109821249999999,-3.366949833333333,0.05026548245743669,-0.3413864016900908,0.023736477827122883
1403638529577829376,48.963309,130.0352501890337,9.398039583333333,0.196133,-3.6284604999999996,0.0006981317007977319,-0.22130774915288098,0.004886921905584123
1403638529627829504,50.695419,169.81647008132686,9.062979041666667,0.20430520833333332,-3.8082490833333327,0.006981317007977318,-0.08517206749732328,0.003490658503988659
1403638529677829376,49.620628,215.09361315154138,9.177389958333332,0.21247741666666667,-3.832765708333333,0.02583087292951608,0.06702064327658225,0.05585053606381855
1403638529727829504,51.038504,224.96110018930722,9.283628666666665,0.44129925,-3.8654545416666664,-0.009773843811168246,0.1954768762233649,0.07749261878854824
1403638529777829376,50.229788,193.30363419720382,9.103840083333333,0.3023717083333333,-3.930832208333333,0.05305800926062762,0.27646015351590175,0.14521139376592823
1403638529827829504,66.755056,193.68171635052258,9.577828166666666,0.44129925,-3.947176625,-0.031415926535897934,0.2527236756887789,0.09215338450530061
1403638529877829376,44.015408,198.02947773682573,10.002782999999999,0.6701210833333332,-3.67749375,-0.0020943951023931952,0.18989182261698306,0.08517206749732328
1403638529927829504,38.958549,222.9709546874398,9.659550249999999,0.6782932916666666,-3.2770555416666665,0.020943951023931952,0.09005898940290741,0.1075122819228507
1403638529977829376,50.168753,251.7216050746617,9.389867375,0.26151066666666667,-3.3506054166666663,-0.039793506945470715,0.009075712110370514,0.046076692252650306
1403638530027829504,49.031019,258.57024567216814,9.283628666666665,0.4739880833333333,-3.7919046666666665,0.0027925268031909274,-0.05026548245743669,0.08726646259971647
1403638530077829376,62.010765,254.53921173633728,9.07115125,0.13075533333333333,-3.67749375,-0.041887902047863905,-0.0614355896702004,0.12566370614359174
1403638530127829504,54.79002,252.7382022201717,8.97308475,0.3840937916666667,-3.8899711666666663,-0.08936085770210968,-0.04049163864626844,0.14800392056911915
1403638530177829376,46.920777,254.02361476063336,8.981256958333333,0.057205458333333334,-3.8491101249999997,-0.12426744274199628,0.009075712110370514,0.1361356816555577
1403638530227829504,50.487041,251.35798149372525,8.87501825,0.45764366666666667,-4.1024485833333335,-0.09285151620609833,0.02652900463031381,0.1689478715930511
1403638530277829376,36.886454,236.05202145527124,8.572646541666666,0.13892754166666665,-4.494714583333333,-0.08517206749732328,0.03700098014227979,0.1759291886010284
1403638530327829504,57.574749,229.03624130271285,9.079323458333333,0.22882183333333334,-3.947176625,-0.12426744274199628,0.03420845333908886,0.09634217471008698
1403638530377829376,42.784691,220.71494154989657,9.210078791666666,0.17161637500000002,-4.347614833333333,-0.08726646259971647,0.03630284844148206,0.12147491593880534
1403638530427829504,66.045999,223.06780802850176,8.899534874999999,0.0,-4.494714583333333,-0.039793506945470715,0.013962634015954637,0.14870205226991687
1403638530477829376,44.711113,223.55889294426842,8.956740333333332,0.465815875,-4.453853541666667,0.009773843811168246,0.019547687622336492,0.18291050560900574
1403638530527829504,37.855387,223.72993738989058,8.825985,0.14709974999999997,-4.388475875,-0.05305800926062762,0.006283185307179587,0.11588986233242347
1403638530577829376,50.747394,204.80931025167993,8.768779541666666,-0.0980665,-4.453853541666667,-0.06422811647339133,-0.047472955654245766,0.09145525280450287
1403638530627829504,49.849034,166.3716947417947,8.809640583333332,0.032688833333333334,-4.233203916666667,-0.048869219055841226,-0.11868238913561441,0.10192722831646883
1403638530677829376,50.200939,142.79093543470245,8.687057458333333,-0.06537766666666667,-4.192342875,-0.017453292519943295,-0.14521139376592823,0.11309733552923257
1403638530727829504,49.036741,149.40361124763507,8.703401874999999,-0.13892754166666665,-4.404820291666666,-0.041189770347066175,-0.10471975511965977,0.07400196028455958
1403638530777829376,62.100649,164.5062905445159,8.850501625,-0.057205458333333334,-4.306753791666666,-0.016057029118347832,-0.032812189937493394,0.0767944870877505
1403638530827829504,49.403429,186.53950798016623,8.883190458333333,-0.024516625,-4.584608875,0.08447393579652555,0.010471975511965976,0.1075122819228507
1403638530877829376,38.655281,206.29331229998175,8.785123958333333,-0.29419949999999995,-4.445681333333333,0.016057029118347832,0.08307767239493008,0.08237954069413235
1403638530927829504,62.062741,210.8515288326919,8.87501825,0.0980665,-4.306753791666666,0.0153588974175501,0.11588986233242347,0.09285151620609833
1403638530977829376,38.184642,208.22877292736473,8.768779541666666,-0.2533384583333333,-4.323098208333334,0.04468042885105484,0.12566370614359174,0.0991347015132779
1403638531027829504,50.734759,203.09157247155463,10.068160666666666,-0.06537766666666667,-4.944186041666666,-0.006283185307179587,0.12566370614359174,0.006981317007977318
1403638531077829376,60.950994,193.80327240525958,9.814822208333332,-0.13075533333333333,-3.906315583333333,-0.008377580409572781,0.12985249634837812,0.02234021442552742
1403638531127829504,39.119482,183.76966979111646,8.580818749999999,0.2860272916666666,-3.8082490833333327,0.05026548245743669,0.09843656981248018,0.041887902047863905
1403638531177829376,49.243212,210.13605919073473,8.38468575,0.008172208333333333,-3.8654545416666664,-0.046076692252650306,0.014660765716752367,-0.006981317007977318
1403638531227829504,49.857855,159.40145987249014,8.621679791666667,-0.20430520833333332,-4.0125542916666666,-0.02234021442552742,-0.050963614158234416,0.014660765716752367
1403638531277829376,49.996376,152.31546673406845,8.801468374999999,0.5802267916666666,-3.5549106249999998,-0.07888888219014369,0.1165879940332212,-0.005585053606381855
1403638531327829504,50.217151,185.7729116310591,6.856482791666667,0.08989429166666667,-2.7376897916666665,-0.011868238913561441,-0.14172073526193954,0.0006981317007977319
1403638531377829376,50.137043,188.75527088169693,8.18855275,0.5883989999999999,-4.290409374999999,-0.005585053606381855,-0.0153588974175501,0.033510321638291124
1403638531427829504,50.380946,226.29529085410945,9.136528916666666,-0.269682875,-4.004382083333333,0.0020943951023931952,0.11100294042683936,0.12566370614359174
1403638531477829376,49.852848,227.8911873762827,8.932223708333334,-0.07354987499999999,-3.6448049166666663,-0.0013962634015954637,0.009773843811168246,0.09564404300928926
1403638531527829504,50.230741,225.97565937861734,8.981256958333333,0.21247741666666667,-4.094276375,0.0006981317007977319,0.01815142422074103,0.03769911184307752
1403638531577829376,59.784174,225.32066467993567,9.103840083333333,0.35140495833333335,-3.8245934999999998,0.006981317007977318,-0.004886921905584123,0.06283185307179587
1403638531627829504,39.41083,229.44164444678134,8.842329416666665,-0.16344416666666667,-3.9880376666666666,0.03420845333908886,0.009773843811168246,0.14381513036433274
1403638531677829376,49.727201,226.5879364335718,8.793296166666666,-0.22882183333333334,-3.832765708333333,0.009773843811168246,0.03490658503988659,0.041189770347066175
1403638531727829504,51.039934,230.40666356763046,9.022118,-0.392266,-3.8654545416666664,0.02652900463031381,0.03560471674068433,0.08587019919812101
1403638531777829376,51.226378,227.4041379458511,8.956740333333332,0.13892754166666665,-3.930832208333333,0.016755160819145562,0.013264502315156905,0.05794493116621174
1403638531827829504,49.237728,230.43288042536568,8.850501625,-0.11441091666666667,-3.955348833333333,0.019547687622336492,0.03490658503988659,0.06771877497737998
1403638531877829376,50.121546,230.02856444660884,9.226423208333333,0.122583125,-3.8491101249999997,0.01884955592153876,0.02024581932313422,0.0879645943005142
1403638531927829504,48.785209,228.3729179344332,8.785123958333333,-0.11441091666666667,-3.9390044166666667,-0.0013962634015954637,0.01884955592153876,0.04956735075663895
1403638531977829376,62.028647,230.89860065011794,8.891362666666666,0.13892754166666665,-3.8654545416666664,0.023038346126325153,0.024434609527920613,0.1054178868204575
1403638532027829504,37.434816,228.40661989051526,9.013945791666666,0.08989429166666667,-3.8899711666666663,0.0,0.01815142422074103,0.03700098014227979
1403638532077829376,50.945759,231.94448639322803,8.858673833333333,-0.024516625,-3.87362675,0.02024581932313422,0.021642082724729686,0.10890854532444616
1403638532127829504,61.508894,228.24220587299115,8.981256958333333,0.23699404166666665,-4.053415333333333,-0.0041887902047863905,0.021642082724729686,0.04677482395344803
1403638532177829376,52.186966,231.91278028462932,8.981256958333333,0.0,-3.898143375,0.008377580409572781,0.020943951023931952,0.08307767239493008
1403638532227829504,53.779364,230.2965615970445,9.095667875,0.22882183333333334,-3.898143375,0.006283185307179587,0.020943951023931952,0.07958701389094143
1403638532277829376,31.881809,230.75354421502487,8.793296166666666,0.057205458333333334,-3.930832208333333,0.0027925268031909274,0.02024581932313422,0.07120943348136866
1403638532327829504,50.865173,230.07233139866995,8.964912541666667,0.23699404166666665,-3.9390044166666667,0.006981317007977318,0.02234021442552742,0.08656833089891874
1403638532377829376,49.061299,230.1552048472514,8.932223708333334,0.06537766666666667,-3.898143375,-0.006283185307179587,0.01815142422074103,0.060039326268604934
1403638532427829504,50.739765,231.25038213201526,8.932223708333334,0.15527195833333335,-3.92266,0.008377580409572781,0.02583087292951608,0.09285151620609833
1403638532477829376,48.997164,229.30694725336338,9.054806833333332,0.07354987499999999,-3.9962098749999995,-0.005585053606381855,0.016057029118347832,0.0614355896702004
1403638532527829504,50.851345,230.6454595330191,8.981256958333333,0.13075533333333333,-3.930832208333333,0.006981317007977318,0.016755160819145562,0.09075712110370514
1403638532577829376,49.074649,230.59572030851024,8.891362666666666,0.23699404166666665,-3.8654545416666664,0.0020943951023931952,0.021642082724729686,0.06562437987498679
1403638532627829504,57.934046,231.15889853158242,8.842329416666665,0.057205458333333334,-3.8899711666666663,0.003490658503988659,0.023736477827122883,0.08307767239493008
1403638532677829376,43.422461,229.12542752201986,9.013945791666666,0.17161637500000002,-3.955348833333333,-0.0027925268031909274,0.01884955592153876,0.07120943348136866
1403638532727829504,49.83139,231.0606230547098,8.981256958333333,0.06537766666666667,-3.8899711666666663,-0.0013962634015954637,0.024434609527920613,0.07120943348136866
1403638532777829376,49.952984,231.08708281848263,9.038462416666666,0.13075533333333333,-3.947176625,-0.0013962634015954637,0.02234021442552742,0.08168140899333462
1403638532827829504,50.041199,230.10519255014563,8.899534874999999,0.10623870833333333,-3.906315583333333,-0.006283185307179587,0.01815142422074103,0.07609635538695278
1403638532877829376,50.547123,231.24000454609222,8.948568125,0.08172208333333333,-3.87362675,0.0027925268031909274,0.020943951023931952,0.08237954069413235
1403638532927829504,49.141884,231.47616237124032,8.948568125,0.08172208333333333,-3.906315583333333,-0.003490658503988659,0.019547687622336492,0.07400196028455958
1403638532977829376,50.992965,231.08040356919784,8.87501825,0.057205458333333334,-3.930832208333333,-0.0006981317007977319,0.025132741228718346,0.08307767239493008
1403638533027829504,48.788309,229.80130775155018,9.005773583333333,0.13892754166666665,-3.9635210416666666,-0.003490658503988659,0.02234021442552742,0.06841690667817772
1403638533077829376,50.64106,230.70270501669387,9.046634625,0.17161637500000002,-3.9144877916666663,0.0,0.019547687622336492,0.08098327729253688
1403638533127829504,49.10326,230.3230299972335,8.940395916666665,0.08989429166666667,-3.898143375,-0.006283185307179587,0.01815142422074103,0.0747000919853573
1403638533177829376,49.907208,230.56338876359965,8.932223708333334,0.057205458333333334,-3.930832208333333,0.003490658503988659,0.017453292519943295,0.08168140899333462
1403638533227829504,50.060272,230.67841818966892,8.899534874999999,0.032688833333333334,-3.87362675,-0.0027925268031909274,0.023038346126325153,0.08098327729253688
1403638533277829376,50.802469,231.04483317818662,8.9240515,0.04086104166666667,-3.9390044166666667,-0.003490658503988659,0.024434609527920613,0.07888888219014369
1403638533327829504,61.150313,230.86621680050996,8.964912541666667,0.11441091666666667,-3.9390044166666667,-0.0020943951023931952,0.021642082724729686,0.07330382858376185
1403638533377829376,37.623167,231.14563510546895,9.07115125,0.122583125,-3.92266,0.0,0.017453292519943295,0.07330382858376185
1403638533427829504,52.638054,231.26479525193332,9.013945791666666,0.24516625,-3.930832208333333,0.0006981317007977319,0.021642082724729686,0.08028514559173915
1403638533477829376,49.681901,231.02529897506867,8.883190458333333,0.06537766666666667,-3.930832208333333,-0.0020943951023931952,0.014660765716752367,0.07819075048934597
1403638533527829504,49.546004,230.5678476925193,8.915879291666666,0.17978858333333333,-3.87362675,-0.0041887902047863905,0.023736477827122883,0.08517206749732328
1403638533577829376,67.061424,230.83705416954393,8.964912541666667,0.057205458333333334,-3.906315583333333,-0.0041887902047863905,0.020943951023931952,0.07190756518216637
1403638533627829504,32.4862,230.419412598459,9.005773583333333,0.122583125,-3.979865458333333,0.0,0.02234021442552742,0.08517206749732328
1403638533677829376,49.791336,230.4058880161101,8.891362666666666,0.032688833333333334,-3.906315583333333,-0.004886921905584123,0.019547687622336492,0.07120943348136866
1403638533727829504,50.248147,231.07307518491587,9.022118,0.10623870833333333,-3.8899711666666663,0.0006981317007977319,0.020943951023931952,0.08377580409572781
1403638533777829376,49.85094,231.00282660460576,8.997601374999999,0.18796079166666665,-3.947176625,-0.003490658503988659,0.023038346126325153,0.07888888219014369
1403638533827829504,49.811125,230.60452389789788,8.834157208333334,0.032688833333333334,-3.9635210416666666,-0.023736477827122883,0.023038346126325153,0.08726646259971647
1403638533877829376,49.623251,225.68302202913844,8.433719,-1.765197,-3.3996386666666667,-0.023038346126325153,0.01815142422074103,0.08307767239493008
1403638533927829504,50.401211,226.85210646620558,9.80665,-1.1604535833333331,-4.225031708333333,-0.008377580409572781,0.0614355896702004,0.041887902047863905
1403638533977829376,49.511909,221.97330220251786,10.207088208333332,-0.44129925,-4.290409374999999,0.03420845333908886,0.03420845333908886,0.08237954069413235
1403638534027829504,66.259623,228.07104478242678,10.059988458333333,-0.7600153749999999,-4.519231208333333,0.030019663134302467,-0.02024581932313422,0.08447393579652555
1403638534077829376,33.682346,227.08869895997614,8.907707083333333,1.936813375,-4.323098208333334,0.11868238913561441,-0.0027925268031909274,0.05515240436302082
1403638534127829504,61.243773,224.42719906047643,8.376513541666666,0.9970094166666666,-4.094276375,0.06562437987498679,-0.02652900463031381,0.08028514559173915
1403638534177829376,56.132078,228.14949053604178,9.242767624999999,0.16344416666666667,-4.208687291666666,0.06841690667817772,0.06073745796940267,0.06841690667817772
1403638534227829504,43.903828,226.8338416644218,9.340834124999999,-0.40861041666666664,-4.200515083333333,0.009075712110370514,0.046076692252650306,0.020943951023931952
1403638534277829376,50.370931,227.5328774917961,9.863855458333333,-1.3892754166666665,-3.9880376666666666,-0.04956735075663895,-0.003490658503988659,0.10192722831646883
1403638534327829504,38.596869,211.80594829579474,7.526603874999999,0.0980665,-2.8602729166666667,0.01117010721276371,0.024434609527920613,0.09634217471008698
1403638534377829376,48.943996,211.82262818653038,9.340834124999999,-0.4004382083333333,-4.2413761249999995,-0.0041887902047863905,0.023038346126325153,0.06492624817418906
1403638534427829504,50.937414,215.02335552831312,8.981256958333333,0.04903325,-3.587599458333333,0.0027925268031909274,0.031415926535897934,0.08656833089891874
1403638534477829376,49.7818,221.1837149719957,7.967903124999999,-0.45764366666666667,-3.4813607499999994,0.1165879940332212,0.046076692252650306,0.019547687622336492
1403638534527829504,60.843944,226.22201459005174,9.553311541666666,-0.21247741666666667,-4.347614833333333,0.08237954069413235,-0.0006981317007977319,0.07609635538695278
1403638534577829376,38.976431,227.88888407260382,8.9240515,0.7600153749999999,-4.045243125,-0.031415926535897934,0.04537856055185257,0.05235987755982988
1403638534627829504,50.25816,226.3246780453071,9.136528916666666,-0.3023717083333333,-4.126965208333333,-0.029321531433504733,0.0153588974175501,0.10611601852125524
1403638534677829376,50.069809,229.28966849630302,8.981256958333333,1.2503478749999999,-4.118792999999999,-0.05864306286700947,0.008377580409572781,0.10821041362364843
1403638534727829504,48.983335,227.0387908819193,8.67888525,-0.8580818749999999,-3.726527,-0.056548667764616284,0.023038346126325153,0.0942477796076938
1403638534777829376,50.649166,228.14854460467242,9.5124505,-0.9234595416666666,-4.020726499999999,-0.05305800926062762,0.014660765716752367,0.09494591130849153
1403638534827829504,60.194493,228.09758676429433,9.022118,-0.6210878333333334,-4.004382083333333,-0.03630284844148206,0.011868238913561441,0.08028514559173915
1403638534877829376,46.404838,220.84916661901985,8.915879291666666,-1.3647587916666666,-3.6202882916666663,-0.07330382858376185,0.032812189937493394,0.08656833089891874
1403638534927829504,45.428038,226.13734990557555,8.695229666666666,-0.22882183333333334,-3.6366327083333334,0.06073745796940267,0.02722713633111154,0.060039326268604934
1403638534977829376,47.394752,228.60946655788445,8.989429166666666,-0.4739880833333333,-3.930832208333333,0.023038346126325153,0.019547687622336492,0.06911503837897544
1403638535027829504,61.95736,228.63426173817103,9.054806833333332,0.016344416666666667,-3.898143375,0.0307177948351002,0.021642082724729686,0.046076692252650306
1403638535077829376,37.984371,228.74801653812355,9.259112041666667,-0.13892754166666665,-4.0615875416666665,0.024434609527920613,-0.006981317007977318,0.06911503837897544
1403638535127829504,50.055265,228.9840857570009,8.997601374999999,-0.032688833333333334,-4.004382083333333,0.021642082724729686,0.03490658503988659,0.0767944870877505
1403638535177829376,49.920321,229.01721943868478,8.597163166666666,-0.3350605416666666,-3.832765708333333,0.003490658503988659,0.021642082724729686,0.06841690667817772
1403638535227829504,67.96956,229.87747586801135,9.161045541666667,0.34323275000000003,-3.947176625,0.009075712110370514,-0.0006981317007977319,0.09005898940290741
1403638535277829376,33.052922,229.047339175418,8.883190458333333,-0.04903325,-4.077931958333333,0.019547687622336492,0.0307177948351002,0.05026548245743669
1403638535327829504,59.979677,229.76614574061097,9.136528916666666,0.3840937916666667,-4.028898708333333,0.014660765716752367,0.028623399732707,0.08517206749732328
1403638535377829376,54.495334,229.8211621046778,8.825985,0.15527195833333335,-3.7673880416666665,-0.0041887902047863905,0.01884955592153876,0.06422811647339133
1403638535427829504,45.443297,230.0345953819436,9.447072833333333,-0.057205458333333334,-3.947176625,0.01815142422074103,0.03839724354387525,0.08098327729253688
1403638535477829376,40.045023,230.66844475145146,9.030290208333332,0.43312704166666666,-4.110620791666666,0.021642082724729686,0.020943951023931952,0.07749261878854824
1403638535527829504,49.110889,229.11053712889276,8.752435125,0.196133,-3.8899711666666663,-0.0020943951023931952,0.019547687622336492,0.06771877497737998
1403638535577829376,51.038504,229.74391796444584,8.9240515,0.13075533333333333,-3.9880376666666666,-0.004886921905584123,0.014660765716752367,0.08098327729253688
1403638535627829504,59.776068,230.8299450465314,8.817812791666666,0.32688833333333334,-3.906315583333333,-0.0027925268031909274,0.023736477827122883,0.09075712110370514
1403638535677829376,39.060831,229.57111254886502,8.768779541666666,-0.14709974999999997,-3.8245934999999998,-0.010471975511965976,0.029321531433504733,0.06073745796940267
1403638535727829504,50.985336,230.18387434850868,9.275456458333332,0.07354987499999999,-4.16782625,0.011868238913561441,0.01117010721276371,0.0747000919853573
1403638535777829376,60.94265,230.3679386652876,8.834157208333334,0.2533384583333333,-3.9144877916666663,0.004886921905584123,0.019547687622336492,0.08237954069413235
1403638535827829504,38.968325,229.17277037309373,8.883190458333333,0.35957716666666667,-3.8654545416666664,-0.0153588974175501,0.01117010721276371,0.07609635538695278
1403638535877829376,49.259662,230.6980178299898,8.825985,0.17161637500000002,-3.881798958333333,-0.00767944870877505,0.011868238913561441,0.09354964790689606
1403638535927829504,64.579725,229.8788460802146,8.997601374999999,0.20430520833333332,-4.0125542916666666,-0.006981317007977318,0.021642082724729686,0.07260569688296412
1403638535977829376,37.446022,230.92029565532073,8.7279185,0.17161637500000002,-3.906315583333333,-0.02024581932313422,0.05515240436302082,0.1096066770252439
1403638536027829504,48.951865,227.4465361516993,9.430728416666666,0.3023717083333333,-4.159654041666666,-0.008377580409572781,0.03769911184307752,0.11100294042683936
1403638536077829376,50.779819,229.10893678836223,9.210078791666666,0.196133,-4.16782625,0.0013962634015954637,0.0307177948351002,0.10611601852125524
1403638536127829504,48.863411,230.22551584073676,9.1201845,0.3350605416666666,-3.881798958333333,-0.02583087292951608,0.02234021442552742,0.06702064327658225
1403638536177829376,49.679518,228.3009668222257,8.646196416666667,0.016344416666666667,-3.7919046666666665,0.003490658503988659,0.019547687622336492,0.11728612573401893
1403638536227829504,51.125288,228.62728716023923,8.9240515,-0.11441091666666667,-3.726527,-0.009773843811168246,0.003490658503988659,0.06283185307179587
1403638536277829376,69.387436,230.1587511353871,8.915879291666666,0.465815875,-4.110620791666666,-0.006981317007977318,0.032114058236695664,0.07888888219014369
1403638536327829504,31.472683,229.8985856661267,8.915879291666666,-0.32688833333333334,-3.8654545416666664,-0.006283185307179587,0.020943951023931952,0.07609635538695278
1403638536377829376,49.620151,228.9995926321227,8.989429166666666,0.17161637500000002,-3.9390044166666667,0.004886921905584123,0.02234021442552742,0.08447393579652555
1403638536427829504,49.957276,229.18057390251292,8.474580041666666,-0.17161637500000002,-3.702010375,-0.00767944870877505,0.010471975511965976,0.06841690667817772
1403638536477829376,48.99168,229.49533749392103,9.291800875,-0.032688833333333334,-4.045243125,0.003490658503988659,0.023736477827122883,0.09564404300928926
1403638536527829504,50.631761,229.91561204381367,9.16921775,-0.21247741666666667,-3.9635210416666666,-0.009075712110370514,0.02234021442552742,0.08307767239493008
1403638536577829376,49.148083,229.74256418451014,8.793296166666666,-0.220649625,-3.5957716666666664,-0.010471975511965976,-0.006283185307179587,0.08377580409572781
1403638536627829504,61.553002,228.11931677740822,9.193734375,-0.220649625,-3.930832208333333,-0.011868238913561441,0.03420845333908886,0.06771877497737998
1403638536677829376,49.833774,229.49272419399304,8.588990958333333,-0.5148491249999999,-3.693838166666666,-0.032812189937493394,0.032812189937493394,0.046076692252650306
1403638536727829504,55.960178,229.8543511306135,8.662540833333333,0.48216029166666663,-3.9390044166666667,0.0041887902047863905,0.02234021442552742,0.12356931104119852
1403638536777829376,32.959938,229.27584009186174,9.357178541666666,-0.04086104166666667,-4.053415333333333,0.0041887902047863905,0.02722713633111154,0.08168140899333462
1403638536827829504,61.273337,228.2262030512135,9.430728416666666,0.008172208333333333,-4.159654041666666,-0.003490658503988659,0.02234021442552742,0.09005898940290741
1403638536877829376,38.751364,228.37827979197635,8.989429166666666,0.11441091666666667,-4.020726499999999,-0.010471975511965976,0.0006981317007977319,0.0614355896702004
1403638536927829504,48.960209,226.54825320492745,8.785123958333333,0.057205458333333334,-3.930832208333333,0.02652900463031381,0.025132741228718346,0.11519173063162574
1403638536977829376,51.077842,227.5351441133029,8.662540833333333,0.2778550833333333,-3.9390044166666667,0.019547687622336492,0.039095375244672985,0.09704030641088471
1403638537027829504,66.57672,228.9929044121038,9.161045541666667,-0.4739880833333333,-3.92266,0.008377580409572781,0.030019663134302467,0.11239920382843484
1403638537077829376,44.347047,226.06453444598756,9.152873333333332,-0.4739880833333333,-3.7346992083333332,0.0020943951023931952,0.028623399732707,0.048869219055841226
1403638537127829504,50.201893,227.78303618247324,9.226423208333333,-0.6864655000000001,-3.9880376666666666,-0.0020943951023931952,0.0006981317007977319,0.05515240436302082
1403638537177829376,45.470238,227.29312732590427,9.087495666666666,-0.3350605416666666,-3.979865458333333,0.0,0.04049163864626844,0.06771877497737998
1403638537227829504,45.156717,227.7309574899117,9.046634625,-0.3105439166666667,-3.8491101249999997,0.016057029118347832,0.006283185307179587,0.07888888219014369
1403638537277829376,47.938586,227.0339270043477,9.250939833333334,-0.17161637500000002,-4.069759749999999,0.011868238913561441,0.02652900463031381,0.07190756518216637
1403638537327829504,66.282987,227.59161812193562,8.760607333333333,-0.0980665,-3.8164212916666664,-0.0013962634015954637,0.03839724354387525,0.08307767239493008
1403638537377829376,33.394814,228.27849706577345,9.005773583333333,-0.17161637500000002,-3.77556025,0.0153588974175501,0.0,0.08656833089891874
1403638537427829504,61.338186,228.8415324405232,9.022118,0.024516625,-4.143309625,0.0020943951023931952,0.032114058236695664,0.07190756518216637
1403638537477829376,39.252043,228.4605714028913,8.401030166666667,0.016344416666666667,-4.086104166666667,-0.005585053606381855,0.0307177948351002,0.07051130178057091
1403638537527829504,48.916816,226.76336898856673,9.430728416666666,0.24516625,-4.192342875,-0.010471975511965976,0.05026548245743669,0.08307767239493008
1403638537577829376,51.190377,227.2027997321366,8.3356525,0.220649625,-3.342433208333333,0.0020943951023931952,-0.013962634015954637,0.10192722831646883
1403638537627829504,48.781633,226.67638501669768,7.534776083333333,-0.53936575,-3.2035056666666666,-0.02722713633111154,0.02583087292951608,0.0307177948351002
1403638537677829376,50.653458,227.12862902801177,8.883190458333333,-0.9479761666666666,-3.718354791666666,-0.0439822971502571,0.019547687622336492,0.032114058236695664
1403638537727829504,49.334526,226.76436980569508,8.3356525,0.10623870833333333,-3.4323274999999995,-0.025132741228718346,0.01884955592153876,0.06073745796940267
1403638537777829376,51.103592,227.4730051238877,7.9188698749999995,0.612915625,-3.113611375,-0.023736477827122883,0.008377580409572781,0.050963614158234416
1403638537827829504,60.629368,226.839146797952,8.597163166666666,0.5230213333333333,-3.514049583333333,0.0027925268031909274,0.029321531433504733,0.05445427266222308
1403638537877829376,50.000905,223.54697911800673,9.455245041666666,0.5148491249999999,-3.7919046666666665,0.013962634015954637,0.03490658503988659,0.09354964790689606
1403638537927829504,39.044381,223.4928060764957,8.809640583333332,-0.5720545833333333,-4.086104166666667,-0.013962634015954637,0.05235987755982988,0.09145525280450287
1403638537977829376,50.346851,223.22891744502843,8.621679791666667,-0.14709974999999997,-4.086104166666667,0.019547687622336492,-0.05305800926062762,0.06073745796940267
1403638538027829504,49.95966,221.86540010904224,9.855683249999998,-0.220649625,-4.4211647083333325,0.008377580409572781,0.08517206749732328,0.08866272600131193
1403638538077829376,50.555944,224.87984367877544,8.891362666666666,0.8825985,-4.2168595,0.030019663134302467,-0.029321531433504733,0.06283185307179587
1403638538127829504,49.957752,224.19141328354883,8.482752249999999,-0.3023717083333333,-3.6284604999999996,0.0153588974175501,0.003490658503988659,0.05026548245743669
1403638538177829376,49.821854,221.2572180342714,8.760607333333333,-0.7681875833333334,-3.5549106249999998,0.01117010721276371,0.06702064327658225,0.07958701389094143
1403638538227829504,50.122738,218.84832251036127,9.177389958333332,-0.220649625,-4.429336916666666,-0.02024581932313422,0.13892820845874865,0.057246799465414
1403638538277829376,49.584627,215.30540845931696,10.435910041666666,0.04903325,-5.262902166666666,-0.005585053606381855,0.0027925268031909274,0.0942477796076938
1403638538327829504,61.527967,222.81237781007167,8.466407833333333,0.4985047083333333,-3.8164212916666664,-0.021642082724729686,0.11588986233242347,0.06562437987498679
1403638538377829376,37.880183,223.77936364554523,9.013945791666666,-0.13075533333333333,-3.947176625,-0.02024581932313422,0.05026548245743669,0.0747000919853573
1403638538427829504,61.807871,223.30122496277625,6.676694208333332,0.6537766666666667,-3.0809225416666663,-0.016057029118347832,0.006981317007977318,0.08936085770210968
1403638538477829376,38.8031,218.87048054662276,7.273265416666667,0.367749375,-2.778550833333333,-0.0013962634015954637,0.11868238913561441,0.08656833089891874
1403638538527829504,50.049305,223.89485554367545,8.172208333333334,-0.2533384583333333,-3.391466458333333,-0.02234021442552742,0.02234021442552742,0.08866272600131193
1403638538577829376,61.016083,215.73863881448997,11.244958666666667,-0.40861041666666664,-5.140319041666666,-0.003490658503988659,0.04677482395344803,0.08168140899333462
1403638538627829504,49.878359,219.53130973282123,7.559292708333333,0.3023717083333333,-2.476179125,-0.005585053606381855,0.008377580409572781,0.07888888219014369
1403638538677829376,53.427458,223.4516053596213,10.730109541666666,-0.15527195833333335,-5.066769166666667,0.005585053606381855,0.0747000919853573,0.05864306286700947
1403638538727829504,46.637058,216.34850394733297,6.341633666666666,0.15527195833333335,-3.1544724166666662,0.02722713633111154,-0.009773843811168246,0.1117010721276371
1403638538777829376,37.96792,202.0849576465489,8.564474333333333,0.024516625,-2.8439284999999996,0.0307177948351002,-0.032114058236695664,0.023038346126325153
1403638538827829504,66.127062,207.08846501582335,8.270274833333334,0.15527195833333335,-2.1656352083333332,-0.008377580409572781,0.023038346126325153,0.1165879940332212
1403638538877829376,33.313513,148.61465624715103,7.314126458333333,-0.008172208333333333,-3.6611493333333334,0.01117010721276371,0.1270599695451872,0.0747000919853573
1403638538927829504,50.6742,130.9909884648314,8.539957708333333,-0.6456044583333332,-4.110620791666666,-0.0013962634015954637,0.16615534478986016,0.11100294042683936
1403638538977829376,50.544739,118.14932662997637,10.019127416666667,-0.34323275000000003,-4.339442625,0.0020943951023931952,0.21362830044410594,0.1424188669627373
1403638539027829504,49.725055,173.55937492926668,11.42474725,0.367749375,-4.314926,-0.03490658503988659,0.3029891581462156,0.11588986233242347
1403638539077829376,48.894406,145.34361949645313,12.699611749999999,0.269682875,-3.906315583333333,0.009773843811168246,0.17872171540421936,0.08866272600131193
1403638539127829504,50.331354,135.95357844966577,10.043644041666665,-0.6047434166666666,-2.6641399166666666,0.0006981317007977319,0.2150245638457014,0.02583087292951608
1403638539177829376,61.250686,142.19882135805207,8.940395916666665,0.5230213333333333,-2.7867230416666664,0.0307177948351002,0.1424188669627373,0.04677482395344803
1403638539227829504,39.197445,117.59804167645851,10.615698625,-0.17161637500000002,-4.110620791666666,0.00767944870877505,0.1165879940332212,0.09564404300928926
1403638539277829376,49.424887,187.85706793383738,10.051816249999998,0.3105439166666667,-3.546738416666667,0.025132741228718346,0.08517206749732328,0.10611601852125524
1403638539327829504,51.029444,169.24004380746078,9.07115125,0.48216029166666663,-3.4568441249999995,0.009773843811168246,-0.03420845333908886,0.016755160819145562
1403638539377829376,49.833059,189.86098992096694,10.550320958333334,-0.43312704166666666,-3.8654545416666664,0.019547687622336492,0.011868238913561441,0.0942477796076938
1403638539427829504,50.228357,194.75874767334355,9.332661916666666,0.7763597916666666,-3.18716125,0.0307177948351002,-0.033510321638291124,0.056548667764616284
1403638539477829376,56.570292,203.12713685442054,9.152873333333332,0.416782625,-3.3996386666666667,0.006283185307179587,-0.07888888219014369,0.04258603374866164
1403638539527829504,43.431044,216.29077365718484,9.757616749999999,-0.318716125,-3.563082833333333,0.02652900463031381,0.009773843811168246,0.07749261878854824
1403638539577829376,50.064802,237.1165562098807,7.5511205,1.0950759166666666,-2.623278875,0.023038346126325153,0.03839724354387525,0.03560471674068433
1403638539627829504,49.219131,247.2244670621666,6.366150291666666,0.06537766666666667,-1.9122967499999999,0.03490658503988659,-0.009773843811168246,0.06911503837897544
1403638539677829376,51.07522,264.538993414595,6.22722275,0.024516625,-1.3565865833333333,0.01884955592153876,-0.019547687622336492,0.0635299847725936
1403638539727829504,49.852133,300.3008291098393,10.182571583333333,0.6701210833333332,-4.609125499999999,0.013962634015954637,-0.028623399732707,0.041887902047863905
1403638539777829376,49.902439,326.63494445109257,7.84532,-0.45764366666666667,-2.5252123749999997,0.0006981317007977319,-0.04956735075663895,0.08098327729253688
1403638539827829504,50.094366,340.1603514995952,9.970094166666666,-0.5557101666666666,-3.334261,0.02583087292951608,-0.08936085770210968,0.0767944870877505
1403638539877829376,49.998284,301.3954483293946,9.07115125,0.416782625,-3.3751220416666667,0.023038346126325153,-0.0991347015132779,0.060039326268604934
1403638539927829504,60.732603,307.53679179398665,8.9240515,-0.196133,-2.549729,-0.030019663134302467,-0.13962634015954636,0.10262536001726656
1403638539977829376,38.910627,281.14311554413274,10.787315,-0.4494714583333333,-3.6121160833333334,0.02024581932313422,-0.24504422698000386,0.06632251157578452
1403638540027829504,50.657988,340.9150113525821,8.842329416666665,0.6946377083333333,-2.9256505833333333,0.0027925268031909274,-0.14521139376592823,0.0
1403638540077829376,49.64447,324.9984109473585,8.294791458333332,-1.0133538333333332,-3.293399958333333,-0.013962634015954637,-0.23108159296404923,0.10402162341886204
1403638540127829504,60.815811,372.4534826671823,9.839338833333333,-0.5965712083333333,-2.8929617499999996,0.0153588974175501,-0.10681415022205297,0.10122909661567112
1403638540177829376,39.165735,422.02922986925256,10.084505083333333,-0.23699404166666665,-3.4568441249999995,-0.010471975511965976,0.046076692252650306,0.03769911184307752
1403638540227829504,48.962117,267.7474051551248,8.883190458333333,-0.07354987499999999,-3.718354791666666,0.016057029118347832,0.20245819323134223,0.1340412865531645
1403638540277829376,49.958705,202.4233519405981,8.049625208333332,0.24516625,-1.8632635,-0.0027925268031909274,0.28623399732707,-0.004886921905584123
1403638540327829504,63.19666,376.90777329428334,8.425546791666665,-0.93163175,-3.7101825833333333,-0.009075712110370514,0.22060961745208327,0.0747000919853573
1403638540377829376,48.812866,533.6084959600198,10.909898125,0.20430520833333332,-4.993219291666667,0.06422811647339133,0.16126842288427606,0.024434609527920613
1403638540427829504,38.914442,488.51640774656784,7.935214291666666,-0.5720545833333333,-2.9338227916666666,0.14032447186034408,0.08307767239493008,-0.013264502315156905
1403638540477829376,64.568043,1075.7436902979714,9.128356708333332,0.2533384583333333,-2.3127349583333334,0.2192133540504878,-0.0153588974175501,-0.006283185307179587
1403638540527829504,46.824455,1051.0662326128243,10.354187958333334,-0.07354987499999999,-3.9390044166666667,0.239459173373622,0.02024581932313422,-0.05515240436302082
1403638540577829376,49.020052,959.1273769558068,10.068160666666666,0.032688833333333334,-4.8052585,0.33719761148530447,0.041887902047863905,-0.006283185307179587
1403638540627829504,39.65187,893.4649178826098,6.880999416666667,0.5475379583333333,-3.0972669583333334,0.3267256359733385,0.1165879940332212,-0.12636183784438945
1403638540677829376,50.301552,959.3938549566991,10.125366125,-0.016344416666666667,-3.702010375,0.3728023282259888,0.07051130178057091,-0.2366666465704311
1403638540727829504,50.107479,915.667697785581,6.880999416666667,-1.2340034583333332,-3.563082833333333,0.36582101121801147,-0.032812189937493394,-0.21642082724729686
1403638540777829376,64.400196,854.8305133424047,10.697420708333333,0.10623870833333333,-4.184170666666667,0.5194099853935125,0.06632251157578452,-0.2436479635784084
1403638540827829504,36.387206,855.018114461926,10.632043041666666,0.43312704166666666,-3.4404997083333333,0.47822021504644624,0.05585053606381855,-0.2303834612632515
1403638540877829376,49.160719,826.6007571975863,8.098658458333333,0.612915625,-3.219850083333333,0.5215043804959056,0.03769911184307752,-0.3392920065876977
1403638540927829504,49.616575,840.6953363659942,8.327480291666665,0.32688833333333334,-3.309744375,0.5515240436302082,-0.039793506945470715,-0.1668534764906579
1403638540977829376,50.43149,858.5657043941405,10.076332875,-0.24516625,-3.5794272499999997,0.43703044469938007,0.048869219055841226,-0.12775810124598494
1403638541027829504,61.003208,876.7744906175433,10.256121458333332,-0.6537766666666667,-2.8766173333333334,0.45238934211693027,0.05375614096142535,-0.014660765716752367
1403638541077829376,39.013386,954.8009443944076,9.447072833333333,-0.6292600416666666,-2.9093061666666666,0.3211405823669566,-0.0006981317007977319,-0.06841690667817772
1403638541127829504,60.451984,984.5346305362411,8.891362666666666,0.016344416666666667,-3.2525389166666665,0.3309144261781249,0.07888888219014369,-0.01117010721276371
1403638541177829376,39.116621,992.828567715141,9.561483749999999,0.8172208333333333,-3.7837324583333327,0.17941984710501704,-0.02722713633111154,0.03769911184307752
1403638541227829504,50.396681,1043.7214128439214,9.005773583333333,-0.9561483749999999,-2.6641399166666666,0.14870205226991687,0.02234021442552742,-0.029321531433504733
1403638541277829376,50.542831,1140.9698196284414,9.152873333333332,0.7109821249999999,-3.726527,0.1647590813882647,0.06283185307179587,-0.013962634015954637
1403638541327829504,50.033093,1105.877275376595,9.659550249999999,0.0,-4.527403416666666,0.06492624817418906,0.05585053606381855,0.07819075048934597
1403638541377829376,48.897266,1108.279988946162,10.395049,-0.784532,-4.274064958333334,0.06771877497737998,-0.039793506945470715,0.14381513036433274
1403638541427829504,49.738646,1058.5863134654799,11.563674791666667,0.7028099166666667,-3.955348833333333,0.0006981317007977319,0.0,0.08377580409572781
1403638541477829376,62.055111,888.038399811612,10.337843541666667,-0.10623870833333333,-4.625469916666667,-0.04537856055185257,0.016755160819145562,0.02583087292951608
1403638541527829504,52.381038,902.4445078683789,9.242767624999999,0.44129925,-3.5957716666666664,0.027925268031909273,0.01884955592153876,0.05235987755982988
1403638541577829376,47.508955,888.3867515534492,8.556302125,0.4494714583333333,-3.113611375,0.039095375244672985,0.12426744274199628,-0.012566370614359173
1403638541627829504,49.232245,866.8568296562221,10.2969825,0.0980665,-3.8409379166666664,0.1270599695451872,0.12775810124598494,0.11868238913561441
1403638541677829376,38.496256,775.0454788346542,8.989429166666666,-0.318716125,-4.2168595,0.16406094968746698,0.07260569688296412,0.0635299847725936
1403638541727829504,56.622266,756.010994175077,10.484943291666665,-0.42495483333333334,-4.0125542916666666,0.2869321290278678,0.03560471674068433,0.1626646862858715
1403638541777829376,44.797659,656.8199941467832,10.084505083333333,0.24516625,-3.366949833333333,0.3078760800517997,-0.03700098014227979,0.12007865253720987
1403638541827829504,49.364329,603.1669439362632,10.059988458333333,0.44129925,-2.99102825,0.29251718263424964,0.05026548245743669,0.06702064327658225
1403638541877829376,49.523353,619.2755651261418,6.791105125,0.32688833333333334,-1.838746875,0.3469714552964727,0.01815142422074103,-0.03839724354387525
1403638541927829504,60.900927,622.3724096038588,7.534776083333333,0.392266,-2.999200458333333,0.36302848441482055,-0.0013962634015954637,-0.07400196028455958
1403638541977829376,39.210081,570.2856111331909,8.360169125,-0.35957716666666667,-3.2770555416666665,0.3818780403363593,-0.06911503837897544,0.010471975511965976
1403638542027829504,49.962044,568.9708048532997,9.80665,0.008172208333333333,-3.8491101249999997,0.47123889803846897,-0.07260569688296412,-0.032812189937493394
1403638542077829376,49.657821,547.9597125886081,9.782133375,0.5720545833333333,-4.396648083333333,0.42865286428980726,0.050963614158234416,-0.08028514559173915
1403638542127829504,62.999011,367.3662110198995,9.226423208333333,0.13075533333333333,-3.211677875,0.5173155902911193,0.02234021442552742,-0.05026548245743669
1403638542177829376,37.154913,371.4034637415867,7.461226208333334,0.35957716666666667,-2.803067458333333,0.48939032225921,-0.009075712110370514,-0.14381513036433274
1403638542227829504,61.12504,380.2858007738512,8.327480291666665,-0.16344416666666667,-2.9093061666666666,0.5522221753310059,-0.024434609527920613,-0.20804324683772407
1403638542277829376,38.957119,407.96691954395953,10.084505083333333,-0.15527195833333335,-2.69682875,0.5068436147791533,-0.09075712110370514,-0.07888888219014369
1403638542327829504,60.942173,393.2167534913791,9.921060916666667,-0.21247741666666667,-3.2035056666666666,0.4314453910929983,0.16755160819145562,-0.16126842288427606
1403638542377829376,49.502372,361.2538380788712,8.196724958333332,0.04086104166666667,-3.4241552916666667,0.40002946455710037,0.25132741228718347,-0.21851522234969004
1403638542427829504,39.491177,314.79874424203854,9.357178541666666,0.23699404166666665,-4.519231208333333,0.278554548618295,0.2960078411382383,-0.28623399732707
1403638542477829376,49.881697,308.6431495673104,9.414383999999998,-0.3840937916666667,-3.391466458333333,0.15219271077390556,0.296705972839036,-0.3497639820996636
1403638542527829504,49.881935,391.9386463224496,10.730109541666666,0.465815875,-4.257720541666666,0.16545721308906244,0.35325464060365225,-0.3120648702565861
1403638542577829376,50.592661,298.4784211558959,9.888372083333332,1.0869037083333333,-4.028898708333333,0.13962634015954636,0.03700098014227979,-0.032812189937493394
1403638542627829504,60.652256,376.7611739439509,8.915879291666666,-0.7109821249999999,-2.4843513333333336,0.09773843811168245,-0.01117010721276371,-0.04328416544945937
1403638542677829376,50.627231,422.053382533906,8.180380541666665,0.6537766666666667,-3.3506054166666663,0.16824973989225336,-0.09005898940290741,0.10681415022205297
1403638542727829504,38.549185,378.9647749080095,7.608325958333333,0.15527195833333335,-2.5660734166666663,0.19896753472735357,-0.032114058236695664,0.35465090400524774
1403638542777829376,49.771547,403.7814984686226,11.089686708333334,0.17161637500000002,-3.8164212916666664,0.13892820845874865,-0.06911503837897544,0.22549653935766736
1403638542827829504,60.990334,440.5789923632576,8.221241583333333,-0.29419949999999995,-3.1217835833333334,0.056548667764616284,-0.05235987755982988,0.2869321290278678
1403638542877829376,52.554846,436.515127030666,11.155064374999998,0.8417374583333332,-3.857282333333333,0.12217304763960307,-0.05235987755982988,0.2645919146023404
1403638542927829504,46.975612,427.8049527808057,9.675894666666666,-0.220649625,-3.8899711666666663,-0.017453292519943295,-0.10471975511965977,0.18779742751458986
1403638542977829376,39.108277,477.29517221065794,10.109021708333332,0.17978858333333333,-3.7346992083333332,0.10122909661567112,-0.19896753472735357,0.19268434942017396
1403638543027829504,49.826383,307.10803076535365,9.422556208333333,0.220649625,-3.7346992083333332,-0.011868238913561441,-0.03769911184307752,0.17453292519943295
1403638543077829376,61.679364,308.4120962239286,7.902525458333333,-0.5311935416666667,-3.0400614999999998,0.003490658503988659,-0.039793506945470715,0.2234021442552742
1403638543127829504,38.472652,330.5862573934095,9.504278291666665,0.93163175,-3.759215833333333,-0.02722713633111154,0.02722713633111154,0.057246799465414
1403638543177829376,64.250946,418.79367888153246,8.793296166666666,0.5311935416666667,-3.309744375,-0.012566370614359173,-0.03769911184307752,0.09494591130849153
1403638543227829504,35.914898,413.1019590437308,10.313326916666666,0.11441091666666667,-3.18716125,0.02024581932313422,0.07888888219014369,0.15428710587629874
1403638543277829376,50.101757,416.58082119555405,7.363159708333333,0.7436709583333333,-3.138128,-0.08866272600131193,-0.047472955654245766,0.05864306286700947
1403638543327829504,50.034761,409.97813042240006,9.978266375,-1.2176590416666666,-4.437509125,0.032812189937493394,-0.025132741228718346,0.11728612573401893
1403638543377829376,49.86167,395.77001143313174,6.709383041666666,0.8907707083333333,-2.2228406666666665,0.07120943348136866,0.03490658503988659,0.005585053606381855
1403638543427829504,50.061464,356.23584059675795,10.484943291666665,-0.10623870833333333,-2.4925235416666665,0.0767944870877505,-0.07330382858376185,0.07190756518216637
1403638543477829376,49.923897,348.27888249525586,8.572646541666666,0.2778550833333333,-3.5794272499999997,0.2241002759560719,0.01815142422074103,-0.04956735075663895
1403638543527829504,49.982786,289.06025958971725,9.373522958333332,0.8662540833333333,-3.162644625,0.25970499269675623,0.05794493116621174,-0.05515240436302082
1403638543577829376,50.053597,270.9213056706492,7.207887749999999,0.06537766666666667,-2.5660734166666663,0.2778564169174973,0.016057029118347832,-0.15009831567151233
1403638543627829504,49.726724,256.1669231590746,9.496106083333332,-0.5720545833333333,-2.9174783749999995,0.3769911184307752,-0.005585053606381855,-0.13334315485236678
1403638543677829376,50.041914,240.59842707339104,10.378704583333333,0.06537766666666667,-3.906315583333333,0.39514254265151627,-0.04956735075663895,-0.11030480872604163
1403638543727829504,60.761214,239.50418018336262,9.210078791666666,0.8662540833333333,-3.015544875,0.4461061568097506,0.05235987755982988,-0.12077678423800758
1403638543777829376,39.431572,234.72610031972187,9.430728416666666,-0.10623870833333333,-3.2770555416666665,0.4384267081009756,0.039793506945470715,-0.2715732316103177
1403638543827829504,50.121545,240.16862283006222,12.029490666666666,0.5475379583333333,-4.184170666666667,0.5431464632206354,0.016755160819145562,-0.11030480872604163
1403638543877829376,50.133229,225.75978659061911,8.18855275,1.103248125,-3.718354791666666,0.48659779545601906,-0.032114058236695664,-0.10402162341886204
1403638543927829504,49.78466,251.1282085241906,8.164036124999999,-0.34323275000000003,-2.9093061666666666,0.41957715217943675,0.039793506945470715,-0.08028514559173915
1403638543977829376,49.934864,240.16437130995328,10.092677291666664,0.15527195833333335,-5.287418791666666,0.47682395164485086,0.016057029118347832,0.025132741228718346
1403638544027829504,58.26807,239.63810595771284,9.659550249999999,0.42495483333333334,-3.7837324583333327,0.3797836452339661,-0.09843656981248018,0.08936085770210968
1403638544077829376,41.702032,296.3794436565533,8.237585999999999,0.21247741666666667,-2.9011339583333333,0.30159289474462014,0.03769911184307752,0.0041887902047863905
1403638544127829504,50.28987,279.29052422165023,9.528794916666666,0.7109821249999999,-3.7346992083333332,0.2988003679414292,0.04328416544945937,0.18430676901060122
1403638544177829376,62.063694,325.3653356514228,6.578627708333332,0.20430520833333332,-2.6886565416666666,0.14521139376592823,0.11868238913561441,0.041887902047863905
1403638544227829504,38.075924,383.065175847931,9.561483749999999,0.13075533333333333,-3.489532958333333,0.20804324683772407,0.01815142422074103,0.1850049007113989
1403638544277829376,60.639619,406.8847477021667,9.316317499999998,0.220649625,-3.4241552916666667,0.09773843811168245,0.07749261878854824,0.11868238913561441
1403638544327829504,43.180466,470.6975464361768,9.308145291666667,-0.5066769166666666,-3.2280222916666665,0.033510321638291124,-0.046076692252650306,0.056548667764616284
1403638544377829376,46.13328,480.68534676589366,8.621679791666667,0.8662540833333333,-2.754034208333333,0.09634217471008698,-0.00767944870877505,0.12147491593880534
1403638544427829504,50.134659,491.8111818183717,7.542948291666666,0.04086104166666667,-3.726527,-0.04817108735504349,-0.03490658503988659,0.014660765716752367
1403638544477829376,61.091423,465.30223158051626,9.888372083333332,-0.220649625,-3.4813607499999994,0.02583087292951608,0.14521139376592823,0.06562437987498679
1403638544527829504,38.814783,574.7502101738437,10.043644041666665,0.7273265416666667,-3.6284604999999996,-0.01815142422074103,0.023038346126325153,0.05864306286700947
1403638544577829376,60.343504,350.7500708678229,8.940395916666665,0.016344416666666667,-2.1656352083333332,0.047472955654245766,0.2366666465704311,0.039793506945470715
1403638544627829504,38.94043,353.60680896008216,10.754626166666666,0.4903325,-3.4323274999999995,0.05026548245743669,0.2548180707911721,0.03769911184307752
1403638544677829376,66.118478,476.53578807058125,9.545139333333333,0.3105439166666667,-3.6611493333333334,-0.0013962634015954637,0.11309733552923257,0.02722713633111154
1403638544727829504,34.588814,661.8120790981042,7.9433865,0.0,-2.9256505833333333,0.01815142422074103,0.00767944870877505,0.05445427266222308
1403638544777829376,49.976349,663.605157822712,8.392857958333332,0.8253930416666666,-3.6693215416666662,-0.009075712110370514,-0.1424188669627373,0.047472955654245766
1403638544827829504,50.172806,663.9686679879728,10.395049,0.35140495833333335,-3.5957716666666664,0.02722713633111154,-0.1514945790731078,0.15079644737231007
1403638544877829376,60.885906,761.9912851033886,7.567464916666665,0.15527195833333335,-1.9122967499999999,0.0,-0.04328416544945937,0.08237954069413235
1403638544927829504,39.287567,774.2643132634047,9.112012291666666,-0.23699404166666665,-2.974683833333333,0.03490658503988659,-0.03769911184307752,0.08726646259971647
1403638544977829376,49.875498,746.2151514058619,8.809640583333332,0.6537766666666667,-3.4486719166666666,-0.012566370614359173,0.09005898940290741,0.07609635538695278
1403638545027829504,49.979687,731.3703634795904,8.687057458333333,-0.4903325,-2.9174783749999995,0.0307177948351002,0.08587019919812101,0.09005898940290741
1403638545077829376,49.942493,744.9688632421503,8.008764166666666,-0.057205458333333334,-2.3454237916666667,-0.01884955592153876,-0.009773843811168246,0.033510321638291124
1403638545127829504,49.855948,844.9166094609361,8.7279185,0.2778550833333333,-4.527403416666666,0.02722713633111154,-0.033510321638291124,0.08517206749732328
1403638545177829376,50.156355,863.391646492914,8.237585999999999,-0.196133,-2.280046125,0.00767944870877505,-0.02234021442552742,-0.039095375244672985
1403638545227829504,50.243139,840.5636974473139,9.185562166666665,-0.008172208333333333,-4.445681333333333,0.01117010721276371,-0.04537856055185257,0.050963614158234416
1403638545277829376,49.674749,733.1311883927061,8.278447041666666,0.13892754166666665,-3.0564059166666664,0.0006981317007977319,0.14800392056911915,0.047472955654245766
1403638545327829504,60.665369,799.5664431267578,7.976075333333333,-0.7600153749999999,-3.0890947499999997,0.01884955592153876,0.13264502315156904,0.056548667764616284
1403638545377829376,50.042629,853.9542877729837,9.438900625,-0.43312704166666666,-3.930832208333333,0.02722713633111154,0.00767944870877505,0.15917402778188286
1403638545427829504,52.883864,937.9258961696038,8.466407833333333,0.220649625,-3.366949833333333,0.06771877497737998,0.05515240436302082,0.048869219055841226
1403638545477829376,46.931028,896.1199851168822,10.109021708333332,-0.6456044583333332,-3.898143375,0.12775810124598494,0.00767944870877505,0.09634217471008698
1403638545527829504,39.421559,816.3300763448464,9.692239083333332,-0.2860272916666666,-2.705000958333333,0.1710422666954443,-0.039793506945470715,0.005585053606381855
1403638545577829376,49.935817,797.639475719889,10.681076291666665,-0.23699404166666665,-4.094276375,0.3344050846821135,-0.046076692252650306,0.06911503837897544
1403638545627829504,49.793244,695.249739355653,9.479761666666667,0.35957716666666667,-3.0400614999999998,0.29949849964222697,0.04258603374866164,-0.0153588974175501
1403638545677829376,50.359964,704.8313080123412,10.640215249999999,-1.2176590416666666,-4.314926,0.3309144261781249,-0.0439822971502571,-0.05585053606381855
1403638545727829504,62.285423,673.4576279094914,12.021318458333333,0.465815875,-3.8245934999999998,0.46844637123527805,0.08517206749732328,-0.05445427266222308
1403638545777829376,37.314892,728.9840972794169,9.128356708333332,0.2533384583333333,-3.759215833333333,0.39584067435231396,0.025132741228718346,-0.1731366617978375
1403638545827829504,50.279856,672.1032460266193,10.877209291666667,-0.45764366666666667,-3.415983083333333,0.47682395164485086,-0.004886921905584123,-0.09634217471008698
1403638545877829376,50.159931,709.5615513697801,8.458235625,0.7600153749999999,-3.3015721666666664,0.5396558047166466,0.09145525280450287,-0.24015730507441974
1403638545927829504,49.700499,686.4237158541749,11.097858916666665,0.45764366666666667,-3.6121160833333334,0.48589966375522137,0.0020943951023931952,-0.13962634015954636
1403638545977829376,60.402631,746.2049508858024,9.455245041666666,-0.661948875,-3.67749375,0.42865286428980726,0.050963614158234416,-0.2366666465704311
1403638546027829504,52.2995,796.7134791638849,9.814822208333332,0.3350605416666666,-3.514049583333333,0.41050144006906625,-0.03769911184307752,-0.19477874452256716
1403638546077829376,47.915936,811.2952849600383,7.79628675,0.23699404166666665,-3.138128,0.3420845333908886,0.048869219055841226,-0.1270599695451872
1403638546127829504,39.43777,840.9536178265746,7.395848541666666,0.612915625,-2.8929617499999996,0.2981022362406315,0.032114058236695664,-0.05305800926062762
1403638546177829376,49.472809,870.4384262699733,9.46341725,-0.3350605416666666,-3.3996386666666667,0.2548180707911721,-0.08726646259971647,0.10053096491487339
1403638546227829504,51.241875,949.6155470370668,9.136528916666666,0.5557101666666666,-2.5006957499999998,0.23876104167282428,0.020943951023931952,-0.0013962634015954637
1403638546277829376,56.3941,908.3570842163954,8.613507583333332,0.6292600416666666,-2.9174783749999995,0.15009831567151233,-0.032114058236695664,0.13264502315156904
1403638546327829504,56.006193,931.3038338416005,9.1201845,-0.7763597916666666,-3.3751220416666667,0.14381513036433274,0.09704030641088471,0.14521139376592823
1403638546377829376,48.083782,1113.8017639426942,8.327480291666665,0.5475379583333333,-3.8164212916666664,0.12636183784438945,0.0027925268031909274,0.12217304763960307
1403638546427829504,39.181471,1087.3883912196268,7.788114541666666,0.7436709583333333,-2.778550833333333,0.017453292519943295,0.048869219055841226,0.017453292519943295
1403638546477829376,49.796105,1200.925018392509,9.381695166666667,-0.6864655000000001,-3.9390044166666667,0.07539822368615504,-0.0439822971502571,0.13892820845874865
1403638546527829504,50.338983,1151.5031793456956,10.158054958333333,-0.318716125,-4.976874874999999,0.06073745796940267,-0.01815142422074103,-0.0635299847725936
1403638546577829376,51.426173,1073.1950424726142,10.950759166666666,-0.14709974999999997,-4.690847583333333,0.16126842288427606,0.041189770347066175,0.020943951023931952
1403638546627829504,49.189329,1052.9849502248035,10.468598874999998,-0.122583125,-3.832765708333333,0.16126842288427606,-0.013264502315156905,0.009773843811168246
1403638546677829376,49.702406,992.9053555462174,8.801468374999999,-0.18796079166666665,-2.705000958333333,0.14730578886832138,0.06562437987498679,-0.03420845333908886
1403638546727829504,49.847602,1079.5601113214204,11.637224666666667,-0.8499096666666667,-2.99102825,0.10890854532444616,0.005585053606381855,-0.01815142422074103
1403638546777829376,50.642968,1029.7001289446803,8.401030166666667,-0.23699404166666665,-3.702010375,0.11100294042683936,-0.004886921905584123,0.046076692252650306
1403638546827829504,49.485922,1029.3967966134028,8.490924458333334,-0.6537766666666667,-5.892162208333333,0.06562437987498679,0.025132741228718346,0.0
1403638546877829376,49.823999,1088.434666878576,8.87501825,-0.8253930416666666,-5.279246583333333,0.048869219055841226,0.06981317007977318,0.01117010721276371
1403638546927829504,50.408602,1147.5031744336566,7.036271375,0.5883989999999999,-1.8142302499999998,0.02024581932313422,0.016755160819145562,-0.07051130178057091
1403638546977829376,49.358129,1129.4681878863505,9.373522958333332,0.34323275000000003,-3.268883333333333,0.013264502315156905,-0.003490658503988659,0.02024581932313422
1403638547027829504,61.106682,1118.3039987537588,7.755425708333333,-1.2176590416666666,-3.1544724166666662,-0.0153588974175501,-0.041189770347066175,-0.031415926535897934
1403638547077829376,39.26754,1111.9458190310027,9.80665,0.024516625,-3.930832208333333,-0.06562437987498679,-0.0013962634015954637,-0.15638150097869194
1403638547127829504,50.009251,1173.5754125476685,6.970893708333333,-0.14709974999999997,-2.5252123749999997,0.013264502315156905,0.02722713633111154,-0.024434609527920613
1403638547177829376,49.893856,1181.6768597323694,9.299973083333333,0.2860272916666666,-3.3751220416666667,-0.008377580409572781,-0.06911503837897544,0.03560471674068433
1403638547227829504,49.912452,1125.2652882538985,8.458235625,-0.45764366666666667,-2.754034208333333,-0.050963614158234416,0.09704030641088471,0.04677482395344803
1403638547277829376,60.811997,1161.192725514541,7.616498166666665,0.07354987499999999,-3.8245934999999998,-0.0439822971502571,0.027925268031909273,0.0614355896702004
1403638547327829504,39.285183,1070.2973563197852,10.24794925,-0.024516625,-3.195333458333333,0.09843656981248018,0.006981317007977318,0.33161255787892263
1403638547377829376,49.962759,1099.6622347403008,9.095667875,-0.7028099166666667,-4.625469916666667,0.02583087292951608,-0.09075712110370514,0.16964600329384885
1403638547427829504,60.71496,1038.5673422477673,9.7085835,0.6701210833333332,-3.293399958333333,0.09005898940290741,0.05585053606381855,0.2583087292951608
1403638547477829376,38.604975,979.4368758314774,7.820803375,-0.2778550833333333,-2.778550833333333,-0.009773843811168246,-0.04956735075663895,0.22479840765686968
1403638547527829504,50.026893,1006.4860951878075,9.684066875,-0.5883989999999999,-3.2361945,0.041887902047863905,-0.03630284844148206,0.21362830044410594
1403638547577829376,50.698042,1076.455839885863,9.430728416666666,0.024516625,-3.5222217916666665,-0.03420845333908886,0.06213372137099814,0.048869219055841226
1403638547627829504,49.61133,1039.75924616396,8.760607333333333,-0.35957716666666667,-2.7622064166666664,-0.03560471674068433,-0.050963614158234416,0.12217304763960307
1403638547677829376,65.315247,1092.221586102647,8.850501625,0.220649625,-3.195333458333333,-0.021642082724729686,0.032812189937493394,0.01884955592153876
1403638547727829504,45.881271,1076.7365765182149,8.172208333333334,0.0,-3.77556025,-0.0635299847725936,0.017453292519943295,-0.01117010721276371
1403638547777829376,49.256802,1068.4844349142827,8.956740333333332,-0.04086104166666667,-4.3721314583333335,-0.08726646259971647,-0.05235987755982988,-0.11728612573401893
1403638547827829504,52.229643,1045.6300536029878,9.389867375,0.563882375,-2.3372515833333334,-0.07120943348136866,0.08726646259971647,-0.0614355896702004
1403638547877829376,38.027763,1051.4620500257472,8.564474333333333,-0.5802267916666666,-3.1544724166666662,0.013264502315156905,-0.0879645943005142,0.1466076571675237
1403638547927829504,49.262285,1067.0955747807775,9.299973083333333,-0.42495483333333334,-4.028898708333333,-0.017453292519943295,0.02234021442552742,-0.06492624817418906
1403638547977829376,62.329531,943.8575920162464,9.618689208333333,0.016344416666666667,-4.797086291666667,0.08237954069413235,-0.05515240436302082,0.1361356816555577
1403638548027829504,37.149429,943.9928800140053,10.836348249999999,-0.17161637500000002,-4.0615875416666665,0.09075712110370514,-0.009075712110370514,0.1075122819228507
1403638548077829376,50.760269,863.9092690316508,8.074141833333334,0.032688833333333334,-2.5333845833333335,0.13473941825396224,0.1291543646475804,0.059341194567807204
1403638548127829504,64.093113,843.6711635644972,10.770970583333334,0.0980665,-3.7837324583333327,0.21711895894809458,0.0013962634015954637,0.06911503837897544
1403638548177829376,34.908057,744.0372270566436,9.471589458333332,-0.20430520833333332,-4.478370166666666,0.24853488548399255,-0.0006981317007977319,0.013962634015954637
1403638548227829504,50.750494,706.0620111360516,10.378704583333333,0.6701210833333332,-5.083113583333333,0.335801348083709,-0.03769911184307752,0.09215338450530061
1403638548277829376,64.297437,659.9242712831533,10.125366125,0.3023717083333333,-3.718354791666666,0.3364994797845067,-0.009773843811168246,-0.0013962634015954637
1403638548327829504,46.861172,634.2363439463633,10.411393416666668,-0.024516625,-4.037070916666667,0.33719761148530447,-0.05794493116621174,-0.04677482395344803
1403638548377829376,49.968481,608.5808840196521,9.724927916666667,-0.5066769166666666,-4.9114972083333335,0.3804817769347638,0.041887902047863905,0.03490658503988659
1403638548427829504,38.691759,572.9379402837508,9.716755708333332,0.8172208333333333,-4.617297708333333,0.3162536604613725,0.07609635538695278,-0.04468042885105484
1403638548477829376,50.143719,610.1756362806744,7.371331916666667,0.21247741666666667,-1.7733692083333334,0.2778564169174973,0.029321531433504733,-0.024434609527920613
1403638548527829504,56.200981,673.2493410881415,9.471589458333332,-0.16344416666666667,-3.3506054166666663,0.2548180707911721,-0.03560471674068433,0.0
1403638548577829376,45.610905,650.1577616318359,8.466407833333333,0.3105439166666667,-4.028898708333333,0.19338248112097173,0.047472955654245766,-0.029321531433504733
1403638548627829504,48.217058,712.725779617944,8.115002875,0.196133,-2.966511625,0.19408061282176942,0.01117010721276371,-0.008377580409572781
1403638548677829376,61.155796,727.7067016936119,9.496106083333332,-0.29419949999999995,-3.6039438749999997,0.11728612573401893,-0.006981317007977318,0.041189770347066175
1403638548727829504,54.318428,848.729877425643,8.016936375,-0.17978858333333333,-2.3454237916666667,0.1096066770252439,0.041887902047863905,-0.004886921905584123
1403638548777829376,34.413338,821.9947936609242,10.836348249999999,0.4903325,-4.592781083333333,0.09773843811168245,-0.04328416544945937,0.030019663134302467
1403638548827829504,49.796104,798.2782946082598,10.354187958333334,-0.367749375,-4.56009225,0.057246799465414,-0.0439822971502571,0.15219271077390556
1403638548877829376,52.037239,885.1643495254818,8.28661925,0.11441091666666667,-2.982856041666666,0.06632251157578452,0.0013962634015954637,-0.005585053606381855
1403638548927829504,49.20888,780.2214837732749,9.291800875,0.057205458333333334,-3.211677875,0.05305800926062762,0.032812189937493394,0.07051130178057091
1403638548977829376,61.355114,881.3777848375372,8.915879291666666,1.1931424166666666,-4.576436666666666,-0.020943951023931952,0.006283185307179587,-0.003490658503988659
1403638549027829504,38.566589,749.4396621410989,9.961921958333333,0.3105439166666667,-3.1217835833333334,0.0020943951023931952,-0.006283185307179587,0.19198621771937624
1403638549077829376,50.708056,761.3449678535284,9.667722458333333,-0.42495483333333334,-2.3372515833333334,-0.0027925268031909274,0.047472955654245766,0.023736477827122883
1403638549127829504,49.145221,756.432169014577,9.7085835,0.318716125,-3.7837324583333327,-0.03490658503988659,0.023038346126325153,0.0006981317007977319
1403638549177829376,64.993382,708.2998506931675,9.357178541666666,-0.5230213333333333,-3.8164212916666664,0.013264502315156905,0.07051130178057091,0.1424188669627373
1403638549227829504,34.498215,858.3831054705231,10.043644041666665,-0.3023717083333333,-2.623278875,-0.033510321638291124,-0.013962634015954637,0.05515240436302082
1403638549277829376,49.928903,724.0756539883989,7.878008833333333,0.612915625,-3.1463002083333333,-0.003490658503988659,0.01117010721276371,0.1759291886010284
1403638549327829504,49.949408,782.5327585381725,10.068160666666666,0.6292600416666666,-3.5794272499999997,0.009773843811168246,0.00767944870877505,0.14870205226991687
1403638549377829376,61.101675,688.7290210038226,9.218250999999999,0.3759215833333333,-3.587599458333333,-0.014660765716752367,0.057246799465414,0.1445132620651305
1403638549427829504,39.139509,786.760703384655,9.299973083333333,0.5475379583333333,-3.5549106249999998,0.017453292519943295,-0.010471975511965976,0.11239920382843484
1403638549477829376,64.524412,749.5047342803498,8.041452999999999,0.9888372083333332,-2.8766173333333334,-0.023736477827122883,0.0307177948351002,0.08726646259971647
1403638549527829504,34.805536,738.8311981816635,8.458235625,-0.63743225,-3.268883333333333,-0.010471975511965976,0.05305800926062762,0.11798425743481668
1403638549577829376,52.627325,696.1692667819373,9.896544291666666,-0.269682875,-4.118792999999999,-0.009075712110370514,0.13473941825396224,0.06492624817418906
1403638549627829504,64.78262,768.1414934531545,9.36535075,-0.4739880833333333,-2.59876225,-0.048869219055841226,0.05166174585903216,0.05515240436302082
1403638549677829376,44.849157,841.0457548662023,9.112012291666666,-0.5148491249999999,-3.6693215416666662,-0.08237954069413235,-0.004886921905584123,-0.1228711793404008
1403638549727829504,42.795897,770.1833850688944,7.927042083333333,0.08172208333333333,-2.59876225,0.04677482395344803,0.0013962634015954637,0.19058995431778078
1403638549777829376,60.634374,851.4312592723256,10.550320958333334,0.40861041666666664,-3.563082833333333,-0.0013962634015954637,0.010471975511965976,0.14102260356114182
1403638549827829504,45.955897,858.6405388585217,10.632043041666666,-0.35140495833333335,-3.718354791666666,-0.00767944870877505,-0.05026548245743669,0.09215338450530061
1403638549877829376,38.583755,843.510059547146,8.539957708333333,0.6701210833333332,-3.7101825833333333,-0.01815142422074103,-0.02234021442552742,-0.009075712110370514
1403638549927829504,64.37707,774.0355887825532,9.667722458333333,0.122583125,-3.1544724166666662,0.010471975511965976,0.06632251157578452,0.0614355896702004
1403638549977829376,35.65526,724.7809319351509,10.6892485,1.3157255416666664,-4.9114972083333335,0.00767944870877505,0.0991347015132779,0.14381513036433274
1403638550027829504,49.753427,842.6393741961372,9.724927916666667,0.367749375,-2.8194118749999997,-0.031415926535897934,-0.03769911184307752,0.04258603374866164
1403638550077829376,50.153971,714.0007838096327,9.103840083333333,0.4494714583333333,-3.693838166666666,0.029321531433504733,-0.0635299847725936,0.09564404300928926
1403638550127829504,51.646471,734.1029966385627,11.678085708333333,-0.34323275000000003,-4.502886791666667,-0.009075712110370514,0.032812189937493394,0.04049163864626844
1403638550177829376,62.568426,747.933673732971,10.803659416666665,0.6946377083333333,-4.633642125,0.009075712110370514,-0.041189770347066175,0.17034413499464657
1403638550227829504,36.041021,639.0963959638137,8.670713041666666,0.07354987499999999,-2.705000958333333,-0.05026548245743669,0.025132741228718346,0.009075712110370514
1403638550277829376,49.859763,762.8237199661274,8.433719,-0.3023717083333333,-3.930832208333333,0.030019663134302467,0.056548667764616284,0.047472955654245766
1403638550327829504,50.278663,627.4960053725919,8.016936375,0.10623870833333333,-3.178989041666666,0.016057029118347832,0.060039326268604934,0.02583087292951608
1403638550377829376,64.886093,700.4977531542169,8.172208333333334,0.29419949999999995,-3.1299557916666663,0.014660765716752367,0.06981317007977318,0.1361356816555577
1403638550427829504,34.932614,638.7513717627882,7.902525458333333,-0.8172208333333333,-3.4486719166666666,0.0153588974175501,0.08237954069413235,0.12217304763960307
1403638550477829376,49.808502,751.0493683458757,9.030290208333332,0.008172208333333333,-3.6284604999999996,0.041189770347066175,-0.07749261878854824,0.1445132620651305
1403638550527829504,50.277472,613.1715752246298,8.605335375,0.7518431666666666,-2.778550833333333,0.04956735075663895,0.12147491593880534,0.18430676901060122
1403638550577829376,49.806833,589.6042851072815,7.616498166666665,0.220649625,-3.2852277500000002,0.01884955592153876,0.1228711793404008,0.10192722831646883
1403638550627829504,50.09675,610.6102609537674,10.019127416666667,-0.34323275000000003,-3.800076875,0.03769911184307752,0.14521139376592823,0.12217304763960307
1403638550677829376,49.784422,607.5091235844532,7.9188698749999995,0.465815875,-3.1217835833333334,-0.009773843811168246,0.08517206749732328,0.09634217471008698
1403638550727829504,49.988747,593.8127695470423,9.038462416666666,-0.7436709583333333,-3.0972669583333334,0.030019663134302467,0.06771877497737998,0.1270599695451872
1403638550777829376,49.88265,602.2891654754973,10.010955208333332,0.45764366666666667,-3.832765708333333,0.03630284844148206,0.19757127132575814,0.0879645943005142
1403638550827829504,57.008505,543.3060388211226,9.659550249999999,0.612915625,-2.0512242916666668,-0.013264502315156905,0.19896753472735357,0.11728612573401893
1403638550877829376,43.163538,493.34324462668803,9.659550249999999,0.3350605416666666,-3.857282333333333,-0.01117010721276371,0.307177948351002,0.05026548245743669
1403638550927829504,49.915075,578.7469591960037,9.1201845,1.0623870833333333,-3.0482337083333335,0.041887902047863905,0.2331759880664424,0.0767944870877505
1403638550977829376,64.923763,627.3509679266441,9.095667875,-0.3350605416666666,-3.4731885416666666,-0.011868238913561441,0.09494591130849153,0.08517206749732328
1403638551027829504,35.034657,599.1098265733898,8.866846041666665,0.6701210833333332,-3.4568441249999995,-0.0020943951023931952,0.182212373908208,0.05026548245743669
1403638551077829376,61.048985,668.9797862220398,9.381695166666667,-0.4739880833333333,-4.993219291666667,-0.0020943951023931952,0.029321531433504733,0.13753194505715316
1403638551127829504,39.340734,695.6427494292947,9.479761666666667,-0.16344416666666667,-3.4568441249999995,0.02583087292951608,0.12566370614359174,0.05235987755982988
1403638551177829376,50.789118,654.8327431422456,9.790305583333332,0.5802267916666666,-3.5794272499999997,0.008377580409572781,0.014660765716752367,0.182212373908208
1403638551227829504,49.231529,721.3879163335075,8.760607333333333,0.17978858333333333,-4.8052585,0.0,-0.09843656981248018,0.21223203704251048
1403638551277829376,64.611435,722.5244097499674,7.910697666666666,0.35957716666666667,-2.9583394166666666,-0.07260569688296412,-0.13683381335635544,0.09075712110370514
1403638551327829504,35.230398,702.2725066488135,7.8289755833333325,0.43312704166666666,-2.40262925,-0.15987215948268058,-0.012566370614359173,0.21293016874330817
1403638551377829376,49.668074,584.3520832349698,9.773961166666666,0.35140495833333335,-3.6529771249999996,-0.21362830044410594,-0.13473941825396224,0.20525072003453312
1403638551427829504,50.566912,576.158188343569,9.185562166666665,0.40861041666666664,-3.881798958333333,-0.3218387140677544,-0.13823007675795088,0.21223203704251048
1403638551477829376,49.991369,539.5963638814214,9.765788958333333,0.980665,-2.574245625,-0.36582101121801147,0.05794493116621174,0.314857397059777
1403638551527829504,49.386978,489.0524591227163,10.190743791666666,-0.196133,-3.6856659583333333,-0.35674529910764097,0.057246799465414,0.3755948550291797
1403638551577829376,50.148725,496.27661511990453,8.490924458333334,-0.4903325,-2.4189736666666666,-0.4118977034706618,-0.06213372137099814,0.3574434308084387
1403638551627829504,49.990416,488.77166854729444,7.698220249999999,1.0378704583333334,-1.9940188333333333,-0.44401176170735746,-0.023038346126325153,0.34557519189487723
1403638551677829376,50.167084,486.3059420762706,7.191543333333333,0.4985047083333333,-2.7867230416666664,-0.46914450293607574,0.15638150097869194,0.3679154063204046
1403638551727829504,64.328193,486.96141218563906,8.523613291666665,-0.14709974999999997,-2.754034208333333,-0.4656538444320871,0.0041887902047863905,0.34348079679248406
1403638551777829376,47.273159,492.5512544778148,8.948568125,0.5883989999999999,-2.2555295,-0.4991641660703782,0.04258603374866164,0.2708750999095199
1403638551827829504,50.551415,503.55934903863766,10.051816249999998,-0.44129925,-4.249548333333333,-0.439822971502571,0.12356931104119852,0.19477874452256716
1403638551877829376,37.798643,514.2215020229665,10.721937333333331,0.5720545833333333,-3.718354791666666,-0.3986332011555048,0.060039326268604934,0.011868238913561441
1403638551927829504,50.443172,482.5588773496416,9.528794916666666,0.24516625,-2.557901208333333,-0.36023595761162963,0.143116998663535,-0.003490658503988659
1403638551977829376,49.690009,486.1655454006437,10.403221208333333,-0.4494714583333333,-3.881798958333333,-0.3392920065876977,0.13264502315156904,-0.03839724354387525
1403638552027829504,50.61531,495.9047885521192,11.016136833333332,-0.196133,-4.143309625,-0.2527236756887789,0.08587019919812101,0.019547687622336492
1403638552077829376,61.390639,622.288528697586,8.294791458333332,-0.08172208333333333,-3.2280222916666665,-0.23806290997202653,-0.03769911184307752,0.060039326268604934
1403638552127829504,49.472332,655.7705014165339,9.651378041666666,-0.3350605416666666,-3.6448049166666663,-0.11938052083641214,-0.023038346126325153,0.09843656981248018
1403638552177829376,38.20157,725.1333922179299,12.054007291666666,0.016344416666666667,-3.6202882916666663,-0.12147491593880534,-0.14730578886832138,0.0635299847725936
1403638552227829504,60.920239,714.2549999586158,8.008764166666666,-0.16344416666666667,-2.7867230416666664,-0.08377580409572781,-0.05794493116621174,0.05515240436302082
1403638552277829376,49.908876,761.5070843051726,10.44408225,-0.4985047083333333,-3.023717083333333,-0.039095375244672985,-0.07190756518216637,0.17243853009703977
1403638552327829504,39.541245,678.2283066606846,8.891362666666666,0.44129925,-4.568264458333333,-0.017453292519943295,0.13473941825396224,0.20245819323134223
1403638552377829376,60.290575,555.4492660863924,7.665531416666666,-0.16344416666666667,-1.6753027083333332,0.046076692252650306,0.2876302607286655,0.1096066770252439
1403638552427829504,50.358772,617.9595442177833,8.834157208333334,-0.43312704166666666,-3.9962098749999995,0.004886921905584123,0.20734511513692636,0.17662732030182612
1403638552477829376,38.987636,608.7592344450624,8.38468575,-0.04903325,-3.4241552916666667,0.047472955654245766,0.22479840765686968,0.11309733552923257
1403638552527829504,49.778224,628.3139404809876,10.738281749999999,-0.11441091666666667,-3.0890947499999997,0.017453292519943295,0.12217304763960307,0.09773843811168245
1403638552577829376,50.334692,628.8354812372629,10.272465875,-0.4739880833333333,-3.219850083333333,0.0153588974175501,0.12566370614359174,0.09075712110370514
1403638552627829504,49.33834,749.2916180993402,10.542148749999999,0.45764366666666667,-4.388475875,-0.00767944870877505,-0.056548667764616284,-0.012566370614359173
1403638552677829376,49.967051,770.1325215425381,8.597163166666666,-0.44129925,-2.476179125,0.025132741228718346,-0.05585053606381855,0.09145525280450287
1403638552727829504,50.490618,738.2132537855534,9.046634625,0.220649625,-3.947176625,0.016057029118347832,-0.07400196028455958,0.017453292519943295
1403638552777829376,61.167717,753.5988147878851,9.299973083333333,0.3840937916666667,-3.2361945,0.02583087292951608,0.028623399732707,0.0013962634015954637
1403638552827829504,50.086736,745.3840136077039,7.485742833333332,-0.3105439166666667,-2.8929617499999996,-0.0041887902047863905,0.008377580409572781,-0.010471975511965976
1403638552877829376,38.815737,723.8439406015399,9.961921958333333,0.14709974999999997,-3.6039438749999997,0.011868238913561441,-0.08028514559173915,-0.08168140899333462
1403638552927829504,50.715446,725.3844398226761,7.927042083333333,-0.612915625,-2.754034208333333,-0.020943951023931952,-0.014660765716752367,-0.0991347015132779
1403638552977829376,59.989691,638.0895971184799,8.3356525,-0.3350605416666666,-3.342433208333333,0.0153588974175501,-0.032812189937493394,-0.08587019919812101
1403638553027829504,39.649964,759.260379091747,8.3356525,0.8417374583333332,-2.631451083333333,0.005585053606381855,0.06981317007977318,-0.0991347015132779
1403638553077829376,55.961609,756.4645161783596,9.577828166666666,-0.2860272916666666,-3.0727503333333335,0.030019663134302467,0.06422811647339133,0.023736477827122883
1403638553127829504,45.281887,719.3598072812333,8.131347291666666,0.3023717083333333,-3.260711125,0.06771877497737998,0.22689280275926282,0.0991347015132779
1403638553177829376,50.516367,598.916847476609,10.264293666666665,-0.392266,-2.999200458333333,0.09285151620609833,0.2834414705238791,0.15009831567151233
1403638553227829504,45.262813,627.2193304408975,8.752435125,0.07354987499999999,-3.4977051666666665,0.04677482395344803,0.21711895894809458,0.07051130178057091
1403638553277829376,49.751997,609.8048880358319,8.515441083333332,0.9152873333333333,-1.3157255416666664,0.03769911184307752,0.260403124397554,-0.016755160819145562
1403638553327829504,50.204516,674.4695181564684,8.793296166666666,0.5557101666666666,-2.705000958333333,-0.021642082724729686,0.17872171540421936,-0.05445427266222308
1403638553377829376,49.594402,707.2968722121033,11.056997874999999,0.008172208333333333,-3.8082490833333327,-0.06213372137099814,0.124965574442794,-0.16615534478986016
1403638553427829504,49.787044,640.9206044541377,9.7085835,0.42495483333333334,-3.4323274999999995,-0.029321531433504733,0.07539822368615504,-0.09075712110370514
1403638553477829376,58.847189,648.4564664482369,9.112012291666666,-0.5802267916666666,-4.764397458333333,-0.0013962634015954637,0.0879645943005142,-0.05026548245743669
1403638553527829504,54.034949,714.9046647076395,10.051816249999998,-0.5802267916666666,-4.944186041666666,-0.048869219055841226,0.06283185307179587,-0.047472955654245766
1403638553577829376,38.204908,567.6343919277389,8.172208333333334,-1.1931424166666666,-3.18716125,-0.032114058236695664,0.08168140899333462,-0.0307177948351002
1403638553627829504,49.509287,730.4034276429804,10.779142791666665,0.08989429166666667,-3.800076875,0.005585053606381855,0.0307177948351002,0.030019663134302467
1403638553677829376,49.984455,759.3686136036948,11.45743608333333,-0.3105439166666667,-4.192342875,-0.014660765716752367,-0.0041887902047863905,0.06702064327658225
1403638553727829504,49.72887,744.3639179173134,9.005773583333333,-0.3350605416666666,-3.92266,0.02024581932313422,-0.06702064327658225,0.10611601852125524
1403638553777829376,49.880743,707.9690519691331,9.299973083333333,0.06537766666666667,-3.832765708333333,-0.03420845333908886,-0.11588986233242347,-0.01884955592153876
1403638553827829504,61.763049,775.2435632776663,8.785123958333333,-0.35140495833333335,-3.2443667083333327,-0.011868238913561441,-0.09145525280450287,0.057246799465414
1403638553877829376,46.705961,725.3838544962646,9.741272333333333,-0.122583125,-2.7458620000000002,-0.027925268031909273,0.046076692252650306,-0.02583087292951608
1403638553927829504,41.620493,786.9466463285834,10.509459916666668,-0.3105439166666667,-3.7837324583333327,0.0,-0.10471975511965977,0.18011797880581482
1403638553977829376,50.364733,786.2613131197568,7.40402075,0.08989429166666667,-2.966511625,-0.02722713633111154,-0.12775810124598494,0.21642082724729686
1403638554027829504,49.862384,747.665305305797,10.574837583333332,-0.5066769166666666,-4.175998458333333,0.016755160819145562,-0.10611601852125524,0.06771877497737998
1403638554077829376,49.323798,819.007915718758,7.273265416666667,0.53936575,-1.9776744166666664,-0.03560471674068433,-0.024434609527920613,0.060039326268604934
1403638554127829504,50.542831,757.1856776133422,9.471589458333332,-0.42495483333333334,-3.0645781249999997,-0.033510321638291124,-0.16196655458507375,0.021642082724729686
1403638554177829376,49.66712,581.1099248185087,8.507268875,0.4494714583333333,-2.811239666666667,-0.03839724354387525,-0.2282890661608583,-0.029321531433504733
1403638554227829504,49.9928,586.9189935962405,9.675894666666666,-0.23699404166666665,-3.4323274999999995,0.0013962634015954637,-0.3029891581462156,0.04956735075663895
1403638554277829376,50.234556,693.0957521306876,8.294791458333332,0.008172208333333333,-1.9776744166666664,-0.023736477827122883,-0.11100294042683936,-0.01815142422074103
1403638554327829504,50.395966,686.4984924803313,10.051816249999998,-0.11441091666666667,-3.538566208333333,-0.009075712110370514,-0.12985249634837812,0.07749261878854824
1403638554377829376,49.695253,715.6631311184052,8.204897166666667,0.4004382083333333,-2.7867230416666664,0.012566370614359173,-0.10471975511965977,0.046076692252650306
1403638554427829504,49.953699,818.584984728194,9.283628666666665,0.43312704166666666,-3.5794272499999997,-0.01117010721276371,-0.0020943951023931952,0.03630284844148206
1403638554477829376,57.304144,782.7652677410622,8.891362666666666,-0.7600153749999999,-2.190151833333333,0.01117010721276371,-0.05515240436302082,0.05515240436302082
1403638554527829504,42.225599,891.9063602477713,7.518431666666666,1.569064,-1.201314625,0.060039326268604934,0.06911503837897544,0.15009831567151233
1403638554577829376,59.798956,830.0622442882993,9.7085835,-0.6864655000000001,-4.625469916666667,0.005585053606381855,-0.02652900463031381,0.21223203704251048
1403638554627829504,39.836168,883.1191650001883,9.447072833333333,0.14709974999999997,-3.18716125,0.09634217471008698,-0.0041887902047863905,0.29042278753185646
1403638554677829376,50.060749,836.5772047196136,9.438900625,-0.016344416666666667,-3.3260887916666664,-0.06562437987498679,0.023038346126325153,0.06702064327658225
1403638554727829504,50.2491,871.56385266871,9.46341725,-0.11441091666666667,-2.7376897916666665,0.1117010721276371,0.0307177948351002,0.22479840765686968
1403638554777829376,50.020695,893.5992475244492,8.139519499999999,0.7518431666666666,-2.0267076666666664,-0.013962634015954637,0.028623399732707,0.07539822368615504
1403638554827829504,49.901009,838.3376879588012,8.793296166666666,-1.3811032083333332,-3.1544724166666662,0.03420845333908886,0.10053096491487339,0.1689478715930511
1403638554877829376,50.059795,841.6300752747583,9.773961166666666,0.024516625,-5.205696708333334,0.019547687622336492,0.07958701389094143,0.1291543646475804
1403638554927829504,49.870253,877.700689478611,8.360169125,0.7600153749999999,-3.0890947499999997,-0.03700098014227979,0.039793506945470715,0.15638150097869194
1403638554977829376,50.133466,797.1522988972416,6.979065916666666,0.15527195833333335,-2.1656352083333332,-0.09983283321407566,0.1494001839707146,0.10122909661567112
1403638555027829504,50.021649,751.7987067472543,10.059988458333333,0.35957716666666667,-3.0318892916666664,-0.15219271077390556,-0.008377580409572781,0.1445132620651305
1403638555077829376,49.360513,684.4315474041986,7.371331916666667,-0.6292600416666666,-3.170816833333333,-0.21013764194011728,-0.027925268031909273,0.013264502315156905
