stamp,img_delta,blur,lin_acc.x,lin_acc.y,lin_acc.z,ang_vel.x,ang_vel.y,ang_vel.z
1403636579813555456,10.593176,640.7081342600535,7.624670374999999,-0.48216029166666663,-2.9256505833333333,-0.11728612573401893,0.04677482395344803,0.0614355896702004
1403636579863555584,60.53853,459.93941140554733,8.164036124999999,-0.5720545833333333,-3.195333458333333,-0.039095375244672985,-0.21362830044410594,0.07120943348136866
1403636579913555456,39.732218,364.5502073899686,8.164036124999999,-0.5720545833333333,-3.195333458333333,-0.039095375244672985,-0.21362830044410594,0.07120943348136866
1403636579963555584,60.354233,367.66975868409685,8.670713041666666,-0.8253930416666666,-3.2280222916666665,0.032812189937493394,-0.1445132620651305,0.16824973989225336
1403636580013555456,59.755087,402.6593287168025,9.692239083333332,-0.057205458333333334,-3.366949833333333,-0.04328416544945937,-0.11728612573401893,0.09215338450530061
1403636580063555584,33.586025,412.4920809945197,9.692239083333332,-0.057205458333333334,-3.366949833333333,-0.04328416544945937,-0.11728612573401893,0.09215338450530061
1403636580113555456,45.615196,457.0869145558833,9.218250999999999,-0.5066769166666666,-3.881798958333333,0.0307177948351002,-0.050963614158234416,0.18430676901060122
1403636580163555584,50.755024,438.4726794372118,9.855683249999998,-0.220649625,-3.587599458333333,0.016755160819145562,-0.05585053606381855,0.124965574442794
1403636580213555456,49.671173,386.08721452732107,9.765788958333333,-0.4903325,-4.004382083333333,-0.0027925268031909274,-0.07539822368615504,0.039793506945470715
1403636580263555584,50.054074,362.0798201530246,9.822994416666667,-0.392266,-3.881798958333333,0.006283185307179587,-0.09494591130849153,0.060039326268604934
1403636580313555456,49.412012,300.38174660070155,9.635033625,-0.45764366666666667,-4.175998458333333,-0.02024581932313422,-0.1556833692778942,-0.04258603374866164
1403636580363555584,50.613403,266.17946238443164,9.684066875,-0.23699404166666665,-4.020726499999999,0.03420845333908886,-0.210835773640915,0.09704030641088471
1403636580413555456,49.822092,233.35832937226505,10.166227166666665,-0.4494714583333333,-4.159654041666666,-0.008377580409572781,-0.3134611336581816,0.01117010721276371
1403636580463555584,59.730053,230.45210306487175,11.898735333333333,-0.5883989999999999,-5.173007875,0.016755160819145562,-0.3232349774693498,0.07609635538695278
1403636580513555456,44.257641,278.4728333731501,11.898735333333333,-0.5883989999999999,-5.173007875,0.016755160819145562,-0.3232349774693498,0.07609635538695278
1403636580563555584,57.172775,570.2831460868236,12.20927925,-0.4903325,-5.6306515416666665,0.06422811647339133,-0.029321531433504733,0.11588986233242347
1403636580613555456,49.60537,341.2723921246208,11.629052458333332,-0.563882375,-5.1975245,-0.013962634015954637,0.10611601852125524,0.0635299847725936
1403636580663555584,44.11602,277.6076101257606,11.629052458333332,-0.563882375,-5.1975245,-0.013962634015954637,0.10611601852125524,0.0635299847725936
1403636580713555456,45.153379,248.1684801715516,10.738281749999999,-0.29419949999999995,-5.0013914999999995,-0.08307767239493008,0.2059488517353309,-0.027925268031909273
1403636580763555584,49.733639,240.67214773507072,11.03248125,-0.18796079166666665,-4.6009532916666664,-0.12077678423800758,0.24434609527920614,-0.04468042885105484
1403636580813555456,50.137997,244.65371805799185,9.970094166666666,-0.34323275000000003,-4.617297708333333,-0.16824973989225336,0.29042278753185646,-0.06981317007977318
1403636580863555584,61.155081,241.06929577421204,8.940395916666665,-0.612915625,-3.8245934999999998,-0.19058995431778078,0.3239331091701475,-0.03630284844148206
1403636580913555456,38.660288,263.6663576010954,8.940395916666665,-0.612915625,-3.8245934999999998,-0.19058995431778078,0.3239331091701475,-0.03630284844148206
1403636580963555584,50.57311,295.07541205119196,8.123175083333333,0.122583125,-3.751043625,-0.07260569688296412,0.3232349774693498,-0.006981317007977318
1403636581013555456,49.734831,317.76830118686155,7.9433865,-0.13892754166666665,-3.178989041666666,0.029321531433504733,0.2932153143350474,0.0747000919853573
1403636581063555584,59.819698,336.09472113948596,8.213069375,0.08989429166666667,-2.827584083333333,-0.039793506945470715,0.2981022362406315,0.20385445663293766
1403636581113555456,44.092179,317.62326531878347,8.213069375,0.08989429166666667,-2.827584083333333,-0.039793506945470715,0.2981022362406315,0.20385445663293766
1403636581163555584,45.924902,333.8582387716372,7.976075333333333,0.416782625,-3.178989041666666,0.0013962634015954637,0.3364994797845067,0.1466076571675237
1403636581213555456,49.942255,311.84774189481,7.9188698749999995,-0.22882183333333334,-2.6477955,-0.05235987755982988,0.3553490357060455,0.1996656664281513
1403636581263555584,61.034202,368.18617940220105,6.235394958333333,-0.53936575,-2.0267076666666664,-0.023038346126325153,0.30927234345339516,0.057246799465414
1403636581313555456,38.819313,423.3348107646747,6.235394958333333,-0.53936575,-2.0267076666666664,-0.023038346126325153,0.30927234345339516,0.057246799465414
1403636581363555584,60.877085,706.9276681740287,5.8104401249999995,-0.06537766666666667,-1.6834749166666665,-0.09285151620609833,0.029321531433504733,-0.020943951023931952
1403636581413555456,50.985575,898.7292284889082,5.998400916666666,0.13075533333333333,-1.7161637499999998,-0.048869219055841226,-0.1096066770252439,-0.07051130178057091
1403636581463555584,38.339853,627.8675556700354,5.998400916666666,0.13075533333333333,-1.7161637499999998,-0.048869219055841226,-0.1096066770252439,-0.07051130178057091
1403636581513555456,60.645342,477.68341668448966,7.2487487916666655,-0.17161637500000002,-2.3045627499999997,-0.023736477827122883,-0.24434609527920614,0.16336281798666924
1403636581563555584,44.967651,403.20266169450423,7.2487487916666655,-0.17161637500000002,-2.3045627499999997,-0.023736477827122883,-0.24434609527920614,0.16336281798666924
1403636581613555456,44.479609,403.1741312812884,7.9433865,0.04086104166666667,-2.378112625,0.0747000919853573,-0.22689280275926282,0.09354964790689606
1403636581663555584,60.447454,432.5322688743063,8.229413791666666,-0.2778550833333333,-3.0564059166666664,0.0747000919853573,-0.10890854532444616,-0.0153588974175501
1403636581713555456,50.137043,367.6807377370697,9.430728416666666,-0.13075533333333333,-3.4568441249999995,0.0153588974175501,-0.033510321638291124,0.09564404300928926
1403636581763555584,39.574147,404.25093034807105,9.430728416666666,-0.13075533333333333,-3.4568441249999995,0.0153588974175501,-0.033510321638291124,0.09564404300928926
1403636581813555456,49.95346,366.736618190612,8.850501625,-0.18796079166666665,-3.260711125,0.15777776438028737,-0.06562437987498679,0.143116998663535
1403636581863555584,50.074101,373.80182120812896,9.128356708333332,-0.392266,-3.415983083333333,-0.028623399732707,-0.08377580409572781,0.08237954069413235
1403636581913555456,61.024666,322.51026076711,10.092677291666664,-0.5883989999999999,-3.268883333333333,-0.11868238913561441,-0.27715828521669955,0.12426744274199628
1403636581963555584,38.841486,291.0877900899805,10.092677291666664,-0.5883989999999999,-3.268883333333333,-0.11868238913561441,-0.27715828521669955,0.12426744274199628
1403636582013555456,49.934864,273.7819191842833,10.019127416666667,-0.04903325,-4.175998458333333,-0.11938052083641214,-0.31974431896536115,0.08098327729253688
1403636582063555584,49.88265,265.27589428368776,11.13054775,-0.35957716666666667,-4.151481833333333,-0.019547687622336492,-0.3218387140677544,0.10611601852125524
1403636582113555456,50.046444,256.7156031591092,11.024309041666667,-0.44129925,-4.95235825,0.013962634015954637,-0.3204424506661589,0.01117010721276371
1403636582163555584,50.304174,286.09970191007307,11.759807791666667,-0.016344416666666667,-4.927841624999999,0.08517206749732328,-0.23457225146803787,0.14102260356114182
1403636582213555456,60.91094,404.3613294504831,12.405412249999998,-0.16344416666666667,-5.181180083333333,0.024434609527920613,-0.09494591130849153,0.06213372137099814
1403636582263555584,48.648119,669.9820275994263,12.119384958333333,-0.269682875,-5.606134916666666,0.05235987755982988,0.003490658503988659,0.08726646259971647
1403636582313555456,49.850703,397.5404395938473,12.119384958333333,-0.269682875,-5.606134916666666,0.05235987755982988,0.003490658503988659,0.08726646259971647
1403636582363555584,53.645372,279.69500766314184,10.419565624999999,0.07354987499999999,-4.748053041666666,-0.009773843811168246,0.3134611336581816,0.060039326268604934
1403636582413555456,36.225319,249.5296830135814,10.419565624999999,0.07354987499999999,-4.748053041666666,-0.009773843811168246,0.3134611336581816,0.060039326268604934
1403636582463555584,50.559759,257.97418645542274,10.158054958333333,0.057205458333333334,-4.135137416666667,0.0006981317007977319,0.335801348083709,0.10262536001726656
1403636582513555456,62.027216,290.7092629194779,9.005773583333333,0.20430520833333332,-3.8164212916666664,-0.08447393579652555,0.20804324683772407,0.06702064327658225
1403636582563555584,37.98008,333.02032996963646,9.005773583333333,0.20430520833333332,-3.8164212916666664,-0.08447393579652555,0.20804324683772407,0.06702064327658225
1403636582613555456,55.294037,370.36355367321767,9.381695166666667,-0.15527195833333335,-3.7919046666666665,-0.13264502315156904,0.1270599695451872,-0.0020943951023931952
1403636582663555584,44.916153,397.3712351749055,8.588990958333333,0.08172208333333333,-3.693838166666666,-0.1054178868204575,0.1165879940332212,0.06283185307179587
1403636582713555456,59.791803,392.457236183335,8.360169125,0.0980665,-3.4241552916666667,-0.09354964790689606,0.16824973989225336,0.15498523757709648
1403636582763555584,44.897318,380.99057712969187,8.360169125,0.0980665,-3.4241552916666667,-0.09354964790689606,0.16824973989225336,0.15498523757709648
1403636582813555456,45.182943,321.8049680303617,9.586000375,0.367749375,-3.309744375,-0.16406094968746698,0.2324778563656447,0.1780235837034216
1403636582863555584,50.086022,291.991663156984,7.878008833333333,-0.32688833333333334,-3.5549106249999998,-0.15917402778188286,0.31695179216217023,0.20036379812894903
1403636582913555456,55.081844,307.52956291300427,8.3356525,0.008172208333333333,-2.99102825,-0.11588986233242347,0.3672172746196069,0.19408061282176942
1403636582963555584,44.628143,320.58394099769583,6.913688249999999,-0.35140495833333335,-2.729517583333333,-0.0439822971502571,0.3665191429188092,0.10402162341886204
1403636583013555456,59.900522,377.2399080743498,6.562283291666667,-0.29419949999999995,-1.8224024583333331,0.02583087292951608,0.20734511513692636,0.05794493116621174
1403636583063555584,46.414614,634.2064112424738,6.562283291666667,-0.29419949999999995,-1.8224024583333331,0.02583087292951608,0.20734511513692636,0.05794493116621174
1403636583113555456,44.164896,860.8256963254792,6.1209840416666665,0.04903325,-1.5608917916666667,-0.08517206749732328,0.07609635538695278,-0.006981317007977318
1403636583163555584,49.842596,838.4443457552464,6.006573125,-0.06537766666666667,-1.8305746666666667,-0.08656833089891874,0.006981317007977318,0.010471975511965976
1403636583213555456,60.213089,770.1130998773762,7.681875833333333,0.3350605416666666,-1.8060580416666667,-0.023736477827122883,-0.06632251157578452,0.05026548245743669
1403636583263555584,39.687634,708.0751010700483,7.681875833333333,0.3350605416666666,-1.8060580416666667,-0.023736477827122883,-0.06632251157578452,0.05026548245743669
1403636583313555456,59.799671,614.1682367520524,7.861664416666666,-0.06537766666666667,-2.6477955,-0.01117010721276371,-0.08028514559173915,0.010471975511965976
1403636583363555584,44.081211,437.23508524456315,7.861664416666666,-0.06537766666666667,-2.6477955,-0.01117010721276371,-0.08028514559173915,0.010471975511965976
1403636583413555456,56.750774,408.593072548256,9.430728416666666,-0.26151066666666667,-2.5170401666666664,0.1291543646475804,-0.1165879940332212,0.06562437987498679
1403636583463555584,39.526225,382.86205560585495,9.430728416666666,-0.26151066666666667,-2.5170401666666664,0.1291543646475804,-0.1165879940332212,0.06562437987498679
1403636583513555456,49.57962,392.6439635203239,8.605335375,0.4004382083333333,-3.2770555416666665,-0.028623399732707,-0.13264502315156904,-0.028623399732707
1403636583563555584,60.572386,371.9869446247163,9.161045541666667,0.196133,-3.563082833333333,-0.15847589608108512,-0.228987197861656,-0.07190756518216637
1403636583613555456,39.632797,319.82232070043295,9.161045541666667,0.196133,-3.563082833333333,-0.15847589608108512,-0.228987197861656,-0.07190756518216637
1403636583663555584,49.872875,264.85403678731717,9.626861416666666,-0.16344416666666667,-3.5957716666666664,0.19757127132575814,-0.34487706019407954,0.24015730507441974
1403636583713555456,49.878836,249.97978283254068,10.100849499999999,-0.04086104166666667,-3.92266,0.06283185307179587,-0.42446407408502096,0.23457225146803787
1403636583763555584,59.68523,248.3459381855288,10.313326916666666,-0.14709974999999997,-4.135137416666667,-0.0041887902047863905,-0.36861353802120245,0.12217304763960307
1403636583813555456,45.271635,239.27052082298732,10.313326916666666,-0.14709974999999997,-4.135137416666667,-0.0041887902047863905,-0.36861353802120245,0.12217304763960307
1403636583863555584,45.168638,257.31447149648693,9.880199875,0.13075533333333333,-4.731708625,-0.025132741228718346,-0.24783675378319478,0.07330382858376185
1403636583913555456,49.942494,278.80818407991916,10.558493166666667,-0.5802267916666666,-4.829775124999999,-0.006981317007977318,-0.15009831567151233,-0.06283185307179587
1403636583963555584,50.006628,303.789866730484,10.705592916666665,-0.3759215833333333,-5.140319041666666,0.05585053606381855,-0.08726646259971647,-0.07819075048934597
1403636584013555456,50.095796,403.3734010090676,11.32668075,-0.20430520833333332,-5.042252541666667,0.11519173063162574,-0.013962634015954637,0.03700098014227979
1403636584063555584,60.563565,556.5049473913166,11.596363625,0.0980665,-4.895152791666666,0.09634217471008698,0.019547687622336492,0.09983283321407566
1403636584113555456,43.682337,528.9564609990666,11.596363625,0.0980665,-4.895152791666666,0.09634217471008698,0.019547687622336492,0.09983283321407566
1403636584163555584,45.851469,395.01285428791425,11.898735333333333,0.17978858333333333,-5.107630208333333,0.0747000919853573,0.02024581932313422,0.0635299847725936
1403636584213555456,49.737215,353.27031295387235,10.672904083333334,-0.11441091666666667,-4.993219291666667,0.0,0.033510321638291124,0.048869219055841226
1403636584263555584,50.202608,313.5195116645948,10.517632124999999,-0.06537766666666667,-4.715364208333333,0.008377580409572781,0.09564404300928926,0.06771877497737998
1403636584313555456,60.518265,319.0126206691533,10.476771083333333,0.4494714583333333,-4.225031708333333,-0.08307767239493008,0.08098327729253688,-0.06771877497737998
1403636584363555584,39.397478,338.7114125333576,10.476771083333333,0.4494714583333333,-4.225031708333333,-0.08307767239493008,0.08098327729253688,-0.06771877497737998
1403636584413555456,49.45445,307.0761492987769,9.643205833333333,-0.07354987499999999,-4.233203916666667,-0.18989182261698306,0.09843656981248018,-0.030019663134302467
1403636584463555584,50.270319,299.09143919946723,9.177389958333332,0.08989429166666667,-4.257720541666666,-0.11728612573401893,0.17523105690023066,-0.04537856055185257
1403636584513555456,50.067425,272.0738330703182,9.349006333333334,-0.08989429166666667,-3.9390044166666667,-0.05375614096142535,0.24504422698000386,0.12775810124598494
1403636584563555584,49.929857,285.4863616634131,9.259112041666667,0.2778550833333333,-3.8654545416666664,-0.08307767239493008,0.2932153143350474,0.04537856055185257
1403636584613555456,55.080652,257.7938147700252,8.401030166666667,0.024516625,-3.8409379166666664,-0.14172073526193954,0.3923500158483253,0.15847589608108512
1403636584663555584,58.361054,252.2727263460188,7.5102594583333335,0.08989429166666667,-3.195333458333333,-0.13334315485236678,0.4656538444320871,0.1228711793404008
1403636584713555456,41.963339,259.13720548480967,7.5102594583333335,0.08989429166666667,-3.195333458333333,-0.13334315485236678,0.4656538444320871,0.1228711793404008
1403636584763555584,55.558443,287.5679642230647,7.175198916666666,-0.04086104166666667,-2.7213453750000003,-0.05794493116621174,0.3378957431861022,0.14102260356114182
1403636584813555456,49.581051,326.06285646679504,7.346815291666666,0.220649625,-2.557901208333333,-0.02722713633111154,0.2715732316103177,0.1850049007113989
1403636584863555584,44.300556,460.51363501395315,7.346815291666666,0.220649625,-2.557901208333333,-0.02722713633111154,0.2715732316103177,0.1850049007113989
1403636584913555456,45.48192,610.8213042981412,6.22722275,-0.11441091666666667,-1.871435708333333,0.039793506945470715,0.1884955592153876,0.1759291886010284
1403636584963555584,49.986363,776.0558942147965,6.799277333333333,0.63743225,-1.5608917916666667,-0.07888888219014369,0.09145525280450287,0.21572269554649914
1403636585013555456,56.794881,1029.465479462413,7.036271375,0.3023717083333333,-1.8550912916666666,-0.09843656981248018,-0.06283185307179587,0.09494591130849153
1403636585063555584,43.640614,886.627514530518,7.036271375,0.3023717083333333,-1.8550912916666666,-0.09843656981248018,-0.06283185307179587,0.09494591130849153
1403636585113555456,49.656153,810.3935523761095,6.652177583333333,0.22882183333333334,-2.0267076666666664,0.0153588974175501,-0.07609635538695278,0.11100294042683936
1403636585163555584,55.822849,648.680786847138,7.722736874999999,0.13075533333333333,-2.0675687083333334,-0.11798425743481668,-0.10122909661567112,0.039095375244672985
1403636585213555456,44.035673,598.4291784014974,7.79628675,0.29419949999999995,-2.3290793749999996,-0.12147491593880534,-0.1117010721276371,0.07330382858376185
1403636585263555584,50.119877,613.211880357615,8.719746291666667,-0.14709974999999997,-2.7131731666666665,-0.10611601852125524,-0.10471975511965977,-0.12077678423800758
1403636585313555456,61.348438,451.351267242731,9.144701125,0.3105439166666667,-3.0400614999999998,-0.004886921905584123,-0.114493598930828,-0.03630284844148206
1403636585363555584,49.831629,439.73543734926784,9.586000375,0.016344416666666667,-3.4486719166666666,-0.0027925268031909274,-0.13264502315156904,-0.03839724354387525
1403636585413555456,38.491011,406.61882530696323,9.586000375,0.016344416666666667,-3.4486719166666666,-0.0027925268031909274,-0.13264502315156904,-0.03839724354387525
1403636585463555584,55.174589,377.72540641320717,9.095667875,0.057205458333333334,-3.8082490833333327,0.143116998663535,-0.17453292519943295,0.027925268031909273
1403636585513555456,44.923544,367.25723219120556,9.978266375,0.392266,-3.857282333333333,0.10053096491487339,-0.19058995431778078,0.0027925268031909274
1403636585563555584,50.201416,326.98960137764,9.872027666666666,0.5148491249999999,-4.576436666666666,0.2715732316103177,-0.20874137853852182,0.005585053606381855
1403636585613555456,61.181545,322.8867570930013,10.419565624999999,-0.122583125,-4.797086291666667,0.2638937829015426,-0.24294983187761068,0.14590952546672595
1403636585663555584,38.775206,319.5693247433849,10.419565624999999,-0.122583125,-4.797086291666667,0.2638937829015426,-0.24294983187761068,0.14590952546672595
1403636585713555456,49.897194,338.08550058121097,10.533976541666666,0.5148491249999999,-3.832765708333333,0.2241002759560719,-0.27296949501191314,0.1864011641129944
1403636585763555584,50.089836,361.471019827733,10.468598874999998,-0.35957716666666667,-4.380303666666666,0.16615534478986016,-0.2953097094374406,0.19268434942017396
1403636585813555456,50.117969,363.1253069620442,9.822994416666667,0.08172208333333333,-4.404820291666666,0.17174039839624203,-0.3127630019573839,0.249931148885588
1403636585863555584,50.305605,369.899934685107,10.043644041666665,-0.269682875,-4.404820291666666,0.143116998663535,-0.35814156250923646,0.1850049007113989
1403636585913555456,59.626579,390.8581372311539,9.136528916666666,-0.10623870833333333,-4.069759749999999,-0.06073745796940267,-0.43772857640017787,0.14590952546672595
1403636585963555584,39.538146,352.5517791347333,9.136528916666666,-0.10623870833333333,-4.069759749999999,-0.06073745796940267,-0.43772857640017787,0.14590952546672595
1403636586013555456,49.932003,338.6089538563781,8.866846041666665,-0.196133,-4.633642125,-0.17383479349863523,-0.4740314248416599,0.153588974175501
1403636586063555584,55.482149,344.68151569585,8.719746291666667,-0.416782625,-4.985047083333333,-0.3399901382884954,-0.4796164784480418,0.0991347015132779
1403636586113555456,54.945707,405.4361015348146,8.294791458333332,-0.40861041666666664,-5.410001916666666,-0.2017600615305445,-0.34557519189487723,0.18919369091618532
1403636586163555584,40.039062,483.57960933951045,8.294791458333332,-0.40861041666666664,-5.410001916666666,-0.2017600615305445,-0.34557519189487723,0.18919369091618532
1403636586213555456,59.668065,391.9836730910905,7.788114541666666,0.23699404166666665,-5.475379583333333,-0.03839724354387525,-0.37419859162758423,0.1228711793404008
1403636586263555584,51.542759,339.90127222783667,7.436709583333332,-0.04903325,-5.93302325,-0.03490658503988659,-0.37419859162758423,0.21432643214490363
1403636586313555456,38.716316,350.38868493991885,7.436709583333332,-0.04903325,-5.93302325,-0.03490658503988659,-0.37419859162758423,0.21432643214490363
1403636586363555584,59.718609,312.6568976799208,7.126165666666666,-0.08172208333333333,-6.145500666666667,-0.01815142422074103,-0.3937462792499207,0.22479840765686968
1403636586413555456,52.191496,314.8132503629751,7.886181041666666,0.0,-6.219050541666666,-0.0027925268031909274,-0.35465090400524774,0.03490658503988659
1403636586463555584,38.212776,323.2391162619536,7.886181041666666,0.0,-6.219050541666666,-0.0027925268031909274,-0.35465090400524774,0.03490658503988659
1403636586513555456,49.971103,379.13305362689687,7.951558708333333,-0.032688833333333334,-6.071950791666666,-0.013962634015954637,-0.30997047515419296,0.05375614096142535
1403636586563555584,50.176621,499.0049409265588,7.673703624999999,0.24516625,-6.088295208333333,0.05166174585903216,-0.22270401255447644,0.0041887902047863905
1403636586613555456,50.062179,870.1512930487958,7.820803375,-0.032688833333333334,-5.93302325,0.050963614158234416,-0.09843656981248018,0.1054178868204575
1403636586663555584,49.697161,742.7246038452411,7.7390812916666665,-0.122583125,-6.145500666666667,-0.01884955592153876,0.02583087292951608,0.0879645943005142
1403636586713555456,50.231934,630.6670337133876,7.1588544999999995,-0.5311935416666667,-5.990228708333333,0.0635299847725936,0.1514945790731078,0.09843656981248018
1403636586763555584,60.564995,597.6050870402282,7.019926958333333,-0.42495483333333334,-6.039261958333333,0.04258603374866164,0.18709929581379212,0.06492624817418906
1403636586813555456,49.990415,604.651314218035,7.142510083333334,-1.12776475,-6.129156249999999,0.05305800926062762,0.15707963267948966,0.023038346126325153
1403636586863555584,39.34598,767.0270325810396,7.142510083333334,-1.12776475,-6.129156249999999,0.05305800926062762,0.15707963267948966,0.023038346126325153
1403636586913555456,55.022001,772.1579962334038,7.420365166666667,-0.7518431666666666,-6.153672874999999,0.06632251157578452,0.13264502315156904,-0.0153588974175501
1403636586963555584,48.918247,854.0219501968643,7.788114541666666,-0.18796079166666665,-6.161845083333333,0.0747000919853573,0.09145525280450287,0.00767944870877505
1403636587013555456,47.83535,857.6256281277333,7.256920999999999,-0.6047434166666666,-6.202706124999999,0.08237954069413235,0.05445427266222308,-0.03420845333908886
1403636587063555584,49.561501,885.1513014338315,7.690048041666667,-0.08172208333333333,-6.390666916666666,0.01815142422074103,-0.04328416544945937,-0.016755160819145562
1403636587113555456,55.088043,890.1768316164939,7.240576583333333,0.13892754166666665,-6.0801229999999995,0.023736477827122883,-0.07749261878854824,0.01884955592153876
1403636587163555584,43.758154,852.7666499741379,7.60015375,0.29419949999999995,-6.243567166666667,0.0027925268031909274,-0.07190756518216637,-0.0006981317007977319
1403636587213555456,60.758114,798.4294619150937,7.542948291666666,0.35140495833333335,-6.243567166666667,-0.009075712110370514,-0.006981317007977318,0.124965574442794
1403636587263555584,51.841497,707.0785458869681,7.453054,0.6864655000000001,-6.219050541666666,-0.04328416544945937,-0.016057029118347832,0.10681415022205297
1403636587313555456,37.690163,557.6488170625967,7.453054,0.6864655000000001,-6.219050541666666,-0.04328416544945937,-0.016057029118347832,0.10681415022205297
1403636587363555584,49.941301,526.9613084370557,7.4693984166666665,0.20430520833333332,-6.366150291666666,-0.03700098014227979,-0.0020943951023931952,0.1445132620651305
1403636587413555456,60.174942,475.2887675108977,7.4693984166666665,0.24516625,-6.537766666666666,-0.0153588974175501,-0.023736477827122883,0.18919369091618532
1403636587463555584,39.477349,446.1231627914409,7.4693984166666665,0.24516625,-6.537766666666666,-0.0153588974175501,-0.023736477827122883,0.18919369091618532
1403636587513555456,50.036192,421.6803181901598,7.232404375,0.42495483333333334,-6.562283291666667,-0.021642082724729686,-0.01815142422074103,0.14521139376592823
1403636587563555584,60.052633,380.29181334212007,7.6491869999999995,0.04903325,-6.71755525,-0.07958701389094143,0.05166174585903216,0.143116998663535
1403636587613555456,39.260149,344.7407769547826,7.6491869999999995,0.04903325,-6.71755525,-0.07958701389094143,0.05166174585903216,0.143116998663535
1403636587663555584,50.727129,310.87468752772224,7.559292708333333,-0.008172208333333333,-6.268083791666666,-0.0767944870877505,0.13264502315156904,0.182212373908208
1403636587713555456,60.847044,318.22365111898677,7.273265416666667,-0.32688833333333334,-6.317117041666666,-0.12426744274199628,0.17383479349863523,0.21711895894809458
1403636587763555584,50.480127,302.65101010429004,7.1098212499999995,-0.5475379583333333,-6.161845083333333,-0.1270599695451872,0.1270599695451872,0.16824973989225336
1403636587813555456,38.805247,324.8961989847588,7.1098212499999995,-0.5475379583333333,-6.161845083333333,-0.1270599695451872,0.1270599695451872,0.16824973989225336
1403636587863555584,49.581289,338.7355826577008,6.938204874999999,-0.6456044583333332,-6.03108975,-0.11588986233242347,0.04049163864626844,0.20036379812894903
1403636587913555456,49.871445,320.7117298001232,7.044443583333333,-0.7273265416666667,-6.317117041666666,-0.12636183784438945,-0.05026548245743669,0.13823007675795088
1403636587963555584,49.994707,272.7151727584963,7.224232166666667,-0.809048625,-6.357978083333332,-0.2150245638457014,-0.15219271077390556,0.13264502315156904
1403636588013555456,49.868106,257.21181008825494,7.1098212499999995,-0.8744262916666666,-6.161845083333333,-0.21223203704251048,-0.1996656664281513,0.11588986233242347
1403636588063555584,61.66339,291.54057069924943,7.216059958333333,-1.22583125,-6.4805612083333335,-0.11100294042683936,-0.15707963267948966,0.18291050560900574
1403636588113555456,38.34939,350.96324183898315,7.216059958333333,-0.7927042083333332,-6.725727458333332,-0.02652900463031381,-0.09704030641088471,0.10053096491487339
1403636588163555584,50.267458,378.6622972196963,7.265093208333333,-1.2094868333333333,-6.42335575,-0.03490658503988659,-0.041887902047863905,0.05445427266222308
1403636588213555456,60.540676,445.21257750875395,7.2487487916666655,-1.3811032083333332,-6.61948875,0.04049163864626844,0.07260569688296412,0.11798425743481668
1403636588263555584,39.62779,551.2900189010277,7.2487487916666655,-1.3811032083333332,-6.61948875,0.04049163864626844,0.07260569688296412,0.11798425743481668
1403636588313555456,49.983025,597.8364319868057,7.077132416666666,-1.0950759166666666,-6.701210833333333,0.0614355896702004,0.08377580409572781,0.06841690667817772
1403636588363555584,50.017357,589.3927631649217,7.175198916666666,-1.3157255416666664,-6.856482791666667,0.06771877497737998,0.09773843811168245,0.11728612573401893
1403636588413555456,49.810648,614.9364159344534,7.1098212499999995,-1.2176590416666666,-6.594972124999999,0.023038346126325153,0.07539822368615504,0.11309733552923257
1403636588463555584,61.141014,622.5074856602536,7.534776083333333,-1.4383086666666667,-6.815621749999999,-0.06213372137099814,0.0027925268031909274,0.032812189937493394
1403636588513555456,38.33723,579.4157890313378,7.534776083333333,-1.4383086666666667,-6.815621749999999,-0.06213372137099814,0.0027925268031909274,0.032812189937493394
1403636588563555584,50.652981,489.1807320033692,7.232404375,-1.4056198333333334,-6.668522,-0.04677482395344803,0.0307177948351002,0.059341194567807204
1403636588613555456,54.361344,396.8798993264992,7.346815291666666,-1.22583125,-6.799277333333333,0.01815142422074103,0.03420845333908886,0.0991347015132779
1403636588663555584,45.543909,377.2199158983914,6.676694208333332,-1.0869037083333333,-6.276256,0.025132741228718346,0.03560471674068433,0.04258603374866164
1403636588713555456,49.71075,321.53284143731383,7.052615791666666,-0.9071151249999999,-6.390666916666666,0.10192722831646883,-0.023736477827122883,0.08377580409572781
1403636588763555584,50.035,325.94614316238136,7.085304625,-0.9561483749999999,-6.407011333333333,0.07120943348136866,-0.046076692252650306,0.0013962634015954637
1403636588813555456,50.183773,318.4361377078074,7.207887749999999,-0.9561483749999999,-6.22722275,0.07120943348136866,-0.041189770347066175,0.019547687622336492
1403636588863555584,60.079575,285.3374380638223,7.093476833333334,-0.83356525,-6.791105125,0.09075712110370514,0.0307177948351002,0.024434609527920613
1403636588913555456,44.086218,310.00023270831446,7.093476833333334,-0.83356525,-6.791105125,0.09075712110370514,0.0307177948351002,0.024434609527920613
1403636588963555584,45.877456,291.1858039826407,7.387676333333332,-0.8825985,-6.644005375,0.11239920382843484,0.06073745796940267,0.013264502315156905
1403636589013555456,59.999943,288.0721253878102,7.314126458333333,-0.4739880833333333,-6.415183541666666,0.10681415022205297,0.12077678423800758,0.0020943951023931952
1403636589063555584,44.779062,301.7137550161438,7.314126458333333,-0.4739880833333333,-6.415183541666666,0.10681415022205297,0.12077678423800758,0.0020943951023931952
1403636589113555456,45.055628,305.46021984589436,7.461226208333334,-0.83356525,-6.390666916666666,0.11868238913561441,0.124965574442794,0.004886921905584123
1403636589163555584,50.316811,324.9091698225827,7.256920999999999,-0.73549875,-6.2599115833333325,0.07051130178057091,0.10262536001726656,0.004886921905584123
1403636589213555456,55.457592,327.7884300866278,7.2487487916666655,-0.8580818749999999,-6.243567166666667,0.08237954069413235,0.06841690667817772,0.04817108735504349
1403636589263555584,44.726133,326.4917644603309,7.314126458333333,-0.5230213333333333,-6.096467416666667,0.057246799465414,-0.01117010721276371,-0.003490658503988659
1403636589313555456,49.751282,313.1524774259184,6.742071875,-0.7518431666666666,-5.965712083333332,0.11030480872604163,-0.046076692252650306,-0.02024581932313422
1403636589363555584,50.179005,308.9838426426469,7.657359208333333,-0.2533384583333333,-6.145500666666667,0.08517206749732328,-0.07539822368615504,0.012566370614359173
1403636589413555456,62.341451,331.04474056898766,7.01175475,-0.4985047083333333,-6.284428208333333,0.023736477827122883,0.024434609527920613,0.01117010721276371
1403636589463555584,36.616564,358.3734613222847,7.01175475,-0.4985047083333333,-6.284428208333333,0.023736477827122883,0.024434609527920613,0.01117010721276371
1403636589513555456,50.679445,356.97205278995915,7.3549875,-0.5475379583333333,-6.537766666666666,0.04956735075663895,0.06562437987498679,0.056548667764616284
1403636589563555584,50.033808,368.303984925509,7.093476833333334,-0.3759215833333333,-6.063778583333333,0.059341194567807204,0.07260569688296412,0.056548667764616284
1403636589613555456,60.462713,370.26482095948154,7.232404375,-0.29419949999999995,-6.382494708333334,0.0439822971502571,0.06911503837897544,0.041887902047863905
1403636589663555584,44.335366,384.4177591600367,7.232404375,-0.29419949999999995,-6.382494708333334,0.0439822971502571,0.06911503837897544,0.041887902047863905
1403636589713555456,45.033693,351.5575954507982,7.305954249999999,-0.4004382083333333,-5.941195458333333,0.07400196028455958,0.03769911184307752,0.033510321638291124
1403636589763555584,50.184965,327.1781508146077,7.2487487916666655,0.032688833333333334,-6.194533916666667,0.14032447186034408,-0.020943951023931952,0.06492624817418906
1403636589813555456,49.802542,331.25544112849866,7.134337875,0.21247741666666667,-6.1209840416666665,0.1514945790731078,-0.07958701389094143,-0.004886921905584123
1403636589863555584,50.134182,332.82971180457787,7.542948291666666,0.18796079166666665,-6.22722275,0.13823007675795088,-0.12775810124598494,-0.0013962634015954637
1403636589913555456,49.715996,342.97242939237685,7.199715541666666,0.08172208333333333,-6.439700166666666,0.15777776438028737,-0.10192722831646883,0.04468042885105484
1403636589963555584,50.276994,354.75423735579113,7.379504124999999,-0.07354987499999999,-6.415183541666666,0.19757127132575814,-0.033510321638291124,0.05515240436302082
1403636590013555456,49.84951,434.6865691410771,8.204897166666667,0.4494714583333333,-6.880999416666667,0.1514945790731078,0.06283185307179587,0.05026548245743669
1403636590063555584,50.185919,502.959188643099,7.371331916666667,0.22882183333333334,-6.505077833333333,0.114493598930828,0.1424188669627373,0.016057029118347832
1403636590113555456,49.853087,564.3401527308923,7.878008833333333,0.2778550833333333,-6.472389,0.11798425743481668,0.16615534478986016,0.05794493116621174
1403636590163555584,49.996137,753.440421401189,7.428537374999999,0.6537766666666667,-6.439700166666666,0.09704030641088471,0.13892820845874865,0.03839724354387525
1403636590213555456,50.333977,1043.3777235780235,7.616498166666665,0.5965712083333333,-6.456044583333333,0.028623399732707,0.09145525280450287,0.0614355896702004
1403636590263555584,60.686827,1138.4342258575898,7.485742833333332,0.4739880833333333,-6.268083791666666,-0.0614355896702004,-0.02234021442552742,0.05375614096142535
1403636590313555456,50.271988,876.8206102088677,7.477570624999999,0.5148491249999999,-6.431527958333334,-0.10821041362364843,-0.02583087292951608,0.0879645943005142
1403636590363555584,49.32189,659.4345540438189,7.428537374999999,0.465815875,-6.415183541666666,-0.11938052083641214,0.004886921905584123,0.08726646259971647
1403636590413555456,43.031215,520.5018033230878,7.428537374999999,0.465815875,-6.415183541666666,-0.11938052083641214,0.004886921905584123,0.08726646259971647
1403636590463555584,56.362391,425.7964551472622,7.485742833333332,0.2778550833333333,-6.137328458333333,-0.13543754995475996,0.08098327729253688,0.08517206749732328
1403636590513555456,39.931774,403.4597579769244,7.485742833333332,0.2778550833333333,-6.137328458333333,-0.13543754995475996,0.08098327729253688,0.08517206749732328
1403636590563555584,59.326649,396.29427367494026,7.3386430833333325,0.0980665,-5.93302325,-0.12356931104119852,0.08098327729253688,0.11309733552923257
1403636590613555456,40.327549,390.7587933510095,7.3386430833333325,0.0980665,-5.93302325,-0.12356931104119852,0.08098327729253688,0.11309733552923257
1403636590663555584,50.459384,394.8338992069879,7.485742833333332,-0.11441091666666667,-6.022917541666666,-0.12426744274199628,0.04468042885105484,0.1054178868204575
1403636590713555456,59.844494,371.5855217263114,7.4693984166666665,-0.3023717083333333,-5.916678833333333,-0.07819075048934597,-0.04677482395344803,0.16964600329384885
1403636590763555584,40.24911,410.6351594261783,7.4693984166666665,-0.3023717083333333,-5.916678833333333,-0.07819075048934597,-0.04677482395344803,0.16964600329384885
1403636590813555456,49.581051,400.776525385584,7.3386430833333325,0.008172208333333333,-5.867645583333333,-0.033510321638291124,-0.10192722831646883,0.15987215948268058
1403636590863555584,60.407876,388.8183998998678,7.444881791666666,-0.11441091666666667,-6.300772625,-0.06771877497737998,-0.06562437987498679,0.12845623294678266
1403636590913555456,39.844513,373.2618203413382,7.444881791666666,-0.11441091666666667,-6.300772625,-0.06771877497737998,-0.06562437987498679,0.12845623294678266
1403636590963555584,60.682774,385.10462356268056,7.50208725,-0.7927042083333332,-6.3498058749999995,0.014660765716752367,0.04049163864626844,0.12077678423800758
1403636591013555456,44.991732,381.0322344256846,7.50208725,-0.7927042083333332,-6.3498058749999995,0.014660765716752367,0.04049163864626844,0.12077678423800758
1403636591063555584,44.406652,390.7887358619771,7.363159708333333,-0.6047434166666666,-6.357978083333332,0.03560471674068433,0.05235987755982988,0.08517206749732328
1403636591113555456,50.297499,388.62695387359486,7.305954249999999,-0.8172208333333333,-6.333461458333334,0.039095375244672985,0.03769911184307752,0.114493598930828
1403636591163555584,49.976826,380.07692119671503,7.444881791666666,-0.8825985,-6.390666916666666,-0.006283185307179587,0.014660765716752367,0.15917402778188286
1403636591213555456,60.904741,373.65357920827654,7.117993458333333,-1.1522813749999998,-6.268083791666666,-0.04468042885105484,-0.03700098014227979,0.124965574442794
1403636591263555584,49.630403,372.7962789912769,6.962721499999999,-1.4464808749999998,-6.292600416666667,-0.07330382858376185,-0.04049163864626844,0.11379546723003027
1403636591313555456,45.909643,371.579935919556,6.962721499999999,-1.4464808749999998,-6.292600416666667,-0.07330382858376185,-0.04049163864626844,0.11379546723003027
1403636591363555584,43.767691,388.4021559534647,7.044443583333333,-1.4546530833333333,-6.357978083333332,-0.09704030641088471,-0.027925268031909273,0.12636183784438945
1403636591413555456,49.766779,428.5037171369153,6.913688249999999,-1.5772362083333331,-6.112811833333333,-0.07749261878854824,0.01815142422074103,0.143116998663535
1403636591463555584,54.45528,468.94608463936476,7.4693984166666665,-0.8907707083333333,-6.235394958333333,-0.03420845333908886,0.019547687622336492,0.1319468914507713
1403636591513555456,48.606158,363.6558114726716,7.322298666666667,-0.9234595416666666,-6.382494708333334,-0.1494001839707146,0.09843656981248018,0.09704030641088471
1403636591563555584,46.821356,311.4723210588889,7.395848541666666,-0.8580818749999999,-6.3089448333333324,-0.24713862208239704,0.21362830044410594,0.15777776438028737
1403636591613555456,60.528993,310.56946360292443,7.256920999999999,-0.9970094166666666,-6.5704555000000004,-0.22759093446006054,0.4118977034706618,0.13473941825396224
1403636591663555584,39.577961,371.237352970358,7.256920999999999,-0.9970094166666666,-6.5704555000000004,-0.22759093446006054,0.4118977034706618,0.13473941825396224
1403636591713555456,60.506582,353.63345023789986,8.115002875,-0.42495483333333334,-6.153672874999999,-0.22689280275926282,0.45238934211693027,0.0767944870877505
1403636591763555584,42.525053,313.1460236561149,8.115002875,-0.42495483333333334,-6.153672874999999,-0.22689280275926282,0.45238934211693027,0.0767944870877505
1403636591813555456,61.172486,309.127409267507,8.18855275,0.04903325,-5.483551791666667,-0.18151424220741028,0.3518583772020568,0.13962634015954636
1403636591863555584,36.091089,362.8029241112304,8.18855275,0.04903325,-5.483551791666667,-0.18151424220741028,0.3518583772020568,0.13962634015954636
1403636591913555456,50.513267,497.6777204829859,7.657359208333333,-0.44129925,-5.426346333333333,-0.1605702911834783,0.2017600615305445,0.2017600615305445
1403636591963555584,49.760342,518.5077211801575,8.556302125,0.367749375,-4.985047083333333,-0.14032447186034408,-0.024434609527920613,0.24713862208239704
1403636592013555456,49.945593,390.1762021274815,8.098658458333333,0.29419949999999995,-4.674503166666667,-0.18709929581379212,-0.1445132620651305,0.20525072003453312
1403636592063555584,53.434849,411.12865661400065,8.450063416666666,0.15527195833333335,-4.870636166666666,-0.210835773640915,-0.11798425743481668,0.2834414705238791
1403636592113555456,57.081699,432.52583823069,8.106830666666665,-0.4739880833333333,-5.222041125,-0.18151424220741028,-0.15079644737231007,0.22619467105846514
1403636592163555584,38.825751,438.93969916436606,8.106830666666665,-0.4739880833333333,-5.222041125,-0.18151424220741028,-0.15079644737231007,0.22619467105846514
1403636592213555456,50.681829,481.9101554643731,8.343824708333333,-0.5720545833333333,-5.516240625,-0.13264502315156904,-0.1759291886010284,0.15009831567151233
1403636592263555584,49.870253,586.4826961433407,7.992419749999999,-0.93163175,-5.712373625,-0.05515240436302082,-0.15707963267948966,0.114493598930828
1403636592313555456,49.940347,524.2244759242296,7.9433865,-1.1604535833333331,-5.442690750000001,0.013264502315156905,-0.13055062804917586,0.12077678423800758
1403636592363555584,49.610138,451.9098552968455,7.853492208333332,-0.9479761666666666,-5.990228708333333,0.09843656981248018,-0.124965574442794,0.1165879940332212
1403636592413555456,50.153017,352.1137832724033,7.9433865,-1.3974476249999999,-5.720545833333333,0.18779742751458986,-0.07888888219014369,0.07888888219014369
1403636592463555584,49.998522,314.34355079992037,7.722736874999999,-1.5036863333333332,-6.137328458333333,0.21711895894809458,0.01815142422074103,-0.028623399732707
1403636592513555456,59.738159,247.4758333951023,7.232404375,-1.5200307499999999,-5.990228708333333,0.3204424506661589,0.20874137853852182,-0.10053096491487339
1403636592563555584,40.047646,232.88805592425774,7.232404375,-1.5200307499999999,-5.990228708333333,0.3204424506661589,0.20874137853852182,-0.10053096491487339
1403636592613555456,59.966326,242.54819918149218,7.559292708333333,-1.4464808749999998,-6.014745333333333,0.31974431896536115,0.1514945790731078,-0.1731366617978375
1403636592663555584,44.421672,287.3150678537343,7.559292708333333,-1.4464808749999998,-6.014745333333333,0.31974431896536115,0.1514945790731078,-0.1731366617978375
1403636592713555456,45.410395,310.2819641415987,7.117993458333333,-1.3075533333333333,-6.096467416666667,0.34068826998929314,0.08377580409572781,-0.17174039839624203
1403636592763555584,49.968004,280.7809597592738,7.673703624999999,-1.7325081666666666,-6.447872374999999,0.4705407663376713,0.02234021442552742,-0.15009831567151233
1403636592813555456,49.744129,249.82038550981733,6.635833166666666,-1.6589582916666665,-6.42335575,0.4935791124639964,-0.030019663134302467,-0.14730578886832138
1403636592863555584,61.14626,208.03481229179707,6.954549291666666,-1.4546530833333333,-7.0689602083333325,0.5110324049839398,-0.11938052083641214,-0.19128808601857852
1403636592913555456,38.606167,216.35212888266454,6.954549291666666,-1.4546530833333333,-7.0689602083333325,0.5110324049839398,-0.11938052083641214,-0.19128808601857852
1403636592963555584,55.092573,205.4157807747295,6.782932916666666,-1.6017528333333333,-6.880999416666667,0.5459389900238263,-0.11588986233242347,-0.13124875974997358
1403636593013555456,45.029402,185.44077501318392,7.134337875,-1.5608917916666667,-7.142510083333334,0.5703735995517468,-0.13055062804917586,-0.14521139376592823
1403636593063555584,49.79372,207.52547063078916,7.044443583333333,-0.9479761666666666,-6.962721499999999,0.46006879082570523,-0.09843656981248018,-0.18989182261698306
1403636593113555456,53.860426,188.11844245016118,6.782932916666666,-1.5363751666666667,-7.322298666666667,0.5305800926062761,-0.0767944870877505,-0.1689478715930511
1403636593163555584,45.978307,208.64721614652106,7.281437625,-0.48216029166666663,-6.848310583333333,0.4461061568097506,-0.032114058236695664,-0.09075712110370514
1403636593213555456,49.565793,191.25280740719012,7.019926958333333,-0.8662540833333333,-6.897343833333333,0.5124286683855351,-0.009075712110370514,0.07819075048934597
1403636593263555584,51.104068,221.34038638295527,7.019926958333333,0.032688833333333334,-6.684866416666666,0.40142572795869574,-0.032812189937493394,0.03560471674068433
1403636593313555456,49.819231,250.67105255146913,7.191543333333333,0.17161637500000002,-6.5704555000000004,0.2918190509334519,-0.08237954069413235,0.057246799465414
1403636593363555584,50.295353,301.35237041451325,6.774760708333333,0.10623870833333333,-6.456044583333333,0.1228711793404008,-0.08866272600131193,-0.019547687622336492
1403636593413555456,49.800158,389.0410181630198,7.273265416666667,0.73549875,-6.439700166666666,0.06422811647339133,-0.059341194567807204,0.07609635538695278
1403636593463555584,61.267137,449.24622114361216,7.395848541666666,0.4985047083333333,-6.014745333333333,-0.18151424220741028,-0.041189770347066175,0.15777776438028737
1403636593513555456,38.478136,441.36200028548006,7.395848541666666,0.4985047083333333,-6.014745333333333,-0.18151424220741028,-0.041189770347066175,0.15777776438028737
1403636593563555584,50.281048,440.17644152291547,7.387676333333332,0.3759215833333333,-6.039261958333333,-0.1117010721276371,-0.0614355896702004,0.268082573106329
1403636593613555456,49.930573,381.9249423371964,7.583809333333333,0.17978858333333333,-6.088295208333333,-0.23596851486963336,-0.11728612573401893,0.31066860685499065
1403636593663555584,49.710512,372.14918225892177,7.40402075,0.42495483333333334,-6.3089448333333324,-0.260403124397554,-0.1165879940332212,0.3651228795172137
1403636593713555456,50.274372,331.1807945939226,7.992419749999999,0.3105439166666667,-6.006573125,-0.41119957176986405,-0.1117010721276371,0.4146902302738527
1403636593763555584,54.886341,294.5075544702082,7.3386430833333325,0.26151066666666667,-6.456044583333333,-0.5019566928735693,-0.03769911184307752,0.4544837372193234
1403636593813555456,59.088945,267.6037485784481,7.984247541666667,-0.2860272916666666,-6.137328458333333,-0.6695083010650248,0.19198621771937624,0.5082398781807488
1403636593863555584,41.407109,226.46490368544283,7.984247541666667,-0.2860272916666666,-6.137328458333333,-0.6695083010650248,0.19198621771937624,0.5082398781807488
1403636593913555456,44.565677,205.83554428880373,8.270274833333334,-0.2778550833333333,-5.728718041666665,-0.7037167544041136,0.2750638901143063,0.5445427266222308
1403636593963555584,60.720444,191.3511404851589,8.3356525,-0.6701210833333332,-5.083113583333333,-0.7504915783575618,0.29251718263424964,0.46844637123527805
1403636594013555456,50.81892,176.58772688646587,8.523613291666665,-0.9643205833333333,-5.099458,-0.7225663103256523,0.21223203704251048,0.42795473258900957
1403636594063555584,49.10636,185.08447228968907,8.351996916666666,-0.8662540833333333,-4.527403416666666,-0.6590363255530588,0.1361356816555577,0.4796164784480418
1403636594113555456,39.304256,196.80202328972592,8.351996916666666,-0.8662540833333333,-4.527403416666666,-0.6590363255530588,0.1361356816555577,0.4796164784480418
1403636594163555584,55.151701,206.89279059303456,8.38468575,-0.93163175,-4.56009225,-0.578053048260522,0.039095375244672985,0.39165188414752755
1403636594213555456,54.970741,205.89404523147311,8.433719,-1.1359369583333332,-4.8216029166666665,-0.4419173666049642,0.013962634015954637,0.24155356847601517
1403636594263555584,40.046931,207.7954219296404,8.433719,-1.1359369583333332,-4.8216029166666665,-0.4419173666049642,0.013962634015954637,0.24155356847601517
1403636594313555456,56.422949,201.16465698437904,8.556302125,-1.2176590416666666,-4.960530458333333,-0.36302848441482055,0.03769911184307752,0.13543754995475996
1403636594363555584,43.691158,197.76315076582503,8.433719,-1.2176590416666666,-5.140319041666666,-0.34068826998929314,0.0747000919853573,0.09773843811168245
1403636594413555456,59.598446,220.10497558295953,8.139519499999999,-1.348414375,-5.532585041666667,-0.1556833692778942,0.22549653935766736,-0.033510321638291124
1403636594463555584,44.032335,263.79010061525474,8.139519499999999,-1.348414375,-5.532585041666667,-0.1556833692778942,0.22549653935766736,-0.033510321638291124
1403636594513555456,56.316853,308.21968063956984,7.093476833333334,-2.10842975,-6.071950791666666,0.039095375244672985,0.25761059759436306,0.13962634015954636
1403636594563555584,49.508571,250.39087415308472,7.3386430833333325,-2.5333845833333335,-6.464216791666666,0.05305800926062762,0.1996656664281513,0.0991347015132779
1403636594613555456,44.365883,249.95608592235098,7.3386430833333325,-2.5333845833333335,-6.464216791666666,0.05305800926062762,0.1996656664281513,0.0991347015132779
1403636594663555584,46.364308,258.5129118832001,6.9300326666666665,-2.7131731666666665,-6.505077833333333,0.10890854532444616,0.1556833692778942,0.1466076571675237
1403636594713555456,49.619674,263.0704045752447,6.979065916666666,-2.941995,-6.398839124999999,0.15847589608108512,0.10890854532444616,-0.00767944870877505
1403636594763555584,56.064844,257.88201075481606,6.9300326666666665,-2.8357562916666668,-6.42335575,0.278554548618295,0.08237954069413235,-0.09843656981248018
1403636594813555456,54.547787,248.52184528891718,7.1588544999999995,-2.9093061666666666,-6.742071875,0.44470989340815514,0.0942477796076938,-0.2282890661608583
1403636594863555584,39.211035,233.95213571531866,7.1588544999999995,-2.9093061666666666,-6.742071875,0.44470989340815514,0.0942477796076938,-0.2282890661608583
1403636594913555456,60.126781,230.80763050155133,6.880999416666667,-2.0757409166666667,-6.807449541666666,0.6290166624187563,0.06981317007977318,-0.3895574890451343
1403636594963555584,50.426007,216.32055646121282,7.085304625,-1.5608917916666667,-6.954549291666666,0.7819075048934596,0.0439822971502571,-0.25621433419276757
1403636595013555456,38.958072,201.9848297746271,7.085304625,-1.5608917916666667,-6.954549291666666,0.7819075048934596,0.0439822971502571,-0.25621433419276757
1403636595063555584,50.434113,183.840707922274,6.962721499999999,-1.1604535833333331,-6.32528925,0.7665486074759096,-0.05305800926062762,-0.3846705671395502
1403636595113555456,49.934625,181.2862434067848,7.50208725,-0.48216029166666663,-6.5704555000000004,0.7302457590344275,-0.10192722831646883,-0.28204520712228365
1403636595163555584,50.139905,173.6963139232434,7.273265416666667,-0.220649625,-6.684866416666666,0.718377520120866,-0.1165879940332212,-0.24923301718479024
1403636595213555456,60.733318,173.9687536760396,7.003582541666666,0.8008764166666666,-6.684866416666666,0.6346017160251382,-0.1117010721276371,-0.15917402778188286
1403636595263555584,39.551735,181.0800057055714,7.003582541666666,0.8008764166666666,-6.684866416666666,0.6346017160251382,-0.1117010721276371,-0.15917402778188286
1403636595313555456,60.536861,194.33924085822082,7.428537374999999,1.6017528333333333,-6.586799916666666,0.36372661611561824,-0.07400196028455958,-0.10402162341886204
1403636595363555584,42.762995,239.5373666763288,7.428537374999999,1.6017528333333333,-6.586799916666666,0.36372661611561824,-0.07400196028455958,-0.10402162341886204
1403636595413555456,46.34285,286.7909731330295,7.771770125,1.5363751666666667,-6.627660958333332,0.2981022362406315,-0.04956735075663895,-0.011868238913561441
1403636595463555584,50.365448,394.3050133317576,7.518431666666666,1.9449855833333332,-6.292600416666667,0.1424188669627373,-0.05515240436302082,0.013962634015954637
1403636595513555456,49.885988,458.5612438015516,7.567464916666665,1.5854084166666664,-6.357978083333332,0.10332349171806432,-0.07260569688296412,0.08517206749732328
1403636595563555584,50.306559,506.15060809030535,7.837147791666666,1.6344416666666666,-6.219050541666666,0.04956735075663895,-0.09075712110370514,0.0013962634015954637
1403636595613555456,49.680471,496.8529559920143,7.436709583333332,1.4546530833333333,-6.047434166666666,-0.08517206749732328,-0.07819075048934597,0.08726646259971647
1403636595663555584,49.998283,436.7459588701947,7.927042083333333,1.103248125,-6.047434166666666,-0.17732545200262387,-0.056548667764616284,0.1096066770252439
1403636595713555456,49.290896,327.5545240809941,7.567464916666665,0.9398039583333333,-5.646995958333333,-0.335801348083709,-0.00767944870877505,0.17941984710501704
1403636595763555584,50.236225,267.8181350992062,7.886181041666666,0.5230213333333333,-5.93302325,-0.44401176170735746,0.00767944870877505,0.12426744274199628
1403636595813555456,50.402641,225.7104199513165,7.869836625,0.122583125,-5.524412833333333,-0.6171484235051949,0.05794493116621174,0.249931148885588
1403636595863555584,59.607029,235.68365097033626,7.673703624999999,-0.7518431666666666,-5.93302325,-0.6387905062299246,0.021642082724729686,0.374896723328382
1403636595913555456,39.56604,227.231445066522,7.673703624999999,-0.7518431666666666,-5.93302325,-0.6387905062299246,0.021642082724729686,0.374896723328382
1403636595963555584,50.777674,236.71069252061363,7.673703624999999,-1.5282029583333332,-6.3743225,-0.5612978874413763,-0.020943951023931952,0.3560471674068432
1403636596013555456,54.737806,234.95613886627356,7.518431666666666,-1.9122967499999999,-6.333461458333334,-0.611563369898813,-0.06771877497737998,0.3378957431861022
1403636596063555584,58.709145,247.48810481961638,7.779942333333333,-3.138128,-6.333461458333334,-0.43423791789618915,-0.060039326268604934,0.36372661611561824
1403636596113555456,39.410829,264.3136151163572,7.779942333333333,-3.138128,-6.333461458333334,-0.43423791789618915,-0.060039326268604934,0.36372661611561824
1403636596163555584,57.468892,326.52229260680014,7.608325958333333,-3.587599458333333,-6.668522,-0.15219271077390556,0.05585053606381855,0.2869321290278678
1403636596213555456,50.831079,463.3731841895498,8.172208333333334,-2.5006957499999998,-6.513250041666667,-0.06841690667817772,0.06771877497737998,0.23387411976724018
1403636596263555584,42.962313,471.0946685202415,8.172208333333334,-2.5006957499999998,-6.513250041666667,-0.06841690667817772,0.06771877497737998,0.23387411976724018
1403636596313555456,57.508945,405.54363293774946,7.706392458333333,-1.5363751666666667,-6.529594458333333,-0.04049163864626844,0.10192722831646883,0.10471975511965977
1403636596363555584,49.242497,364.1367602940621,7.583809333333333,-0.83356525,-6.063778583333333,-0.032812189937493394,0.13543754995475996,0.013264502315156905
1403636596413555456,42.453766,329.4515319073291,7.583809333333333,-0.83356525,-6.063778583333333,-0.032812189937493394,0.13543754995475996,0.013264502315156905
1403636596463555584,47.01066,305.1869418319457,7.690048041666667,-0.3759215833333333,-5.238385541666666,0.03490658503988659,0.14800392056911915,0.0013962634015954637
1403636596513555456,49.942016,312.25484516631735,8.605335375,0.04086104166666667,-5.066769166666667,0.039793506945470715,0.12007865253720987,-0.06911503837897544
1403636596563555584,60.211182,357.80078074132757,8.7279185,0.44129925,-4.543747833333333,-0.016755160819145562,0.0041887902047863905,0.019547687622336492
1403636596613555456,50.617933,411.1805374626043,7.886181041666666,0.809048625,-4.184170666666667,0.019547687622336492,-0.03420845333908886,0.047472955654245766
1403636596663555584,50.154448,433.40594400670216,9.112012291666666,1.12776475,-3.947176625,0.02722713633111154,-0.019547687622336492,0.03839724354387525
1403636596713555456,42.150259,474.99472741523016,9.112012291666666,1.12776475,-3.947176625,0.02722713633111154,-0.019547687622336492,0.03839724354387525
1403636596763555584,47.017097,571.9745859444505,8.662540833333333,1.1114203333333332,-3.857282333333333,0.030019663134302467,0.05445427266222308,-0.04817108735504349
1403636596813555456,50.027609,538.2607163673586,9.112012291666666,1.0869037083333333,-3.7673880416666665,0.006283185307179587,0.15219271077390556,0.03630284844148206
1403636596863555584,49.96562,473.1290245428854,9.07115125,0.8499096666666667,-3.8164212916666664,-0.032114058236695664,0.15289084247470325,-0.08168140899333462
1403636596913555456,60.92,434.64041510746256,8.940395916666665,0.5883989999999999,-3.9880376666666666,-0.06981317007977318,-0.010471975511965976,-0.0879645943005142
1403636596963555584,49.068451,477.49771580647905,8.409202375,0.43312704166666666,-4.3721314583333335,-0.05166174585903216,-0.11309733552923257,0.10681415022205297
1403636597013555456,39.782286,429.2161703236553,8.409202375,0.43312704166666666,-4.3721314583333335,-0.05166174585903216,-0.11309733552923257,0.10681415022205297
1403636597063555584,50.292492,422.7918182736843,8.490924458333334,0.5883989999999999,-4.8216029166666665,0.010471975511965976,-0.22479840765686968,-0.008377580409572781
1403636597113555456,49.505234,364.5043300787804,8.523613291666665,0.10623870833333333,-5.311935416666666,0.14730578886832138,-0.20804324683772407,0.11100294042683936
1403636597163555584,60.843706,377.57382998715406,8.458235625,-0.13892754166666665,-6.022917541666666,0.21851522234969004,-0.06702064327658225,-0.04677482395344803
1403636597213555456,50.402164,311.61797620794135,7.8289755833333325,-0.4494714583333333,-6.145500666666667,0.26878070480712674,0.02024581932313422,-0.12007865253720987
1403636597263555584,49.793005,282.4758184586658,7.9433865,-1.0460426666666667,-6.03108975,0.24155356847601517,0.10192722831646883,-0.11798425743481668
1403636597313555456,42.454481,248.9835952465678,7.9433865,-1.0460426666666667,-6.03108975,0.24155356847601517,0.10192722831646883,-0.11798425743481668
1403636597363555584,57.192564,259.2754003847229,7.273265416666667,-0.9152873333333333,-6.42335575,0.26249751949994715,0.09983283321407566,-0.1731366617978375
1403636597413555456,39.315939,274.5622899489189,7.273265416666667,-0.9152873333333333,-6.42335575,0.26249751949994715,0.09983283321407566,-0.1731366617978375
1403636597463555584,63.430786,311.2762957848404,6.407011333333333,-1.6099250416666664,-7.003582541666666,0.3588396942100341,0.11728612573401893,-0.1494001839707146
1403636597513555456,36.47089,318.95962145637526,6.407011333333333,-1.6099250416666664,-7.003582541666666,0.3588396942100341,0.11728612573401893,-0.1494001839707146
1403636597563555584,50.146103,356.7365727990724,6.537766666666666,-1.0950759166666666,-7.363159708333333,0.4146902302738527,0.143116998663535,-0.14590952546672595
1403636597613555456,50.012589,362.54417413465467,6.153672874999999,-1.5200307499999999,-7.50208725,0.5012585611727715,0.19687313962496036,-0.023736477827122883
1403636597663555584,50.001859,356.7610706554339,6.341633666666666,-1.3075533333333333,-7.5511205,0.4642575810304917,0.20106192982974677,-0.047472955654245766
1403636597713555456,49.864293,321.17978239629036,6.513250041666667,-1.0950759166666666,-7.493915041666666,0.4328416544945937,0.20315632493213995,-0.04049163864626844
1403636597763555584,53.77531,311.8357688781007,6.774760708333333,-0.7600153749999999,-7.436709583333332,0.3246312408709453,0.1884955592153876,-0.056548667764616284
1403636597813555456,46.345234,319.8103963731833,6.7502440833333335,-0.3105439166666667,-7.183371125,0.25970499269675623,0.17941984710501704,-0.039793506945470715
1403636597863555584,60.730457,345.7785576715561,7.1098212499999995,0.032688833333333334,-6.586799916666666,0.15009831567151233,0.05375614096142535,-0.10681415022205297
1403636597913555456,50.288439,367.748118012678,7.461226208333334,0.22882183333333334,-6.357978083333332,0.048869219055841226,-0.01884955592153876,-0.10262536001726656
1403636597963555584,50.040007,370.07740469072235,7.591981541666666,0.122583125,-5.875817791666666,0.07120943348136866,-0.09983283321407566,-0.039793506945470715
1403636598013555456,38.882971,333.57075809697307,7.591981541666666,0.122583125,-5.875817791666666,0.07120943348136866,-0.09983283321407566,-0.039793506945470715
1403636598063555584,50.073385,317.71725962131393,7.444881791666666,0.35957716666666667,-5.712373625,-0.013264502315156905,-0.14521139376592823,0.09075712110370514
1403636598113555456,49.85547,270.30458114010776,7.878008833333333,0.4739880833333333,-5.4998962083333325,0.03420845333908886,-0.2436479635784084,0.09005898940290741
1403636598163555584,60.699225,243.13350090358801,8.106830666666665,0.4004382083333333,-4.837947333333333,-0.07400196028455958,-0.374896723328382,0.10821041362364843
1403636598213555456,50.31085,221.2567847717894,8.164036124999999,0.6292600416666666,-4.543747833333333,-0.1291543646475804,-0.3609340893124273,0.02024581932313422
1403636598263555584,39.03532,226.6635407961228,8.164036124999999,0.6292600416666666,-4.543747833333333,-0.1291543646475804,-0.3609340893124273,0.02024581932313422
1403636598313555456,71.746111,274.6141319439225,8.5317855,0.43312704166666666,-4.478370166666666,-0.19617500792416265,-0.13683381335635544,0.02722713633111154
1403636598363555584,42.971373,367.3427858071734,8.817812791666666,0.5066769166666666,-4.682675375,-0.1668534764906579,-0.039793506945470715,0.09215338450530061
1403636598413555456,46.146154,454.01542977957007,8.768779541666666,0.465815875,-4.6009532916666664,-0.08936085770210968,0.048869219055841226,0.024434609527920613
1403636598463555584,49.500943,522.590927490116,9.210078791666666,0.122583125,-5.066769166666667,0.0020943951023931952,0.16755160819145562,0.05585053606381855
1403636598513555456,43.201446,556.5070761802992,9.210078791666666,0.122583125,-5.066769166666667,0.0020943951023931952,0.16755160819145562,0.05585053606381855
1403636598563555584,46.839714,393.3212741098768,8.311135875,0.23699404166666665,-4.927841624999999,0.09564404300928926,0.2701769682087222,0.032114058236695664
1403636598613555456,49.716473,325.1334613919664,8.5317855,-0.06537766666666667,-5.352796458333333,0.13892820845874865,0.325329372571743,0.04537856055185257
1403636598663555584,53.675651,286.94591473454074,7.714564666666666,0.08989429166666667,-5.107630208333333,0.1731366617978375,0.37070793312359557,0.02722713633111154
1403636598713555456,46.278715,285.7327042843932,7.6491869999999995,-0.4985047083333333,-5.426346333333333,0.26878070480712674,0.42027528388023455,0.06841690667817772
1403636598763555584,60.556651,270.2424648447125,7.60015375,-0.20430520833333332,-5.483551791666667,0.22479840765686968,0.4879940588576146,0.08866272600131193
1403636598813555456,49.752712,293.2348199552151,7.461226208333334,-0.44129925,-5.2710743749999995,0.10402162341886204,0.5249950389998943,0.11519173063162574
1403636598863555584,39.525032,284.0942667915771,7.461226208333334,-0.44129925,-5.2710743749999995,0.10402162341886204,0.5249950389998943,0.11519173063162574
1403636598913555456,50.242185,343.32529097151485,8.123175083333333,-0.17978858333333333,-5.238385541666666,0.04258603374866164,0.4293509959906051,0.08168140899333462
1403636598963555584,49.975157,365.4356777120744,8.025108583333333,-0.93163175,-5.4998962083333325,-0.032812189937493394,0.3804817769347638,0.05305800926062762
1403636599013555456,49.774647,419.1328639879253,9.185562166666665,-0.5066769166666666,-5.303763208333334,0.02652900463031381,0.3050835532486088,-0.041189770347066175
1403636599063555584,50.306559,354.923517676728,8.956740333333332,-0.8253930416666666,-5.516240625,0.1319468914507713,0.403520123061089,0.23806290997202653
1403636599113555456,53.071499,303.76073126987905,9.504278291666665,-0.5883989999999999,-5.009563708333333,0.1514945790731078,0.45937065912490754,0.09983283321407566
1403636599163555584,46.813249,233.82334217075947,9.447072833333333,-0.269682875,-4.519231208333333,0.13823007675795088,0.5696754678509492,0.10332349171806432
1403636599213555456,49.870253,200.04458639620464,9.340834124999999,-0.6292600416666666,-3.87362675,-0.039095375244672985,0.6897541203881591,0.04677482395344803
1403636599263555584,61.008215,226.9869227081494,9.177389958333332,-0.45764366666666667,-3.342433208333333,-0.029321531433504733,0.5326744877086693,0.13753194505715316
1403636599313555456,38.008928,264.82422136980534,9.177389958333332,-0.45764366666666667,-3.342433208333333,-0.029321531433504733,0.5326744877086693,0.13753194505715316
1403636599363555584,50.90332,432.70267836642535,9.005773583333333,-0.44129925,-3.211677875,-0.08517206749732328,0.3469714552964727,0.04677482395344803
1403636599413555456,60.609818,519.5070992632527,9.471589458333332,-0.5557101666666666,-3.18716125,-0.18360863730980345,0.05515240436302082,0.028623399732707
1403636599463555584,49.751758,480.24034016924,9.349006333333334,-0.122583125,-3.2035056666666666,-0.18779742751458986,-0.07400196028455958,0.17174039839624203
1403636599513555456,39.056301,403.78639350902995,9.349006333333334,-0.122583125,-3.2035056666666666,-0.18779742751458986,-0.07400196028455958,0.17174039839624203
1403636599563555584,60.958386,412.8304202680509,9.381695166666667,-0.15527195833333335,-3.18716125,-0.08656833089891874,-0.11379546723003027,0.12007865253720987
1403636599613555456,39.252996,412.30244176279496,9.381695166666667,-0.15527195833333335,-3.18716125,-0.08656833089891874,-0.11379546723003027,0.12007865253720987
1403636599663555584,50.443888,441.80253195354373,9.1201845,-0.48216029166666663,-3.6039438749999997,-0.08028514559173915,-0.06073745796940267,0.06771877497737998
1403636599713555456,49.966097,213.93367879820454,16.589582916666664,0.2778550833333333,-6.464216791666666,0.02234021442552742,0.2303834612632515,0.2590068609959585
1403636599763555584,49.657583,283.84883685945744,10.370532375,-1.2503478749999999,-2.631451083333333,0.0307177948351002,0.4705407663376713,0.0439822971502571
1403636599813555456,50.443649,286.8470716265856,9.675894666666666,-0.5148491249999999,-2.476179125,-0.028623399732707,0.36233035271402286,0.08028514559173915
1403636599863555584,59.617043,480.7781277774819,9.863855458333333,-0.6456044583333332,-1.871435708333333,-0.01815142422074103,0.0747000919853573,0.15498523757709648
1403636599913555456,40.411234,554.3803558847799,9.863855458333333,-0.6456044583333332,-1.871435708333333,-0.01815142422074103,0.0747000919853573,0.15498523757709648
1403636599963555584,49.958706,542.9173089357307,9.210078791666666,-0.392266,-2.574245625,-0.050963614158234416,-0.07120943348136866,0.13055062804917586
1403636600013555456,50.06051,599.7734979585748,8.703401874999999,-0.057205458333333334,-2.705000958333333,-0.010471975511965976,-0.016057029118347832,0.12636183784438945
1403636600063555584,50.058365,573.3407488680882,9.210078791666666,-0.40861041666666664,-2.459834708333333,0.046076692252650306,0.0614355896702004,0.2115339053417127
1403636600113555456,47.590733,605.2497718337867,6.733899666666666,-0.21247741666666667,-1.4056198333333334,0.02722713633111154,0.13124875974997358,0.2673844414055313
1403636600163555584,50.414562,626.3275233840001,8.687057458333333,-1.4709975,-2.0021910416666664,-0.016057029118347832,0.0991347015132779,0.08028514559173915
1403636600213555456,50.014496,639.3751915448433,9.087495666666666,-0.3350605416666666,-2.459834708333333,0.03490658503988659,0.056548667764616284,0.1494001839707146
1403636600263555584,49.40033,643.0924187081391,9.659550249999999,-0.5066769166666666,-2.8194118749999997,0.014660765716752367,0.02234021442552742,0.09075712110370514
1403636600313555456,50.449848,640.5432707296096,9.398039583333333,-0.4903325,-2.459834708333333,0.0013962634015954637,0.013264502315156905,0.09075712110370514
1403636600363555584,62.081814,635.5850970206319,9.46341725,-0.269682875,-2.6477955,0.004886921905584123,0.017453292519943295,0.08098327729253688
1403636600413555456,37.840128,644.4471793582645,9.46341725,-0.269682875,-2.6477955,0.004886921905584123,0.017453292519943295,0.08098327729253688
1403636600463555584,49.636125,645.0360555190776,9.545139333333333,-0.14709974999999997,-2.5415567916666664,0.01815142422074103,0.01117010721276371,0.1096066770252439
1403636600513555456,62.753916,639.4736627119592,9.937405333333334,-0.3840937916666667,-2.8357562916666668,-0.016755160819145562,0.02583087292951608,0.047472955654245766
1403636600563555584,36.89003,635.7092298658218,9.937405333333334,-0.3840937916666667,-2.8357562916666668,-0.016755160819145562,0.02583087292951608,0.047472955654245766
1403636600613555456,51.766634,637.9074354469567,9.814822208333332,-0.5720545833333333,-2.852100708333333,0.027925268031909273,0.028623399732707,0.12217304763960307
1403636600663555584,58.201551,637.4237542361425,9.144701125,-0.17161637500000002,-2.40262925,-0.008377580409572781,0.010471975511965976,0.04677482395344803
1403636600713555456,39.357424,640.9540628884121,9.528794916666666,-0.6701210833333332,-2.6396232916666666,0.019547687622336492,0.0,0.11868238913561441
1403636600763555584,49.825907,640.0238588416693,9.7085835,-0.14709974999999997,-2.7131731666666665,-0.0013962634015954637,0.032812189937493394,0.06841690667817772
1403636600813555456,50.802469,646.1945871433257,9.177389958333332,-0.7028099166666667,-2.5088679583333335,0.0027925268031909274,0.019547687622336492,0.08517206749732328
1403636600863555584,50.263882,642.9933418653533,9.398039583333333,-0.2778550833333333,-2.4680069166666665,-0.006981317007977318,0.013264502315156905,0.06841690667817772
1403636600913555456,49.619913,646.4423952470124,9.389867375,-0.7109821249999999,-2.6886565416666666,-0.0020943951023931952,0.024434609527920613,0.08726646259971647
1403636600963555584,61.562538,644.1762213389577,9.406211791666665,-0.7927042083333332,-2.5660734166666663,-0.003490658503988659,0.012566370614359173,0.06771877497737998
1403636601013555456,46.193361,647.1653261697677,9.406211791666665,-0.7927042083333332,-2.5660734166666663,-0.003490658503988659,0.012566370614359173,0.06771877497737998
1403636601063555584,42.207957,645.6689253695521,9.455245041666666,-0.3840937916666667,-2.6151066666666667,-0.003490658503988659,0.01884955592153876,0.0879645943005142
1403636601113555456,50.299406,647.3219609081799,9.389867375,-0.661948875,-2.6151066666666667,-0.009075712110370514,0.02024581932313422,0.06841690667817772
1403636601163555584,50.006151,644.7754352680599,9.406211791666665,-0.35957716666666667,-2.6151066666666667,-0.0006981317007977319,0.024434609527920613,0.09145525280450287
1403636601213555456,57.218075,648.1278188374439,9.357178541666666,-0.6456044583333332,-2.5252123749999997,-0.00767944870877505,0.021642082724729686,0.06632251157578452
1403636601263555584,53.921461,647.1112577408137,9.324489708333333,-0.5802267916666666,-2.5252123749999997,-0.009075712110370514,0.021642082724729686,0.06283185307179587
1403636601313555456,39.286136,647.8730740336337,9.324489708333333,-0.5802267916666666,-2.5252123749999997,-0.009075712110370514,0.021642082724729686,0.06283185307179587
1403636601363555584,50.305844,646.053478360667,9.536967125,-0.5230213333333333,-2.606934458333333,0.0,0.021642082724729686,0.10332349171806432
1403636601413555456,60.129642,646.415717462068,9.308145291666667,-0.5557101666666666,-2.549729,-0.006981317007977318,0.025132741228718346,0.06213372137099814
1403636601463555584,39.1891,646.1873849659072,9.438900625,-0.44129925,-2.549729,0.0006981317007977319,0.020943951023931952,0.09564404300928926
1403636601513555456,50.279618,644.9033335587652,9.553311541666666,-0.5720545833333333,-2.680484333333333,-0.006283185307179587,0.02234021442552742,0.06841690667817772
1403636601563555584,60.543298,645.6622667112283,9.357178541666666,-0.5311935416666667,-2.5088679583333335,0.004886921905584123,0.023038346126325153,0.10053096491487339
1403636601613555456,39.236308,646.7195873485492,9.299973083333333,-0.416782625,-2.476179125,-0.006981317007977318,0.016755160819145562,0.06632251157578452
1403636601663555584,58.534383,645.1666465044343,9.414383999999998,-0.563882375,-2.705000958333333,-0.0020943951023931952,0.03420845333908886,0.08936085770210968
1403636601713555456,41.567803,644.3012121051456,9.332661916666666,-0.4739880833333333,-2.459834708333333,-0.0006981317007977319,0.023736477827122883,0.07609635538695278
1403636601763555584,50.30179,645.2917818103821,9.373522958333332,-0.6047434166666666,-2.680484333333333,-0.0027925268031909274,0.021642082724729686,0.08098327729253688
1403636601813555456,49.595356,646.0217292920263,9.471589458333332,-0.45764366666666667,-2.4843513333333336,-0.0020943951023931952,0.024434609527920613,0.08307767239493008
1403636601863555584,50.023317,646.8871149051884,9.438900625,-0.5475379583333333,-2.655967708333333,-0.0041887902047863905,0.020943951023931952,0.07819075048934597
1403636601913555456,57.887316,646.2981760603934,9.438900625,-0.45764366666666667,-2.5333845833333335,-0.006283185307179587,0.017453292519943295,0.07888888219014369
1403636601963555584,41.847468,645.1818637512998,9.430728416666666,-0.5720545833333333,-2.6477955,0.0006981317007977319,0.0153588974175501,0.07958701389094143
1403636602013555456,60.51898,644.6045463316485,9.357178541666666,-0.5720545833333333,-2.435318083333333,-0.0041887902047863905,0.014660765716752367,0.07958701389094143
1403636602063555584,46.687126,645.2931439143515,9.357178541666666,-0.5720545833333333,-2.435318083333333,-0.0041887902047863905,0.014660765716752367,0.07958701389094143
1403636602113555456,42.627573,646.1450543024697,9.414383999999998,-0.3840937916666667,-2.6151066666666667,-0.005585053606381855,0.02024581932313422,0.08028514559173915
1403636602163555584,60.985803,645.3015810670166,9.357178541666666,-0.5965712083333333,-2.5333845833333335,-0.0006981317007977319,0.023038346126325153,0.09145525280450287
1403636602213555456,46.486378,645.9392573970566,9.308145291666667,-0.4004382083333333,-2.655967708333333,-0.0013962634015954637,0.023038346126325153,0.08237954069413235
1403636602263555584,42.367697,645.1407008088432,9.46341725,-0.6782932916666666,-2.5006957499999998,-0.003490658503988659,0.016755160819145562,0.06702064327658225
1403636602313555456,50.233125,645.9817989065505,9.389867375,-0.5066769166666666,-2.623278875,0.0,0.0153588974175501,0.0942477796076938
1403636602363555584,49.657107,646.1289143504133,9.430728416666666,-0.5557101666666666,-2.5006957499999998,-0.009075712110370514,0.02234021442552742,0.06981317007977318
1403636602413555456,50.024986,646.5180372964007,9.414383999999998,-0.48216029166666663,-2.631451083333333,0.0006981317007977319,0.016057029118347832,0.09145525280450287
1403636602463555584,60.103178,645.7016210500865,9.406211791666665,-0.53936575,-2.582417833333333,-0.003490658503988659,0.016057029118347832,0.08307767239493008
1403636602513555456,40.019989,647.2818103688318,9.406211791666665,-0.53936575,-2.582417833333333,-0.003490658503988659,0.016057029118347832,0.08307767239493008
1403636602563555584,50.145388,646.4357787536327,9.373522958333332,-0.5311935416666667,-2.5170401666666664,-0.0020943951023931952,0.02234021442552742,0.08098327729253688
1403636602613555456,60.03356,647.1498015115906,9.430728416666666,-0.5311935416666667,-2.574245625,-0.006283185307179587,0.021642082724729686,0.07958701389094143
1403636602663555584,39.648056,646.6222898084345,9.430728416666666,-0.5311935416666667,-2.574245625,-0.006283185307179587,0.021642082724729686,0.07958701389094143
1403636602713555456,50.343275,647.1956330408775,9.479761666666667,-0.5557101666666666,-2.606934458333333,0.0,0.019547687622336492,0.08866272600131193
1403636602763555584,49.574852,646.6404065359543,9.406211791666665,-0.4739880833333333,-2.606934458333333,-0.011868238913561441,0.0153588974175501,0.07539822368615504
1403636602813555456,49.985885,646.9083665534233,9.422556208333333,-0.5230213333333333,-2.5006957499999998,0.0,0.01815142422074103,0.08028514559173915
1403636602863555584,50.236464,647.5051093574333,9.414383999999998,-0.4494714583333333,-2.582417833333333,-0.0041887902047863905,0.019547687622336492,0.0767944870877505
1403636602913555456,61.421394,646.8840862310129,9.414383999999998,-0.4903325,-2.549729,-0.0027925268031909274,0.023038346126325153,0.07539822368615504
1403636602963555584,48.9254,646.8840603418648,9.438900625,-0.6047434166666666,-2.549729,-0.004886921905584123,0.02024581932313422,0.08168140899333462
1403636603013555456,47.16897,647.3584654840021,9.438900625,-0.6047434166666666,-2.549729,-0.004886921905584123,0.02024581932313422,0.08168140899333462
1403636603063555584,42.748213,648.0829519471115,9.430728416666666,-0.43312704166666666,-2.631451083333333,-0.0013962634015954637,0.021642082724729686,0.07819075048934597
1403636603113555456,49.880505,646.7008756337268,9.373522958333332,-0.5475379583333333,-2.574245625,-0.006283185307179587,0.021642082724729686,0.07609635538695278
1403636603163555584,57.489395,646.3193832116937,9.389867375,-0.5066769166666666,-2.5905900416666663,-0.003490658503988659,0.012566370614359173,0.08237954069413235
1403636603213555456,42.14406,647.7034156247786,9.414383999999998,-0.563882375,-2.5252123749999997,-0.0027925268031909274,0.019547687622336492,0.08168140899333462
1403636603263555584,57.75404,647.4674920610934,9.422556208333333,-0.5230213333333333,-2.606934458333333,-0.0013962634015954637,0.02234021442552742,0.08307767239493008
1403636603313555456,42.405605,647.412846515188,9.381695166666667,-0.5475379583333333,-2.549729,-0.006981317007977318,0.02234021442552742,0.07819075048934597
1403636603363555584,50.433636,646.360193502874,9.496106083333332,-0.5230213333333333,-2.582417833333333,-0.0041887902047863905,0.025132741228718346,0.08377580409572781
1403636603413555456,56.91123,647.4191263357551,9.414383999999998,-0.5720545833333333,-2.59876225,-0.0041887902047863905,0.02024581932313422,0.07330382858376185
1403636603463555584,50.207376,647.901343285395,9.479761666666667,-0.5148491249999999,-2.6396232916666666,-0.0041887902047863905,0.020943951023931952,0.08098327729253688
1403636603513555456,42.442084,648.3431887700569,9.430728416666666,-0.4985047083333333,-2.5660734166666663,-0.004886921905584123,0.019547687622336492,0.07958701389094143
1403636603563555584,49.850225,647.8443036009248,9.430728416666666,-0.5311935416666667,-2.606934458333333,-0.0006981317007977319,0.01884955592153876,0.08307767239493008
1403636603613555456,57.628632,648.3576150061787,9.455245041666666,-0.5148491249999999,-2.606934458333333,-0.0013962634015954637,0.02024581932313422,0.0767944870877505
1403636603663555584,42.773008,648.5740043222692,9.357178541666666,-0.563882375,-2.582417833333333,-0.0027925268031909274,0.02024581932313422,0.08168140899333462
1403636603713555456,57.231426,648.3018455992047,9.479761666666667,-0.5475379583333333,-2.5905900416666663,-0.0027925268031909274,0.019547687622336492,0.07539822368615504
1403636603763555584,42.372942,647.1069555674808,9.242767624999999,-0.5883989999999999,-2.4434902916666665,-0.0020943951023931952,0.0153588974175501,0.08237954069413235
1403636603813555456,49.684525,646.5047895026372,9.381695166666667,-0.563882375,-2.574245625,-0.0027925268031909274,0.006283185307179587,0.07609635538695278
1403636603863555584,50.714492,646.915242894617,9.414383999999998,-0.5883989999999999,-2.623278875,-0.005585053606381855,0.02722713633111154,0.08028514559173915
1403636603913555456,57.51896,647.8217553874799,9.487933875,-0.4004382083333333,-2.4516625,-0.0013962634015954637,0.011868238913561441,0.08517206749732328
1403636603963555584,42.278289,646.0147232555237,9.357178541666666,-0.6047434166666666,-2.7213453750000003,-0.0013962634015954637,0.013962634015954637,0.07400196028455958
1403636604013555456,49.980164,647.1636109646097,9.479761666666667,-0.43312704166666666,-2.4925235416666665,-0.0020943951023931952,0.02722713633111154,0.08168140899333462
1403636604063555584,50.147772,644.8140258628731,9.259112041666667,-0.5475379583333333,-2.557901208333333,-0.0041887902047863905,0.013264502315156905,0.0767944870877505
1403636604113555456,59.194803,645.6421814164398,9.496106083333332,-0.5475379583333333,-2.557901208333333,-0.0041887902047863905,0.020943951023931952,0.06702064327658225
1403636604163555584,47.910452,644.531764043291,9.496106083333332,-0.5475379583333333,-2.557901208333333,-0.0041887902047863905,0.020943951023931952,0.06702064327658225
1403636604213555456,49.839973,645.6840221202675,9.438900625,-0.5066769166666666,-2.582417833333333,-0.0006981317007977319,0.01884955592153876,0.09005898940290741
1403636604263555584,42.968273,644.9224437639061,9.340834124999999,-0.45764366666666667,-2.574245625,-0.005585053606381855,0.01884955592153876,0.07051130178057091
1403636604313555456,56.37312,645.978029556347,9.389867375,-0.53936575,-2.606934458333333,-0.003490658503988659,0.01884955592153876,0.08587019919812101
1403636604363555584,43.461323,645.2598010343859,9.389867375,-0.5230213333333333,-2.5333845833333335,-0.009075712110370514,0.02234021442552742,0.07330382858376185
1403636604413555456,49.451351,645.6055902098688,9.422556208333333,-0.53936575,-2.582417833333333,0.0013962634015954637,0.016755160819145562,0.08587019919812101
1403636604463555584,57.684898,644.5654520789998,9.373522958333332,-0.563882375,-2.5252123749999997,-0.004886921905584123,0.020943951023931952,0.07958701389094143
1403636604513555456,49.339771,644.440172924623,9.471589458333332,-0.5720545833333333,-2.655967708333333,-0.0020943951023931952,0.01884955592153876,0.08377580409572781
1403636604563555584,53.771496,644.3643649630385,9.479761666666667,-0.5148491249999999,-2.59876225,-0.003490658503988659,0.01884955592153876,0.08098327729253688
1403636604613555456,39.871693,644.7173402133016,9.479761666666667,-0.5148491249999999,-2.59876225,-0.003490658503988659,0.01884955592153876,0.08098327729253688
1403636604663555584,49.974203,644.3691784113215,9.349006333333334,-0.48216029166666663,-2.549729,-0.0041887902047863905,0.016755160819145562,0.08028514559173915
1403636604713555456,49.765587,644.8044713375438,9.381695166666667,-0.5557101666666666,-2.6151066666666667,-0.003490658503988659,0.017453292519943295,0.07749261878854824
1403636604763555584,50.274372,644.1043239039175,9.422556208333333,-0.53936575,-2.59876225,-0.0020943951023931952,0.021642082724729686,0.07609635538695278
1403636604813555456,57.40118,645.0813377917702,9.414383999999998,-0.5965712083333333,-2.574245625,-0.0006981317007977319,0.024434609527920613,0.08168140899333462
1403636604863555584,53.574324,643.6379015002237,9.389867375,-0.5066769166666666,-2.606934458333333,-0.0041887902047863905,0.0153588974175501,0.07819075048934597
1403636604913555456,38.919687,644.1418664885337,9.389867375,-0.5066769166666666,-2.606934458333333,-0.0041887902047863905,0.0153588974175501,0.07819075048934597
1403636604963555584,57.340861,644.5451388515496,9.430728416666666,-0.48216029166666663,-2.6151066666666667,-0.0020943951023931952,0.019547687622336492,0.07609635538695278
1403636605013555456,49.426555,643.0539667082297,9.373522958333332,-0.4985047083333333,-2.5905900416666663,-0.0027925268031909274,0.024434609527920613,0.08028514559173915
1403636605063555584,50.302029,643.9009284525688,9.414383999999998,-0.48216029166666663,-2.5252123749999997,-0.0027925268031909274,0.02024581932313422,0.08377580409572781
1403636605113555456,42.938947,643.5980611290544,9.406211791666665,-0.6047434166666666,-2.606934458333333,-0.0027925268031909274,0.02234021442552742,0.07888888219014369
1403636605163555584,62.935591,644.2453807085755,9.46341725,-0.5802267916666666,-2.5905900416666663,-0.0041887902047863905,0.016057029118347832,0.08517206749732328
1403636605213555456,37.598133,642.4261253309428,9.46341725,-0.5802267916666666,-2.5905900416666663,-0.0041887902047863905,0.016057029118347832,0.08517206749732328
1403636605263555584,57.082177,643.2148099747884,9.520622708333333,-0.4494714583333333,-2.631451083333333,0.0,0.0153588974175501,0.08377580409572781
1403636605313555456,42.45305,642.804482407254,9.26728425,-0.5311935416666667,-2.557901208333333,-0.0041887902047863905,0.024434609527920613,0.0747000919853573
1403636605363555584,57.163954,644.2739064754318,9.471589458333332,-0.5148491249999999,-2.5905900416666663,-0.0013962634015954637,0.023038346126325153,0.08168140899333462
1403636605413555456,50.127983,643.8741147405185,9.414383999999998,-0.563882375,-2.5660734166666663,-0.0020943951023931952,0.023736477827122883,0.0747000919853573
1403636605463555584,53.87187,643.714579291577,9.520622708333333,-0.4494714583333333,-2.606934458333333,-0.0020943951023931952,0.020943951023931952,0.07819075048934597
1403636605513555456,38.665533,643.9428334761186,9.520622708333333,-0.4494714583333333,-2.606934458333333,-0.0020943951023931952,0.020943951023931952,0.07819075048934597
1403636605563555584,49.958468,643.9949148040504,9.398039583333333,-0.5311935416666667,-2.574245625,-0.003490658503988659,0.01884955592153876,0.08377580409572781
1403636605613555456,50.166845,643.7767113034637,9.455245041666666,-0.5475379583333333,-2.5905900416666663,-0.004886921905584123,0.02024581932313422,0.0767944870877505
1403636605663555584,57.497501,642.9890969617612,9.414383999999998,-0.4903325,-2.5415567916666664,-0.0013962634015954637,0.020943951023931952,0.08168140899333462
1403636605713555456,41.973591,631.0734537966415,9.357178541666666,-0.5066769166666666,-2.5660734166666663,-0.004886921905584123,0.025132741228718346,0.0747000919853573
1403636605763555584,50.338745,630.5202022791758,9.520622708333333,-0.5475379583333333,-2.6396232916666666,-0.0013962634015954637,0.023736477827122883,0.08307767239493008
1403636605813555456,50.31085,630.799772179502,9.349006333333334,-0.5311935416666667,-2.5252123749999997,-0.005585053606381855,0.024434609527920613,0.07958701389094143
1403636605863555584,49.718619,630.630856471793,9.545139333333333,-0.5883989999999999,-2.623278875,-0.006283185307179587,0.01884955592153876,0.08237954069413235
1403636605913555456,50.308466,631.071789334337,9.504278291666665,-0.4985047083333333,-2.557901208333333,-0.0013962634015954637,0.021642082724729686,0.08237954069413235
1403636605963555584,49.762487,630.8576903215535,9.357178541666666,-0.53936575,-2.557901208333333,-0.0020943951023931952,0.019547687622336492,0.08377580409572781
1403636606013555456,50.921202,631.9333041801049,9.389867375,-0.5475379583333333,-2.582417833333333,-0.004886921905584123,0.02024581932313422,0.07539822368615504
1403636606063555584,49.206734,632.0651290883885,9.357178541666666,-0.5557101666666666,-2.5660734166666663,-0.003490658503988659,0.023736477827122883,0.08307767239493008
1403636606113555456,51.013231,631.429999754613,9.447072833333333,-0.4985047083333333,-2.631451083333333,-0.005585053606381855,0.023736477827122883,0.07260569688296412
1403636606163555584,50.030947,631.1375629379268,9.422556208333333,-0.6047434166666666,-2.5660734166666663,-0.0027925268031909274,0.02234021442552742,0.08168140899333462
1403636606213555456,50.05908,631.697555441687,9.455245041666666,-0.4739880833333333,-2.606934458333333,-0.0006981317007977319,0.02234021442552742,0.07749261878854824
1403636606263555584,49.325227,630.664798553215,9.455245041666666,-0.5311935416666667,-2.5905900416666663,-0.005585053606381855,0.02024581932313422,0.07819075048934597
1403636606313555456,50.219536,631.7654580839675,9.406211791666665,-0.5311935416666667,-2.574245625,-0.006283185307179587,0.020943951023931952,0.07958701389094143
1403636606363555584,62.800408,630.2166995329285,9.398039583333333,-0.5557101666666666,-2.582417833333333,-0.0020943951023931952,0.023736477827122883,0.07539822368615504
1403636606413555456,46.655178,631.0028390277669,9.398039583333333,-0.5557101666666666,-2.582417833333333,-0.0020943951023931952,0.023736477827122883,0.07539822368615504
1403636606463555584,43.924093,631.7615084625347,9.422556208333333,-0.5230213333333333,-2.549729,-0.0013962634015954637,0.02024581932313422,0.08028514559173915
1403636606513555456,49.408197,630.7024107248861,9.430728416666666,-0.5148491249999999,-2.549729,-0.004886921905584123,0.02234021442552742,0.08098327729253688
1403636606563555584,50.16613,630.9202563507802,9.406211791666665,-0.5311935416666667,-2.557901208333333,-0.00767944870877505,0.023038346126325153,0.08307767239493008
1403636606613555456,49.993992,631.3813882886302,9.447072833333333,-0.563882375,-2.5905900416666663,-0.0027925268031909274,0.02024581932313422,0.07888888219014369
1403636606663555584,49.705983,630.7717408852985,9.422556208333333,-0.5148491249999999,-2.549729,-0.003490658503988659,0.01884955592153876,0.08168140899333462
1403636606713555456,50.632238,630.8181892452275,9.504278291666665,-0.5475379583333333,-2.6151066666666667,-0.0041887902047863905,0.01815142422074103,0.0767944870877505
1403636606763555584,51.714897,630.3422650531159,9.389867375,-0.5148491249999999,-2.606934458333333,-0.004886921905584123,0.016755160819145562,0.08168140899333462
1403636606813555456,47.887087,631.5863881817698,9.520622708333333,-0.5475379583333333,-2.623278875,0.0006981317007977319,0.017453292519943295,0.07749261878854824
1403636606863555584,49.761772,631.4892573900339,9.357178541666666,-0.5475379583333333,-2.5252123749999997,0.0,0.014660765716752367,0.07888888219014369
1403636606913555456,52.88291,630.8807047943259,9.389867375,-0.4739880833333333,-2.582417833333333,-0.005585053606381855,0.01815142422074103,0.08028514559173915
1403636606963555584,47.313928,631.117087956422,9.357178541666666,-0.53936575,-2.5415567916666664,-0.0020943951023931952,0.01884955592153876,0.08098327729253688
1403636607013555456,49.907446,631.0360608264436,9.324489708333333,-0.45764366666666667,-2.557901208333333,-0.003490658503988659,0.02652900463031381,0.07958701389094143
1403636607063555584,50.061942,630.4245484158268,9.398039583333333,-0.48216029166666663,-2.582417833333333,0.0006981317007977319,0.017453292519943295,0.08028514559173915
1403636607113555456,60.884475,631.1754463011141,9.447072833333333,-0.5148491249999999,-2.606934458333333,-0.0020943951023931952,0.02722713633111154,0.08098327729253688
1403636607163555584,38.968086,631.069479702685,9.447072833333333,-0.5148491249999999,-2.606934458333333,-0.0020943951023931952,0.02722713633111154,0.08098327729253688
1403636607213555456,49.782992,630.5774230441189,9.430728416666666,-0.4985047083333333,-2.5415567916666664,0.0,0.019547687622336492,0.07888888219014369
1403636607263555584,49.943209,629.553388507191,9.36535075,-0.53936575,-2.557901208333333,-0.0020943951023931952,0.021642082724729686,0.07888888219014369
1403636607313555456,60.582161,631.0719366896167,9.381695166666667,-0.5148491249999999,-2.574245625,-0.0020943951023931952,0.021642082724729686,0.07888888219014369
1403636607363555584,41.246175,630.4896467477278,9.381695166666667,-0.5148491249999999,-2.574245625,-0.0020943951023931952,0.021642082724729686,0.07888888219014369
1403636607413555456,58.665753,630.6918886048442,9.406211791666665,-0.4739880833333333,-2.5252123749999997,-0.0013962634015954637,0.02234021442552742,0.08237954069413235
1403636607463555584,39.681434,630.9617542930239,9.406211791666665,-0.4739880833333333,-2.5252123749999997,-0.0013962634015954637,0.02234021442552742,0.08237954069413235
1403636607513555456,51.362992,630.4806449914774,9.438900625,-0.465815875,-2.59876225,-0.0027925268031909274,0.02024581932313422,0.07819075048934597
1403636607563555584,54.184198,631.605259976026,9.398039583333333,-0.5148491249999999,-2.582417833333333,-0.006981317007977318,0.023038346126325153,0.08237954069413235
1403636607613555456,40.314674,631.2472539058264,9.398039583333333,-0.5148491249999999,-2.582417833333333,-0.006981317007977318,0.023038346126325153,0.08237954069413235
1403636607663555584,50.535679,630.6660009984747,9.438900625,-0.563882375,-2.59876225,-0.004886921905584123,0.01884955592153876,0.07609635538695278
1403636607713555456,50.350666,632.7329964047804,9.373522958333332,-0.5720545833333333,-2.5006957499999998,-0.003490658503988659,0.01884955592153876,0.08168140899333462
1403636607763555584,50.048352,630.6782303612747,9.455245041666666,-0.5557101666666666,-2.549729,-0.0013962634015954637,0.02234021442552742,0.07609635538695278
1403636607813555456,49.932718,631.4880658604533,9.455245041666666,-0.563882375,-2.623278875,-0.0027925268031909274,0.021642082724729686,0.0767944870877505
1403636607863555584,50.205707,631.6851546205461,9.455245041666666,-0.5230213333333333,-2.5905900416666663,-0.005585053606381855,0.019547687622336492,0.08098327729253688
1403636607913555456,57.131768,632.036297957681,9.430728416666666,-0.5148491249999999,-2.59876225,-0.005585053606381855,0.019547687622336492,0.07958701389094143
1403636607963555584,42.467355,630.3691387700837,9.414383999999998,-0.5557101666666666,-2.557901208333333,-0.004886921905584123,0.017453292519943295,0.07260569688296412
1403636608013555456,50.279379,630.7853867150166,9.520622708333333,-0.5557101666666666,-2.606934458333333,-0.0020943951023931952,0.021642082724729686,0.08517206749732328
1403636608063555584,49.370051,629.8854065988282,9.389867375,-0.53936575,-2.582417833333333,-0.0041887902047863905,0.02024581932313422,0.07888888219014369
1403636608113555456,50.363302,631.5836279574097,9.398039583333333,-0.53936575,-2.606934458333333,-0.005585053606381855,0.019547687622336492,0.07819075048934597
1403636608163555584,62.106848,630.8758150339,9.438900625,-0.4903325,-2.5905900416666663,-0.0013962634015954637,0.023038346126325153,0.08237954069413235
1403636608213555456,37.859201,631.5882049192988,9.438900625,-0.4903325,-2.5905900416666663,-0.0013962634015954637,0.023038346126325153,0.08237954069413235
1403636608263555584,50.130606,631.5871290246837,9.406211791666665,-0.5557101666666666,-2.574245625,-0.0006981317007977319,0.021642082724729686,0.07609635538695278
1403636608313555456,59.75008,630.6577279927876,9.36535075,-0.5148491249999999,-2.557901208333333,-0.0020943951023931952,0.020943951023931952,0.08028514559173915
1403636608363555584,40.251017,631.2090435669135,9.36535075,-0.5148491249999999,-2.557901208333333,-0.0020943951023931952,0.020943951023931952,0.08028514559173915
1403636608413555456,49.796819,631.1049032057823,9.438900625,-0.5720545833333333,-2.606934458333333,-0.0013962634015954637,0.021642082724729686,0.08237954069413235
1403636608463555584,60.271263,629.8485692751511,9.381695166666667,-0.5311935416666667,-2.5660734166666663,-0.006283185307179587,0.01815142422074103,0.07819075048934597
1403636608513555456,39.730072,631.01546496017,9.381695166666667,-0.5311935416666667,-2.5660734166666663,-0.006283185307179587,0.01815142422074103,0.07819075048934597
1403636608563555584,50.260783,629.2256084689011,9.447072833333333,-0.4903325,-2.59876225,0.0006981317007977319,0.02024581932313422,0.07888888219014369
1403636608613555456,61.070442,630.0969384635455,9.422556208333333,-0.5148491249999999,-2.606934458333333,-0.005585053606381855,0.017453292519943295,0.08098327729253688
1403636608663555584,38.646459,630.0581914058263,9.422556208333333,-0.5148491249999999,-2.606934458333333,-0.005585053606381855,0.017453292519943295,0.08098327729253688
1403636608713555456,50.531865,630.3822464265098,9.430728416666666,-0.5148491249999999,-2.5905900416666663,-0.006283185307179587,0.016057029118347832,0.07609635538695278
1403636608763555584,49.783945,629.8952607242754,9.373522958333332,-0.48216029166666663,-2.549729,-0.0006981317007977319,0.02024581932313422,0.08237954069413235
1403636608813555456,56.704521,629.8232406014563,9.398039583333333,-0.5148491249999999,-2.549729,-0.005585053606381855,0.01884955592153876,0.07819075048934597
1403636608863555584,43.076038,629.9793202749647,9.406211791666665,-0.5230213333333333,-2.606934458333333,-0.0006981317007977319,0.021642082724729686,0.08307767239493008
1403636608913555456,49.855471,630.2610380415817,9.381695166666667,-0.4903325,-2.574245625,-0.0041887902047863905,0.023736477827122883,0.08168140899333462
1403636608963555584,50.010681,630.2929296324852,9.455245041666666,-0.5311935416666667,-2.6396232916666666,-0.0020943951023931952,0.02652900463031381,0.08377580409572781
1403636609013555456,57.3802,631.1314181943294,9.447072833333333,-0.612915625,-2.557901208333333,-0.0006981317007977319,0.01884955592153876,0.07609635538695278
1403636609063555584,43.059587,630.9263800235718,9.479761666666667,-0.5720545833333333,-2.6151066666666667,-0.0027925268031909274,0.01815142422074103,0.07609635538695278
1403636609113555456,49.700737,630.5074599825307,9.46341725,-0.48216029166666663,-2.631451083333333,-0.0041887902047863905,0.020943951023931952,0.08028514559173915
1403636609163555584,50.15707,630.9723089000648,9.455245041666666,-0.5230213333333333,-2.631451083333333,-0.0020943951023931952,0.020943951023931952,0.08307767239493008
1403636609213555456,49.437523,631.6586702979823,9.381695166666667,-0.4903325,-2.5660734166666663,-0.003490658503988659,0.019547687622336492,0.07958701389094143
1403636609263555584,57.942152,630.3331964227605,9.349006333333334,-0.5066769166666666,-2.574245625,-0.003490658503988659,0.01815142422074103,0.08307767239493008
1403636609313555456,50.174713,632.2778044441329,9.398039583333333,-0.5720545833333333,-2.574245625,-0.005585053606381855,0.023038346126325153,0.0747000919853573
1403636609363555584,42.189837,630.840469441093,9.373522958333332,-0.5720545833333333,-2.5415567916666664,-0.0020943951023931952,0.01815142422074103,0.08307767239493008
1403636609413555456,50.173044,631.4048753437445,9.373522958333332,-0.5557101666666666,-2.582417833333333,-0.006283185307179587,0.017453292519943295,0.07609635538695278
1403636609463555584,49.700975,630.3807075229635,9.430728416666666,-0.5230213333333333,-2.606934458333333,-0.003490658503988659,0.025132741228718346,0.07539822368615504
1403636609513555456,50.326586,631.0242936348886,9.349006333333334,-0.5311935416666667,-2.582417833333333,-0.004886921905584123,0.02024581932313422,0.07749261878854824
1403636609563555584,49.946308,631.0560674112087,9.479761666666667,-0.53936575,-2.582417833333333,-0.0006981317007977319,0.02652900463031381,0.08307767239493008
1403636609613555456,49.926281,631.3104953097562,9.455245041666666,-0.5066769166666666,-2.6151066666666667,-0.004886921905584123,0.020943951023931952,0.07958701389094143
1403636609663555584,50.364971,630.5603679459923,9.275456458333332,-0.5230213333333333,-2.435318083333333,-0.0020943951023931952,0.00767944870877505,0.09075712110370514
1403636609713555456,49.525738,630.42615119421,9.447072833333333,-0.6537766666666667,-2.680484333333333,0.0013962634015954637,0.010471975511965976,0.0747000919853573
1403636609763555584,50.74811,630.9173410123901,9.447072833333333,-0.5720545833333333,-2.574245625,-0.0013962634015954637,0.02652900463031381,0.07190756518216637
1403636609813555456,62.850475,630.0292861674841,9.218250999999999,-0.53936575,-2.7131731666666665,-0.0006981317007977319,0.02234021442552742,0.07400196028455958
1403636609863555584,36.423683,629.9418460263295,9.218250999999999,-0.53936575,-2.7131731666666665,-0.0006981317007977319,0.02234021442552742,0.07400196028455958
1403636609913555456,49.98684,629.0862382813482,9.447072833333333,-0.44129925,-2.5170401666666664,-0.0041887902047863905,0.0307177948351002,0.0747000919853573
1403636609963555584,50.242901,630.2216783105863,9.422556208333333,-0.5720545833333333,-2.59876225,-0.0006981317007977319,0.010471975511965976,0.08168140899333462
1403636610013555456,49.816131,631.0577043953516,9.594172583333334,-0.5311935416666667,-2.672312125,-0.003490658503988659,0.025132741228718346,0.08517206749732328
1403636610063555584,50.181627,629.6318281622332,9.414383999999998,-0.5475379583333333,-2.5333845833333335,0.0013962634015954637,0.021642082724729686,0.07749261878854824
1403636610113555456,49.599171,630.1586900901225,9.357178541666666,-0.45764366666666667,-2.59876225,-0.0013962634015954637,0.021642082724729686,0.0767944870877505
1403636610163555584,57.609081,628.7600097486708,9.414383999999998,-0.367749375,-2.6151066666666667,-0.0006981317007977319,0.023038346126325153,0.07888888219014369
1403636610213555456,50.013066,629.3145887589798,9.487933875,-0.4494714583333333,-2.574245625,0.0013962634015954637,0.020943951023931952,0.08168140899333462
1403636610263555584,42.497396,628.4184190734676,9.349006333333334,-0.5311935416666667,-2.5333845833333335,-0.009075712110370514,0.021642082724729686,0.07330382858376185
1403636610313555456,50.198794,628.7713978443959,9.5124505,-0.4903325,-2.655967708333333,-0.0041887902047863905,0.019547687622336492,0.08377580409572781
1403636610363555584,50.14944,629.6005739901622,9.479761666666667,-0.4985047083333333,-2.5088679583333335,-0.009773843811168246,0.02583087292951608,0.08168140899333462
1403636610413555456,49.822331,627.7654888731507,9.275456458333332,-0.563882375,-2.6396232916666666,0.0,0.024434609527920613,0.07888888219014369
1403636610463555584,49.856901,628.0610494311268,9.46341725,-0.5066769166666666,-2.5660734166666663,-0.005585053606381855,0.02652900463031381,0.07609635538695278
1403636610513555456,50.282002,629.3213496849222,9.528794916666666,-0.5720545833333333,-2.549729,-0.0020943951023931952,0.02722713633111154,0.08168140899333462
1403636610563555584,50.119161,629.4485684408334,9.373522958333332,-0.5965712083333333,-2.5905900416666663,-0.003490658503988659,0.01884955592153876,0.08377580409572781
1403636610613555456,49.791336,626.4975819558994,9.389867375,-0.5066769166666666,-2.557901208333333,-0.006981317007977318,0.02234021442552742,0.07958701389094143
1403636610663555584,57.195425,620.9227530018131,9.422556208333333,-0.4903325,-2.6477955,-0.0020943951023931952,0.01815142422074103,0.07958701389094143
1403636610713555456,51.945448,617.256660724573,9.340834124999999,-0.5148491249999999,-2.655967708333333,-0.0006981317007977319,0.011868238913561441,0.08098327729253688
1403636610763555584,40.623427,612.4291675272251,9.250939833333334,-0.4903325,-2.5905900416666663,0.0027925268031909274,0.004886921905584123,0.08168140899333462
1403636610813555456,50.149917,619.6725673606347,9.242767624999999,-0.5802267916666666,-2.655967708333333,-0.011868238913561441,0.025132741228718346,0.0767944870877505
1403636610863555584,59.807539,618.2563995660582,9.316317499999998,-0.7109821249999999,-2.6151066666666667,-0.009773843811168246,0.031415926535897934,0.0635299847725936
1403636610913555456,47.814608,618.4731907861953,9.316317499999998,-0.7109821249999999,-2.6151066666666667,-0.009773843811168246,0.031415926535897934,0.0635299847725936
1403636610963555584,50.18568,618.0824443799677,9.667722458333333,-0.465815875,-2.459834708333333,0.0041887902047863905,0.012566370614359173,0.10262536001726656
1403636611013555456,42.669535,619.4684872840078,9.242767624999999,-0.4903325,-2.8357562916666668,-0.009075712110370514,0.02652900463031381,0.060039326268604934
1403636611063555584,57.067394,617.1592640958576,9.602344791666665,-0.53936575,-2.40262925,0.006283185307179587,0.01815142422074103,0.09494591130849153
1403636611113555456,42.265654,631.3669207168392,9.291800875,-0.5148491249999999,-2.7867230416666664,-0.0013962634015954637,0.021642082724729686,0.07120943348136866
1403636611163555584,60.181856,629.5408516546793,9.504278291666665,-0.6210878333333334,-2.6641399166666666,0.0013962634015954637,0.020943951023931952,0.06981317007977318
1403636611213555456,47.372579,629.1387167810997,9.504278291666665,-0.6210878333333334,-2.6641399166666666,0.0013962634015954637,0.020943951023931952,0.06981317007977318
1403636611263555584,42.859078,628.6022662858459,9.414383999999998,-0.5557101666666666,-2.476179125,-0.0013962634015954637,0.02583087292951608,0.09983283321407566
1403636611313555456,60.548782,625.4108395691669,8.057797416666666,-2.214668458333333,-2.0757409166666667,0.03839724354387525,-0.041887902047863905,0.09285151620609833
1403636611363555584,46.565056,523.8096379383771,8.057797416666666,-2.214668458333333,-2.0757409166666667,0.03839724354387525,-0.041887902047863905,0.09285151620609833
1403636611413555456,50.086975,586.0848904968249,8.932223708333334,0.220649625,-2.6151066666666667,-0.0307177948351002,0.057246799465414,-0.07400196028455958
1403636611463555584,42.605639,585.054018325533,6.635833166666666,0.8499096666666667,-1.32389775,0.14590952546672595,-0.0041887902047863905,0.44331363000655966
1403636611513555456,49.857855,571.3128200024568,8.466407833333333,-0.057205458333333334,-2.2473572916666664,-0.08307767239493008,0.09215338450530061,-0.023038346126325153
1403636611563555584,50.239086,599.7875210805609,9.046634625,-0.13075533333333333,-2.132946375,-0.011868238913561441,-0.08936085770210968,0.15498523757709648
1403636611613555456,51.045894,605.5225640990408,11.024309041666667,-1.0378704583333334,-3.3015721666666664,-0.05305800926062762,-0.03560471674068433,-0.05235987755982988
1403636611663555584,52.324534,623.944621817556,8.629852,-0.8172208333333333,-2.1002575416666667,-0.0153588974175501,-0.0153588974175501,0.11868238913561441
1403636611713555456,59.794903,613.5157014724597,9.716755708333332,-0.93163175,-2.729517583333333,0.020943951023931952,0.006981317007977318,0.18151424220741028
1403636611763555584,40.008783,608.0299907663411,9.716755708333332,-0.93163175,-2.729517583333333,0.020943951023931952,0.006981317007977318,0.18151424220741028
1403636611813555456,59.616089,629.8513825646079,9.103840083333333,-0.8989429166666666,-2.754034208333333,-0.039095375244672985,0.05026548245743669,0.08098327729253688
1403636611863555584,49.820423,636.4154638559438,9.937405333333334,-0.7763597916666666,-2.190151833333333,-0.0020943951023931952,0.02024581932313422,0.09075712110370514
1403636611913555456,40.008068,625.799142141807,9.937405333333334,-0.7763597916666666,-2.190151833333333,-0.0020943951023931952,0.02024581932313422,0.09075712110370514
1403636611963555584,50.892353,585.9191612830717,8.834157208333334,-1.4873419166666666,-2.672312125,0.021642082724729686,-0.030019663134302467,0.10262536001726656
1403636612013555456,77.178717,614.3712569001178,9.545139333333333,-1.6753027083333332,-2.40262925,0.030019663134302467,0.014660765716752367,0.12566370614359174
1403636612063555584,25.878429,614.7646052157004,9.545139333333333,-1.6753027083333332,-2.40262925,0.030019663134302467,0.014660765716752367,0.12566370614359174
1403636612113555456,47.050238,635.0306730662369,9.26728425,-0.35957716666666667,-2.5252123749999997,0.032114058236695664,0.003490658503988659,0.10192722831646883
1403636612163555584,62.091589,611.5689837849336,9.765788958333333,0.35957716666666667,-2.4843513333333336,-0.023038346126325153,0.04049163864626844,0.02583087292951608
1403636612213555456,37.737131,609.5692241085973,9.765788958333333,0.35957716666666667,-2.4843513333333336,-0.023038346126325153,0.04049163864626844,0.02583087292951608
1403636612263555584,50.410747,623.8927873069418,9.234595416666666,-1.6753027083333332,-2.7458620000000002,-0.01884955592153876,0.03769911184307752,-0.016755160819145562
1403636612313555456,60.884238,628.6521512726983,9.079323458333333,-1.1604535833333331,-2.69682875,-0.02234021442552742,-0.003490658503988659,-0.03490658503988659
1403636612363555584,48.587084,627.6951584736801,9.798477791666667,0.24516625,-2.754034208333333,0.04049163864626844,0.0307177948351002,0.19058995431778078
1403636612413555456,50.753355,631.5701273902964,9.218250999999999,-0.8008764166666666,-2.4434902916666665,-0.032812189937493394,0.02024581932313422,-0.030019663134302467
1403636612463555584,42.162895,633.7235300280507,9.218250999999999,-0.8008764166666666,-2.4434902916666665,-0.032812189937493394,0.02024581932313422,-0.030019663134302467
1403636612513555456,47.218322,634.5271742109387,9.553311541666666,0.024516625,-2.7213453750000003,0.03560471674068433,0.020943951023931952,0.1864011641129944
1403636612563555584,49.736739,634.588862061511,9.398039583333333,-0.5148491249999999,-2.623278875,-0.04677482395344803,0.02652900463031381,-0.020943951023931952
1403636612613555456,49.52383,637.0212592068499,9.414383999999998,-0.20430520833333332,-2.5415567916666664,0.025132741228718346,0.016057029118347832,0.17034413499464657
1403636612663555584,51.174164,634.4090192540928,9.594172583333334,-0.6292600416666666,-2.6396232916666666,-0.032114058236695664,0.016755160819145562,-0.00767944870877505
1403636612713555456,50.239801,634.2821132878075,9.193734375,-0.318716125,-3.0727503333333335,0.027925268031909273,0.013264502315156905,0.16406094968746698
1403636612763555584,49.109698,632.2088342402124,9.471589458333332,-0.5557101666666666,-2.8357562916666668,-0.05026548245743669,0.01815142422074103,-0.006283185307179587
1403636612813555456,50.307989,629.1398501001615,9.389867375,-0.6701210833333332,-2.9338227916666666,0.006283185307179587,0.019547687622336492,0.16755160819145562
1403636612863555584,49.405813,629.4161549240132,9.643205833333333,-0.4494714583333333,-2.6477955,-0.033510321638291124,0.023736477827122883,0.010471975511965976
1403636612913555456,60.024261,634.1241769408642,9.496106083333332,-0.4903325,-2.5006957499999998,-0.033510321638291124,0.023038346126325153,0.041189770347066175
1403636612963555584,39.669753,632.3259585435362,9.496106083333332,-0.4903325,-2.5006957499999998,-0.033510321638291124,0.023038346126325153,0.041189770347066175
1403636613013555456,49.622058,630.2995553652189,9.332661916666666,-1.1441091666666665,-2.582417833333333,-0.0013962634015954637,0.028623399732707,0.124965574442794
1403636613063555584,62.247754,634.6445777453974,9.398039583333333,-0.9970094166666666,-2.5088679583333335,0.01815142422074103,0.003490658503988659,0.0879645943005142
1403636613113555456,38.064718,641.1881021722803,9.398039583333333,-0.9970094166666666,-2.5088679583333335,0.01815142422074103,0.003490658503988659,0.0879645943005142
1403636613163555584,50.59433,639.8349347904394,9.36535075,-0.15527195833333335,-2.680484333333333,0.003490658503988659,0.029321531433504733,0.08237954069413235
1403636613213555456,49.477577,641.0057495985928,9.545139333333333,-0.809048625,-2.582417833333333,-0.0020943951023931952,0.016755160819145562,0.07120943348136866
1403636613263555584,50.660133,638.2056128489585,9.561483749999999,-0.392266,-2.5415567916666664,0.006981317007977318,0.006981317007977318,0.08866272600131193
1403636613313555456,59.499026,642.0529216609136,9.5124505,-0.20430520833333332,-2.5415567916666664,0.00767944870877505,0.023736477827122883,0.0942477796076938
1403636613363555584,42.916298,640.0149321639336,9.5124505,-0.20430520833333332,-2.5415567916666664,0.00767944870877505,0.023736477827122883,0.0942477796076938
1403636613413555456,46.911478,642.8625515862351,9.528794916666666,-0.6210878333333334,-2.582417833333333,-0.011868238913561441,0.025132741228718346,0.059341194567807204
1403636613463555584,61.021089,639.6321168657369,9.357178541666666,-0.6210878333333334,-2.631451083333333,-0.008377580409572781,0.023038346126325153,0.056548667764616284
1403636613513555456,41.419506,643.468464658104,9.357178541666666,-0.6210878333333334,-2.631451083333333,-0.008377580409572781,0.023038346126325153,0.056548667764616284
1403636613563555584,47.789097,640.2817230794406,9.389867375,-0.367749375,-2.582417833333333,0.005585053606381855,0.02652900463031381,0.10332349171806432
1403636613613555456,59.841633,641.4843929912951,9.398039583333333,-0.4494714583333333,-2.549729,0.004886921905584123,0.01884955592153876,0.10890854532444616
1403636613663555584,43.758631,638.1856998505119,9.398039583333333,-0.4494714583333333,-2.549729,0.004886921905584123,0.01884955592153876,0.10890854532444616
1403636613713555456,46.627998,638.5690079145892,9.389867375,-0.4739880833333333,-2.5660734166666663,-0.016755160819145562,0.023736477827122883,0.05235987755982988
1403636613763555584,59.456825,637.4688231915243,9.275456458333332,-0.45764366666666667,-2.5333845833333335,-0.006283185307179587,0.020943951023931952,0.06073745796940267
1403636613813555456,50.111532,638.6485608848893,9.46341725,-0.5883989999999999,-2.59876225,0.0013962634015954637,0.021642082724729686,0.09704030641088471
1403636613863555584,49.978972,638.7341850532198,9.438900625,-0.5311935416666667,-2.574245625,-0.009075712110370514,0.016057029118347832,0.060039326268604934
1403636613913555456,49.797535,639.2731311665049,9.398039583333333,-0.5883989999999999,-2.582417833333333,0.0027925268031909274,0.019547687622336492,0.0942477796076938
1403636613963555584,42.73963,639.5959028095142,9.398039583333333,-0.5883989999999999,-2.582417833333333,0.0027925268031909274,0.019547687622336492,0.0942477796076938
1403636614013555456,57.720184,639.184061735165,9.381695166666667,-0.6210878333333334,-2.549729,-0.0027925268031909274,0.024434609527920613,0.09285151620609833
1403636614063555584,50.087452,639.839283641199,9.496106083333332,-0.4903325,-2.582417833333333,-0.006981317007977318,0.02583087292951608,0.06981317007977318
1403636614113555456,42.956352,638.6450372086888,9.496106083333332,-0.4903325,-2.582417833333333,-0.006981317007977318,0.02583087292951608,0.06981317007977318
1403636614163555584,46.886206,640.6614629076006,9.5124505,-0.5883989999999999,-2.6477955,0.003490658503988659,0.023736477827122883,0.08656833089891874
1403636614213555456,59.60679,639.5572767231383,9.308145291666667,-0.5230213333333333,-2.5415567916666664,-0.0027925268031909274,0.013264502315156905,0.0942477796076938
1403636614263555584,42.165757,640.7612925341374,9.308145291666667,-0.5230213333333333,-2.5415567916666664,-0.0027925268031909274,0.013264502315156905,0.0942477796076938
1403636614313555456,54.281234,639.7590325871553,9.545139333333333,-0.40861041666666664,-2.6151066666666667,-0.006981317007977318,0.02652900463031381,0.08307767239493008
1403636614363555584,43.981552,641.2889052065602,9.308145291666667,-0.6946377083333333,-2.6151066666666667,-0.006283185307179587,0.032114058236695664,0.08377580409572781
1403636614413555456,49.667597,640.2688441093816,9.651378041666666,-0.48216029166666663,-2.4843513333333336,-0.0027925268031909274,0.02024581932313422,0.09075712110370514
1403636614463555584,50.49634,641.5833759402379,9.299973083333333,-0.7109821249999999,-2.5660734166666663,-0.0041887902047863905,0.008377580409572781,0.07051130178057091
1403636614513555456,60.094833,642.1657161170904,9.496106083333332,-0.563882375,-2.5333845833333335,-0.005585053606381855,0.014660765716752367,0.06562437987498679
1403636614563555584,50.796032,644.4206401244065,9.381695166666667,-0.4985047083333333,-2.574245625,0.005585053606381855,0.02024581932313422,0.09634217471008698
1403636614613555456,39.311409,643.504485411457,9.381695166666667,-0.4985047083333333,-2.574245625,0.005585053606381855,0.02024581932313422,0.09634217471008698
1403636614663555584,49.426079,644.6750464745752,9.487933875,-0.5802267916666666,-2.5905900416666663,-0.006981317007977318,0.02234021442552742,0.07400196028455958
1403636614713555456,49.800635,643.8451227282727,9.381695166666667,-0.4985047083333333,-2.5905900416666663,0.0006981317007977319,0.02722713633111154,0.09215338450530061
1403636614763555584,49.983024,644.0552863803471,9.5124505,-0.5311935416666667,-2.623278875,-0.0020943951023931952,0.016755160819145562,0.06981317007977318
1403636614813555456,50.014973,643.76949725083,9.324489708333333,-0.53936575,-2.606934458333333,0.0,0.02583087292951608,0.08377580409572781
1403636614863555584,60.098648,644.157830238325,9.398039583333333,-0.4903325,-2.5415567916666664,-0.0013962634015954637,0.013962634015954637,0.08936085770210968
1403636614913555456,39.7017,644.1697781866116,9.398039583333333,-0.4903325,-2.5415567916666664,-0.0013962634015954637,0.013962634015954637,0.08936085770210968
1403636614963555584,51.598072,645.0506728017236,9.349006333333334,-0.5066769166666666,-2.549729,-0.006283185307179587,0.02583087292951608,0.07400196028455958
1403636615013555456,49.324513,643.285615907693,9.291800875,-0.4903325,-2.5905900416666663,0.003490658503988659,0.02234021442552742,0.08656833089891874
1403636615063555584,50.30632,643.3803203660168,9.389867375,-0.5066769166666666,-2.549729,-0.003490658503988659,0.027925268031909273,0.07609635538695278
1403636615113555456,49.772739,645.5512353669126,9.406211791666665,-0.563882375,-2.5170401666666664,0.0006981317007977319,0.013264502315156905,0.07888888219014369
1403636615163555584,60.95767,644.4498377267884,9.357178541666666,-0.5802267916666666,-2.6151066666666667,-0.0020943951023931952,0.013264502315156905,0.07958701389094143
1403636615213555456,39.008379,644.9830287620707,9.357178541666666,-0.5802267916666666,-2.6151066666666667,-0.0020943951023931952,0.013264502315156905,0.07958701389094143
1403636615263555584,50.010682,643.5440548813966,9.316317499999998,-0.43312704166666666,-2.5088679583333335,-0.0020943951023931952,0.0307177948351002,0.07819075048934597
1403636615313555456,60.978889,644.1892090086587,9.406211791666665,-0.4903325,-2.5660734166666663,-0.0041887902047863905,0.02234021442552742,0.08237954069413235
1403636615363555584,49.315691,644.8306982501003,9.398039583333333,-0.44129925,-2.582417833333333,-0.005585053606381855,0.02024581932313422,0.08307767239493008
1403636615413555456,39.548874,644.440480502422,9.398039583333333,-0.44129925,-2.582417833333333,-0.005585053606381855,0.02024581932313422,0.08307767239493008
1403636615463555584,50.204515,643.8315459680948,9.373522958333332,-0.4903325,-2.5660734166666663,-0.0013962634015954637,0.021642082724729686,0.08028514559173915
1403636615513555456,50.017119,644.4306746743389,9.487933875,-0.5557101666666666,-2.582417833333333,-0.0027925268031909274,0.023736477827122883,0.08098327729253688
1403636615563555584,49.808979,644.2518619063992,9.447072833333333,-0.5148491249999999,-2.6477955,-0.0027925268031909274,0.01884955592153876,0.07888888219014369
1403636615613555456,49.407244,644.8563855938929,9.414383999999998,-0.6210878333333334,-2.5660734166666663,-0.005585053606381855,0.020943951023931952,0.0767944870877505
1403636615663555584,50.328731,644.11526431876,9.504278291666665,-0.5475379583333333,-2.6396232916666666,-0.004886921905584123,0.016755160819145562,0.07958701389094143
1403636615713555456,49.711466,644.6985999791333,9.414383999999998,-0.5148491249999999,-2.59876225,-0.0020943951023931952,0.02024581932313422,0.07609635538695278
1403636615763555584,50.324202,644.5663914597275,9.438900625,-0.416782625,-2.5660734166666663,-0.006283185307179587,0.02024581932313422,0.08098327729253688
1403636615813555456,49.727678,644.9743117088361,9.349006333333334,-0.5557101666666666,-2.549729,-0.00767944870877505,0.020943951023931952,0.07609635538695278
1403636615863555584,59.714079,644.9358482580727,9.406211791666665,-0.6047434166666666,-2.5905900416666663,-0.0020943951023931952,0.019547687622336492,0.07539822368615504
1403636615913555456,42.444706,644.4114104672004,9.406211791666665,-0.6047434166666666,-2.5905900416666663,-0.0020943951023931952,0.019547687622336492,0.07539822368615504
1403636615963555584,48.178911,644.5355835969134,9.422556208333333,-0.5148491249999999,-2.59876225,-0.0020943951023931952,0.0307177948351002,0.08237954069413235
1403636616013555456,49.653768,644.7915244276442,9.422556208333333,-0.4739880833333333,-2.582417833333333,-0.003490658503988659,0.020943951023931952,0.07330382858376185
1403636616063555584,51.983834,644.6099586117643,9.414383999999998,-0.5230213333333333,-2.5333845833333335,-0.0006981317007977319,0.021642082724729686,0.08656833089891874
1403636616113555456,47.999382,643.59696953907,9.389867375,-0.6047434166666666,-2.574245625,-0.004886921905584123,0.02234021442552742,0.07749261878854824
1403636616163555584,50.354242,644.3777553738447,9.36535075,-0.5475379583333333,-2.5905900416666663,-0.0020943951023931952,0.021642082724729686,0.08237954069413235
1403636616213555456,49.766779,644.8993659554545,9.455245041666666,-0.4903325,-2.582417833333333,-0.010471975511965976,0.023038346126325153,0.07120943348136866
1403636616263555584,50.533056,644.0159955440852,9.406211791666665,-0.4985047083333333,-2.557901208333333,-0.003490658503988659,0.017453292519943295,0.08237954069413235
1403636616313555456,60.386896,645.1705500034701,9.504278291666665,-0.53936575,-2.59876225,-0.0041887902047863905,0.023038346126325153,0.08587019919812101
1403636616363555584,41.445971,643.8868039187414,9.504278291666665,-0.53936575,-2.59876225,-0.0041887902047863905,0.023038346126325153,0.08587019919812101
1403636616413555456,47.452927,645.6359107757747,9.46341725,-0.5311935416666667,-2.549729,-0.006283185307179587,0.017453292519943295,0.07190756518216637
1403636616463555584,50.421953,644.5482133667169,9.406211791666665,-0.5557101666666666,-2.549729,-0.003490658503988659,0.017453292519943295,0.08377580409572781
1403636616513555456,60.491085,643.5530821292496,9.447072833333333,-0.53936575,-2.5415567916666664,-0.005585053606381855,0.020943951023931952,0.07958701389094143
1403636616563555584,44.070959,644.3725144707444,9.447072833333333,-0.53936575,-2.5415567916666664,-0.005585053606381855,0.020943951023931952,0.07958701389094143
1403636616613555456,48.178196,645.273983991861,9.430728416666666,-0.5230213333333333,-2.5333845833333335,-0.0020943951023931952,0.01884955592153876,0.07749261878854824
1403636616663555584,48.974514,645.2072971374195,9.414383999999998,-0.5148491249999999,-2.574245625,-0.0027925268031909274,0.019547687622336492,0.08377580409572781
1403636616713555456,47.977209,644.7268531376727,9.414383999999998,-0.5311935416666667,-2.5252123749999997,-0.0041887902047863905,0.021642082724729686,0.0767944870877505
