stamp,img_delta,blur,lin_acc.x,lin_acc.y,lin_acc.z,ang_vel.x,ang_vel.y,ang_vel.z,rpe,ate,drift
1403638129195097088,59.771538,133.5925591675299,9.455245041666666,0.563882375,-4.037070916666667,0.1340412865531645,0.2310815929640492,0.3811799086355615,3.7682603360449387,3.7682603360449707,0.8265733552605834
1403638129445096960,50.168276,297.531084944057,8.499096666666667,-1.4628252916666666,-2.950167208333333,0.0139626340159546,-0.0048869219055841,0.3623303527140228,7.612809806723261,11.047046949684402,0.22736600281770158
1403638129695097088,50.047636,154.57733396813452,9.250939833333334,-0.0081722083333333,-4.151481833333333,-0.0760963553869527,0.0565486677646162,-0.1654572130890624,4.365600032256564,7.164006453896725,0.1545269159473257
1403638129945096960,49.98374,162.7236040770634,10.1008495,-0.122583125,-4.56009225,0.028623399732707,-0.1130973355292325,-0.0886627260013119,2.3724106506664433,9.48298568848,0.5048183983247743
1403638130195097088,50.186396,216.78627260482807,9.16921775,-0.7600153749999999,-3.669321541666666,0.1158898623324234,0.0188495559215387,0.0090757121103705,1.7827982405323497,10.894248091709592,0.40561284699303
1403638130445096960,59.91745,335.3425773842339,8.817812791666666,-0.7109821249999999,-3.4813607499999994,0.1082104136236484,-0.0335103216382911,-0.0921533845053006,1.9722108513049204,12.777413401209353,0.3232442818606174
1403638130695097088,49.982071,315.7954478655984,9.144701125,-0.73549875,-3.260711125,-0.0020943951023931,0.2820452071222836,0.265290046303138,2.9893045058723384,15.763490793053098,0.49592763150885766
1403638130945096960,57.27768,577.8571249712156,8.204897166666667,-0.7927042083333332,-2.6477955,-0.0593411945678072,0.2597049926967562,0.1361356816555577,3.1854070385782314,18.39108462656824,0.34757520263589115
1403638131195097088,49.683094,601.0907108317359,8.629852,-1.495514125,-2.231012875,-0.0349065850398865,-0.3351032163829112,-0.2464404903815993,1.3160392999201278,19.501918565714337,0.006054549825957878
1403638131445096960,49.962282,658.6880199578851,9.26728425,-0.6864655000000001,-3.2361945,-0.0328121899374933,0.0726056968829641,0.1228711793404008,2.178434015657044,19.73086213030571,-0.34395201160536004
1403638131695097088,50.405741,327.9625664770817,9.013945791666666,-0.0898942916666666,-3.342433208333333,-0.036302848441482,0.0251327412287183,-0.0209439510239319,2.370387437529932,19.22287405132909,-0.12982423852684022
1403638131945096960,50.620794,220.0081355792352,10.648387458333334,-1.0133538333333332,-3.4650163333333333,-0.0691150383789754,0.0167551608191455,-0.0118682389135614,1.7967555679425637,20.660861020408785,0.40573203138360014
1403638132195097088,39.238692,169.17144001221794,11.841529875,0.7109821249999999,-4.8216029166666665,0.054454272662223,0.064926248174189,0.0397935069454707,2.336289008836573,22.8523270290336,0.4719648760906665
1403638132445096960,50.593376,136.40003399545532,9.643205833333331,0.5557101666666666,-3.366949833333333,0.179419847105017,0.2066469834361286,0.3700098014227978,1.6057866179066287,23.800266364973556,0.008354042787313887
1403638132695097088,49.362183,504.64173005947896,7.273265416666667,-1.1114203333333332,-2.0593965,0.0481710873550434,-0.1340412865531645,0.1514945790731078,2.4049790473540926,22.461839023275704,0.025137024396730823
1403638132945096960,50.115823,804.6171170539602,7.84532,-0.0817220833333333,-2.0512242916666668,0.0837758040957278,0.3099704751541929,0.2715732316103177,2.924367884193661,20.545108430631366,-0.11248158365067695
1403638133195097088,57.195187,934.88712864922,9.667722458333332,0.1307553333333333,-2.680484333333333,-0.2436479635784084,-0.0579449311662117,-0.0607374579694026,1.4851945555419193,19.68555735029195,-0.4471831139825433
1403638133445096960,60.152054,593.768912736808,9.283628666666663,-0.318716125,-3.5957716666666664,-0.4649557127312894,-0.0139626340159546,0.1556833692778942,5.449492837837292,22.493905834310464,0.1130709886447896
1403638133695097088,40.312767,398.086628930141,9.16921775,-0.6210878333333334,-3.530394,-0.228987197861656,-0.1179842574348166,0.3281218993749339,1.779939753191344,21.185197943831955,-0.4293318239678996
1403638133945096960,50.101996,481.0074360818145,10.223432625,-2.803067458333333,-2.353596,-0.1270599695451872,0.0781907504893459,0.1026253600172665,1.345078963914813,19.94214285723079,-0.3193479027920034
1403638134195097088,50.245523,349.04479056587866,9.937405333333334,-1.3075533333333331,-3.2770555416666665,-0.0097738438111682,0.0600393262686049,-0.0251327412287183,2.922730979518315,19.470614594144998,-0.07849136982507687
1403638134445096960,49.636126,1231.2842584471357,9.422556208333331,-0.6864655000000001,-3.587599458333333,0.0851720674973232,-0.1319468914507713,0.1933824811209717,3.8613661699423463,18.926861167089786,-0.6089448776387414
1403638134695097088,62.093735,1007.5052269523868,8.956740333333332,-0.6537766666666667,-3.612116083333333,0.1256637061435917,-0.2066469834361286,0.064926248174189,4.047345984400879,18.225768205173765,0.13584807372357943
1403638134945096960,61.122894,768.0327958015154,8.033280791666666,-0.5311935416666667,-3.4731885416666666,-0.0153588974175501,0.189891822616983,0.1214749159388053,0.30633511983231393,18.01059243471636,0.0376725639618023
1403638135195097088,50.129413,775.1931523196564,8.638024208333333,0.8172208333333333,-3.881798958333333,0.0160570291183478,-0.093549647906896,-0.057246799465414,4.61501914904596,14.605269398570126,-0.27920765258856584
1403638135445096960,54.128885,437.2644287307085,8.77695175,0.661948875,-3.92266,-0.182212373908208,-0.0125663706143591,-0.0293215314335047,2.248907257962178,13.819989365998827,-0.01240033949970254
1403638135695097088,39.911986,375.30346013258105,8.458235625,0.0408610416666666,-3.963521041666666,-0.2122320370425104,0.2087413785385218,0.2904227875318564,3.4136003237002646,13.405006477563287,-0.015882095723792844
1403638135945096960,40.190459,271.50096678063454,10.329671333333332,-0.1797885833333333,-4.347614833333333,-0.1242674427419962,-0.2492330171847902,-0.1801179788058148,2.6477065215758335,13.890482083190808,0.07185749611369907
1403638136195097088,61.746836,380.399855311927,7.967903124999999,0.1552719583333333,-3.08909475,-0.0865683308989187,0.1270599695451872,0.2324778563656447,3.6682481700403486,14.60469289879395,0.2507501809746113
1403638136445096960,59.795141,467.52034429482336,10.084505083333331,-2.6477955,-3.4486719166666666,-0.1284562329467826,-0.036302848441482,0.0628318530717958,3.301144618039546,16.115444120707615,0.2609277637642151
1403638136695097088,50.00949,378.9396646471064,9.259112041666668,-2.0512242916666668,-3.726527,0.2157226955464991,0.0502654824574366,0.2387610416728242,1.8812655606965472,16.953551095189674,0.13531126709485974
1403638136945096960,40.157795,260.4909747721768,7.256920999999999,-1.005181625,-2.778550833333333,0.3385938748868999,0.3783873818323706,0.4426154983057619,0.8703693720403525,17.21888722871406,0.20640799328386095
1403638137195097088,59.356928,225.53339674940852,8.940395916666665,-0.4004382083333333,-3.317916583333333,0.0712094334813686,-0.3113667385557884,-0.2345722514680378,1.3911343247727972,17.944652532705025,0.10302375567230726
1403638137445096960,40.314913,137.3639546485365,9.594172583333334,-0.7518431666666666,-3.603943875,-0.0914552528045028,-0.2101376419401172,-0.153588974175501,0.9883748443990545,17.844850851010648,-0.011665217932403493
1403638137695097088,49.99423,167.44512342529077,9.586000375,0.5557101666666666,-4.535575625,-0.1703441349946465,0.0439822971502571,0.046774823953448,0.8118158447748516,17.765201283695635,0.025173374717383012
1403638137945096960,49.724341,93.97433134215692,9.07115125,0.2043052083333333,-4.519231208333333,-0.08307767239493,-0.3141592653589793,-0.1850049007113989,1.3947433067907218,17.817194758327844,0.07807586440879533
1403638138195097088,50.044299,204.99464786149431,7.371331916666667,-0.0653776666666666,-3.8245935,-0.0321140582366956,0.265290046303138,0.2597049926967562,0.925524443806449,18.313457668280954,0.1363137507630725
1403638138445096960,50.303936,222.9460604223056,9.667722458333332,-0.2043052083333333,-4.257720541666666,-0.0139626340159546,0.0376991118430775,0.046774823953448,7.729227482092139,17.41652988518086,-0.31258900417545377
1403638138695097088,60.127497,220.64495512950492,9.242767625,-0.0326888333333333,-4.135137416666667,-0.0020943951023931,0.0006981317007977,0.0600393262686049,2.8173630514921317,17.426395220250804,0.70945893869402
1403638138945096960,48.83933,220.9185412732124,8.548129916666667,0.6782932916666666,-3.9390044166666662,-0.0726056968829641,0.0062831853071795,0.0090757121103705,3.1175469260765216,18.63513872852026,-0.37659669017243047
1403638139195097088,40.305615,218.85560537885968,8.866846041666665,-0.2615106666666666,-3.832765708333333,-0.0425860337486616,0.0188495559215387,0.0488692190558412,2.4236891673754086,20.138632138547997,-0.41734356628997205
1403638139445096960,60.135842,224.4677061683214,9.087495666666666,0.2043052083333333,-3.97169325,-0.0062831853071795,0.0188495559215387,0.0851720674973232,0.805670139583619,20.303742090160245,0.10578000527247156
1403638139695097088,49.933195,224.4515046478451,9.013945791666666,-0.0081722083333333,-3.963521041666666,-0.0062831853071795,0.0230383461263251,0.0712094334813686,0.10884186088196744,20.22641702382745,0.15954605284822065
1403638139945096960,59.556961,225.2368961544026,9.038462416666666,0.0572054583333333,-3.9880376666666666,-0.0013962634015954,0.0188495559215387,0.0788888821901436,0.11624835880635019,20.25233853090752,0.005681255758339887
1403638140195097088,50.180912,225.16340276401644,8.842329416666665,0.04903325,-3.8899711666666654,-0.0006981317007977,0.0209439510239319,0.0788888821901436,0.12720713124996116,20.254630147264457,0.03704858116249454
1403638140445096960,49.476862,224.85329845773276,8.940395916666665,0.0,-3.930832208333333,-0.0041887902047863,0.0230383461263251,0.0747000919853573,0.45379434308918465,20.575642466528326,0.043321475570071044
1403638140695097088,40.37261,225.15342397444692,8.915879291666666,0.0653776666666666,-3.92266,-0.0006981317007977,0.0195476876223364,0.0795870138909414,0.5434670964085843,20.76307692209422,-0.009215749410259377
1403638140945096960,39.96253,225.61659350515163,8.981256958333333,0.0735498749999999,-3.996209875,-0.0020943951023931,0.0174532925199432,0.0747000919853573,0.30433251133706507,20.904939367319923,0.03649358580939932
1403638141195097088,49.876451,225.5980294741014,8.956740333333332,0.0898942916666666,-3.979865458333333,-0.0020943951023931,0.0146607657167523,0.0788888821901436,0.6111685614584256,21.18310245848188,0.036856781229804625
1403638141445096960,50.454855,224.99859880521737,8.956740333333332,0.04903325,-3.97169325,-0.0020943951023931,0.0188495559215387,0.0747000919853573,0.38614183591946916,21.45067420574036,0.06310324230811659
1403638141695097088,39.842844,225.1700672197819,8.948568125,0.0,-3.9390044166666662,-0.0034906585039886,0.018151424220741,0.0774926187885482,0.29286504966588545,21.64008805595748,-0.002034569302285405
1403638141945096960,40.587187,222.45706259123503,8.981256958333333,0.0817220833333333,-3.947176625,0.0,0.0195476876223364,0.0802851455917391,0.347322415220276,21.92982972748283,0.19503215912237692
1403638142195097088,50.217867,218.37081152507693,8.850501625,-1.4219642499999998,-3.726527,0.0390953752446729,0.0209439510239319,0.0474729556542457,0.9024514609764837,22.701621931436105,0.0116852367963034
1403638142445096960,59.863806,213.47292453206165,8.613507583333332,2.083913125,-3.930832208333333,-0.0342084533390888,0.0607374579694026,0.1103048087260416,0.26210720394538883,22.532829181356263,0.3723256134678792
1403638142695097088,40.041924,223.24824574992564,8.564474333333333,0.0163444166666666,-4.028898708333333,-0.0844739357965255,-0.0069813170079773,0.0977384381116824,1.8645409111160829,24.105046198892953,0.2565943096250116
1403638142945096960,49.762726,220.9406291868993,8.490924458333334,1.046042666666667,-3.8164212916666655,0.0,-0.0020943951023931,0.0949459113084915,0.8003194185221787,23.594139564305156,0.1320345126939877
1403638143195097088,50.330162,222.72815578592903,9.700411291666663,-0.4004382083333333,-4.519231208333333,-0.0963421747100869,-0.025830872929516,0.1172861257340189,0.3469784506745394,23.720927907138666,-0.02825877272729116
1403638143445096960,49.638271,224.79902930136956,9.144701125,-0.4249548333333333,-4.16782625,-0.0223402144255274,0.0174532925199432,0.0767944870877505,0.5471309851980247,23.818369096121916,0.06837403933166186
1403638143695097088,49.834966,224.7319268497582,8.834157208333334,0.1470997499999999,-3.996209875,0.0132645023151569,0.0279252680319092,0.0865683308989187,0.668503880771545,24.070753455803967,0.013292615134869123
1403638143945096960,40.349484,224.91352220713247,9.079323458333333,0.0735498749999999,-4.0615875416666665,-0.0006981317007977,0.0188495559215387,0.064926248174189,0.35758060162072547,24.402127981269015,-0.029266832753393146
1403638144195097088,60.918331,225.16951392179192,9.022118,0.318716125,-3.881798958333333,-0.0069813170079773,0.0195476876223364,0.0788888821901436,0.17073926217013868,24.552810655083203,0.052119735094589004
1403638144445096960,50.279855,225.61481560363976,8.7279185,-0.196133,-3.702010375,-0.0006981317007977,0.0230383461263251,0.075398223686155,0.2077821145925389,24.712968329801445,0.0903882055009042
1403638144695097088,39.305687,224.7548852233212,8.744262916666667,-0.122583125,-3.8245935,-0.0111701072127637,0.0223402144255274,0.0893608577021096,0.18815306805389848,24.885620938893176,0.11711240201353945
1403638144945096960,49.732685,224.5831030808773,9.177389958333332,0.2615106666666666,-4.126965208333333,0.0139626340159546,0.0328121899374933,0.0900589894029074,0.1914115474098398,24.970849411317104,-0.06483696416856333
1403638145195097088,39.811611,225.4294097757557,8.87501825,0.0653776666666666,-3.947176625,0.0,0.0132645023151569,0.0740019602845595,0.06636482381089823,24.99436693323766,0.031270083476702126
1403638145445096960,59.53908,224.1395868305824,8.817812791666666,0.7191543333333333,-4.135137416666667,-0.0160570291183478,0.0,0.0942477796076938,0.15878376392726753,24.851251714398074,-0.10472798139780437
1403638145695097088,49.984693,224.62862925860887,9.414383999999998,0.3268883333333333,-4.36395925,-0.0223402144255274,0.0404916386462684,0.0949459113084915,0.29766151783213546,25.014013136065,0.007570967397800388
1403638145945096960,49.410104,224.16027326133425,8.262102624999999,0.269682875,-3.4977051666666665,0.0041887902047863,0.0062831853071795,0.0809832772925368,0.3458909076842036,25.299124749256976,0.07030050053144166
1403638146195097088,50.367832,224.79100112462976,9.504278291666663,-0.367749375,-3.702010375,-0.0083775804095727,0.0041887902047863,0.0788888821901436,0.20733742551143755,25.393213788292897,-0.04020028086898719
1403638146445096960,59.779167,219.9516570481496,9.504278291666663,0.3023717083333333,-3.587599458333333,0.0083775804095727,-0.0432841654494593,0.0837758040957278,0.6248622887363616,25.657854334303646,0.11685649573674795
1403638146695097088,59.987545,216.50022446394797,9.013945791666666,0.44129925,-3.5222217916666665,-0.0006981317007977,-0.1089085453244461,0.0691150383789754,0.39295875722559365,25.9749529102689,0.01703047784257805
1403638146945096960,37.725687,219.01578779080225,10.632043041666666,-0.809048625,-4.543747833333333,-0.0139626340159546,0.0383972435438752,0.0837758040957278,0.3207053391976359,26.191597181399,0.06523295920934302
1403638147195097088,49.962282,220.66278248004213,7.84532,0.8008764166666666,-4.257720541666666,0.0209439510239319,0.0621337213709981,0.0600393262686049,1.8880833707162745,27.935304483901003,0.13740368545447978
1403638147445096960,59.611082,215.7170844319032,6.603144333333333,0.4903325,-2.0920853333333334,0.0272271363311115,0.0921533845053006,0.0879645943005142,1.077516912062598,28.29754155635531,-0.20572832050583756
1403638147695097088,40.114641,215.2832905121333,7.591981541666666,0.416782625,-3.636632708333333,0.0293215314335047,0.0635299847725936,0.046774823953448,3.8520478061900474,28.529823771154366,0.7296122321126077
1403638147945096960,49.66402,121.0684934731771,10.967103583333332,-0.907115125,-4.584608875,-0.0642281164733913,0.2268928027592628,0.1270599695451872,7.88364846131213,30.62286370251516,0.5089335617675417
1403638148195097088,51.374197,220.1807112935905,12.748645,-0.0653776666666666,-3.6448049166666654,0.0621337213709981,-0.0020943951023931,0.1298524963483781,12.65588245991151,39.14495440564373,1.960756400464014
1403638148445096960,49.737215,301.8237997048933,7.722736874999999,0.3759215833333333,-2.7867230416666664,0.0530580092606276,-0.0146607657167523,0.0425860337486616,3.521162363298333,41.107846401168366,0.14071001897603708
1403638148695097088,59.789896,382.40466790335074,8.482752249999999,0.3268883333333333,-3.751043625,0.0307177948351002,-0.1110029404268393,0.064926248174189,5.393590117701964,38.96690361854043,-0.6091456029984101
1403638148945096960,50.694227,343.9095213316029,11.106031125,-0.171616375,-4.1024485833333335,0.0516617458590321,0.0244346095279206,0.1054178868204575,2.5429619417040685,39.55962043504861,0.5810295191017971
1403638149195097088,40.714502,717.6366927416049,7.820803375,0.4331270416666666,-2.819411875,-0.0314159265358979,0.0970403064108847,0.0495673507566389,2.8494037165589545,42.40874195730837,0.5214642045920073
1403638149445096960,59.11994,1259.681834046603,7.060788,0.4494714583333333,-2.655967708333333,-0.018151424220741,0.0125663706143591,0.0237364778271228,3.153436325514633,45.00831103708553,0.4674417914325488
1403638149695097088,50.093651,1149.75229616106,8.809640583333332,-0.4494714583333333,-3.293399958333333,0.1354375499547599,0.0733038285837618,0.0446804288510548,3.0457186834783307,47.29216215214848,0.4532983616718198
1403638149945096960,59.514761,1110.99868273416,7.869836625,-0.0735498749999999,-3.268883333333333,-0.0055850536063818,-0.0397935069454707,0.0342084533390888,1.7155086998570337,48.78854845310424,0.2751784655295708
1403638150195097088,50.220251,1097.8999780097529,8.77695175,-0.3514049583333333,-3.5222217916666665,-0.057246799465414,-0.0376991118430775,-0.1200786525372098,2.161589113790138,50.436300821531496,0.4146924663410587
1403638150445096960,50.261736,766.9353045688988,10.664731875,-0.1879607916666666,-3.097266958333333,0.2178170906488923,-0.179419847105017,0.2478367537831947,2.4981531373470496,52.64008162661041,0.5692242478036107
1403638150695097088,59.594154,1019.5246084720366,9.013945791666666,0.8744262916666666,-3.366949833333333,0.1193805208364121,0.0942477796076938,0.0174532925199432,3.3018669543536854,55.84793178951906,0.6048985378801959
1403638150945096960,49.798966,705.652926634637,8.499096666666667,-0.9970094166666666,-2.043052083333333,0.1500983156715123,0.1598721594826805,-0.0733038285837618,2.561732851951002,58.44140353556997,0.4651149489580675
1403638151195097088,50.570965,585.5118928750258,8.597163166666666,0.2124774166666666,-4.314926,0.364424747816416,-0.0279252680319092,-0.0788888821901436,2.872040772103218,61.07908543142679,0.8454165750421438
1403638151445096960,59.99279,523.7216406413862,9.602344791666663,0.0,-3.881798958333333,0.48939032225921,-0.0509636141582344,-0.1179842574348166,3.22045900386414,64.08938343478783,0.6369606424855476
1403638151695097088,50.005198,585.8722356903502,8.18855275,-0.0326888333333333,-2.974683833333333,0.2227040125544764,-0.0321140582366956,-0.0747000919853573,2.9549130245384005,67.1240434452461,0.43257342449753367
1403638151945096960,49.549342,712.8219214894954,10.681076291666663,0.8008764166666666,-4.094276375,0.0530580092606276,0.0097738438111682,-0.0041887902047863,2.0081282256941986,68.94586159486022,0.47940505483542495
1403638152195097088,61.084032,464.6083718589472,8.319308083333333,0.6537766666666667,-3.8082490833333327,-0.0321140582366956,-0.0174532925199432,-0.0886627260013119,1.774984964451198,70.44776820668649,0.32770437610180636
1403638152445096960,49.892903,483.0160038387999,7.910697666666666,-0.4004382083333333,-2.770378625,-0.0621337213709981,0.0195476876223364,0.0132645023151569,2.5504633023969823,72.99575686802187,0.29987240780052105
1403638152695097088,57.123899,394.83037998328217,11.22861425,0.4494714583333333,-3.211677875,0.0816814089933346,0.0418879020478639,0.1284562329467826,2.2678193992438187,75.29435847497668,0.7523146479653633
1403638152945096960,50.449371,275.1504038579106,8.997601374999999,-0.0081722083333333,-4.453853541666667,0.2673844414055313,0.1123992038284348,-0.0272271363311115,2.4863991908861673,78.09876011670721,0.6142495703807356
1403638153195097088,50.015211,292.678349300093,7.575637124999999,0.6946377083333333,-2.7213453750000003,0.2024581932313422,-0.0153588974175501,0.007679448708775,3.446375979005011,81.95758762732095,0.1882524488452333
1403638153445096960,56.491136,245.01128312630075,10.452254458333334,0.0,-4.077931958333333,0.2234021442552742,-0.0600393262686049,-0.2366666465704311,1.3715938202773839,82.88526831719606,0.4318368856265806
1403638153695097088,60.291768,221.3634767735258,8.327480291666665,-0.4739880833333333,-3.979865458333333,0.4153883619746504,0.1514945790731078,0.0404916386462684,2.565939103666586,82.68838207918752,-0.07462200147740816
1403638153945096960,49.932957,267.4642922258701,7.453054,0.8825985,-3.334261,0.2331759880664424,0.1968731396249603,0.1235693110411985,1.925187629498962,84.51330950336843,0.28637085748302127
1403638154195097088,43.763876,381.14892651068016,9.945577541666664,-0.7191543333333333,-3.6202882916666654,0.0342084533390888,0.1410226035611418,0.0642281164733913,3.9430308095233166,88.28028620309311,1.3237234070489734
1403638154445096960,49.741745,535.6885289805195,8.77695175,0.0408610416666666,-3.77556025,-0.0013962634015954,0.2673844414055313,0.1843067690106012,5.838634881453682,92.915644206835,2.1419961334824364
1403638154695097088,49.921035,595.8281880943366,10.795487208333332,-0.4985047083333333,-4.85429175,0.1417207352619395,-0.1584758960810851,0.104021623418862,6.952343089504836,99.1510988085824,0.4200672188683683
1403638154945096960,43.82968,646.8682692702045,11.980457416666669,-0.1797885833333333,-4.494714583333333,0.1319468914507713,0.0370009801422797,-0.1340412865531645,5.30867357932396,104.20796504821466,1.000581399477099
1403638155195097088,49.574137,627.2729968588906,9.242767625,0.4331270416666666,-3.8082490833333327,0.2122320370425104,0.1424188669627373,0.0865683308989187,9.494915239382403,112.67245330898254,0.7504707656975569
1403638155445096960,56.673288,803.0049332364237,7.232404375,0.5883989999999999,-3.391466458333333,0.2136283004441059,0.0991347015132779,-0.08307767239493,8.414625254480661,119.97434919021221,-0.30452175029205364
1403638155695097088,43.817997,632.0791660079545,8.466407833333333,0.4249548333333333,-3.334261,0.4063126498642799,0.1961750079241626,0.0872664625997164,4.77842986762146,117.51757879342873,-1.8415825970162985
1403638155945096960,49.786568,468.18655106768944,9.839338833333333,-0.2533384583333333,-4.903325,0.5215043804959056,-0.2073451151369263,-0.0390953752446729,2.730040136636895,120.28817263891736,0.4340369586678605
1403638156195097088,50.227165,686.4908601479016,9.80665,-0.0817220833333333,-4.094276375,0.4824090052512327,-0.1228711793404008,0.0984365698124801,1.2738096806901136,120.17960181878773,-0.07929962816508862
1403638156445096960,49.860239,810.3821948854888,8.302963666666667,0.5720545833333333,-2.353596,0.2555162024919699,-0.153588974175501,-0.0439822971502571,2.87244061278376,120.14094338469452,-0.024351555280460957
1403638156695097088,50.024987,999.1347276968048,8.131347291666666,0.980665,-3.554910625,0.0809832772925368,-0.0474729556542457,0.046774823953448,1.9315197772909292,120.11565596819622,-0.3806398605482002
1403638156945096960,50.045252,1027.1786681637016,8.450063416666666,-0.2288218333333333,-3.334261,-0.0628318530717958,-0.057246799465414,0.0530580092606276,3.800909462926779,119.27222524807637,0.27874710305883355
1403638157195097088,39.741277,953.5083710703116,9.005773583333333,0.0653776666666666,-2.4189736666666666,-0.0740019602845595,-0.0726056968829641,0.0160570291183478,0.44132785536024055,119.75322689035077,0.32162331700229174
1403638157445096960,48.702955,775.4656325116667,7.150682291666666,0.6456044583333332,-2.2718739166666664,0.0774926187885482,0.1368338133563554,-0.0090757121103705,3.9760915168097037,117.72653400869675,-0.3472790766014384
1403638157695097088,50.092459,554.5562794267294,8.646196416666667,0.416782625,-2.79489525,0.2310815929640492,0.2254965393576673,-0.2129301687433081,1.6024501874468613,117.36683947122346,-0.04206851861151506
1403638157945096960,40.06648,586.8309617010948,9.692239083333332,0.7681875833333334,-3.138128,0.4356341812977846,0.0209439510239319,-0.0565486677646162,1.4355384637106523,117.24598154510453,0.17142214355210683
1403638158195097088,50.252199,698.5941113737763,7.763597916666666,0.9152873333333332,-3.023717083333333,0.2687807048071267,-0.0146607657167523,0.1417207352619395,0.7528563393908215,118.75083701255933,0.550210547593494
1403638158445096960,49.779892,909.0252198303292,7.976075333333333,0.6292600416666666,-2.2963905416666663,-0.0502654824574366,0.0907571211037051,-0.0977384381116824,3.466401014786539,121.13999475438231,0.8441814006273489
1403638158695097088,50.322295,854.4553968965688,8.719746291666667,-0.3105439166666667,-4.4211647083333325,-0.0055850536063818,-0.0223402144255274,0.1263618378443894,3.81777621171486,123.298018190291,0.34930142432860123
1403638158945096960,50.637722,782.3802333014658,10.6892485,-0.5883989999999999,-4.674503166666667,0.0118682389135614,-0.1082104136236484,0.0781907504893459,2.5789606228615387,125.19435751136385,0.30393045478584213
1403638159195097088,49.888373,743.6410611104825,10.411393416666668,-0.1552719583333333,-3.7919046666666665,-0.0677187749773799,-0.2722713633111154,0.0216420827247296,0.5078546678132502,125.56037653441199,0.34723682396608524
1403638159445096960,59.870243,345.4068867484848,8.891362666666666,0.0817220833333333,-4.298581583333333,0.075398223686155,0.5173155902911193,0.2527236756887789,6.452060045695111,129.18964255063602,0.3479437092869375
1403638159695097088,50.795555,618.1667548914254,11.310336333333332,-0.3023717083333333,-2.459834708333333,0.075398223686155,0.2059488517353309,0.2548180707911721,2.5030030602619,128.27865216230427,-0.25499226665556307
1403638159945096960,49.540281,652.3025513464047,8.065969625,-0.1307553333333333,-3.358777625,-0.0390953752446729,0.0558505360638185,-0.2303834612632515,13.585315653214833,123.13249022740571,-3.353941877512952
1403638160195097088,50.180196,621.5830951330139,11.146892166666666,0.196133,-3.8245935,-0.0055850536063818,-0.3504621138004613,0.0425860337486616,16.697226539875444,116.91014837110583,-0.4745632281401555
1403638160445096960,50.27771,788.8818388928205,8.033280791666666,-0.1062387083333333,-2.582417833333333,-0.0251327412287183,-0.1019272283164688,0.0621337213709981,2.3715141634524928,119.21360161269227,1.1274838967863587
1403638160695097088,49.810886,557.3381909168329,8.801468374999999,0.7273265416666667,-2.0021910416666664,-0.0195476876223364,0.0558505360638185,0.0223402144255274,2.7150503758658644,120.72013243486398,0.39393081263034446
1403638160945096960,59.793949,402.43331394797104,8.572646541666666,0.7273265416666667,-2.378112625,-0.2904227875318564,0.21851522234969,0.1577777643802873,1.2310166570709404,121.36381042594799,0.11788289146420539
1403638161195097088,40.486812,492.8337096035054,7.216059958333333,-0.3023717083333333,-2.2228406666666665,-0.4384267081009756,0.0118682389135614,0.1382300767579508,5.399387394851545,120.95585786457342,0.11948629740662398
1403638161445096960,49.510479,444.4386136776208,9.422556208333331,0.0980665,-2.941995,-0.4028219913602912,-0.15079644737231,0.2422517001768129,3.5069668469666997,121.30106320709801,0.18125322408587863
1403638161695097088,39.332628,719.7931221628061,9.193734375,-0.6047434166666666,-3.710182583333333,-0.1193805208364121,-0.0404916386462684,0.2415535684760151,3.8134548241893205,122.64278270240281,0.22053788483445658
1403638161945096960,49.890757,577.5349643755515,7.722736874999999,0.5557101666666666,-2.8847895416666667,-0.2317797246648469,0.0237364778271228,0.1068141502220529,4.377518937312808,123.89132529902034,0.19928668052784815
1403638162195097088,49.870253,749.7338613885843,10.681076291666663,-0.3595771666666666,-4.151481833333333,-0.0342084533390888,-0.0195476876223364,0.2275909344600605,3.887100658784027,126.06724289880651,0.45798360201384014
1403638162445096960,39.480209,712.2675005424045,8.368341333333333,0.7028099166666667,-3.08909475,-0.0111701072127637,0.1528908424747032,0.0726056968829641,2.749051960555611,127.91794905907427,0.23658725948165227
1403638162695097088,50.426484,748.412432359003,11.195925416666665,-0.3840937916666667,-4.028898708333333,-0.028623399732707,0.025830872929516,-0.0265290046303138,3.0714125042628786,130.0378022024656,0.7484346826594788
1403638162945096960,48.40517,487.8932199705234,9.586000375,-0.3350605416666666,-5.532585041666667,-0.0195476876223364,0.1605702911834783,0.3232349774693498,2.434259529406592,131.97996473747597,0.39134248297989416
1403638163195097088,50.401211,600.4263471033692,8.883190458333333,0.6782932916666666,-3.554910625,-0.2199114857512855,-0.0216420827247296,0.1089085453244461,1.3808409979561393,132.82105186875586,-0.058991882336812296
1403638163445096960,49.542665,628.0130171547072,6.758416291666666,0.122583125,-1.96133,-0.3553490357060455,0.0418879020478639,0.122173047639603,3.7802828185886517,135.9682852336802,1.4365488556144612
1403638163695097088,50.661087,703.5118787989404,10.1008495,0.1144109166666666,-4.707191999999999,-0.1110029404268393,0.0048869219055841,0.1117010721276371,2.267219699505955,136.01346277171953,0.7048445694402972
1403638163945096960,53.971529,933.8513563774446,11.392058416666666,0.4331270416666666,-4.159654041666666,0.0020943951023931,0.0069813170079773,0.0956440430092892,5.478758192519199,141.00058538770674,1.2877259689202845
1403638164195097088,62.611341,737.6846818454985,10.231604833333332,-0.5883989999999999,-4.568264458333333,0.0795870138909414,0.1256637061435917,0.0328121899374933,2.6307940969032813,142.94777762028906,0.4185180452520285
1403638164445096960,40.413618,755.5513791369485,8.719746291666667,0.8417374583333332,-3.538566208333333,0.0293215314335047,0.0684169066781777,0.1207767842380075,2.432939071096408,144.36477746482979,-0.06923059821656352
1403638164695097088,60.105562,648.6246094373524,9.430728416666666,0.612915625,-3.6202882916666654,-0.1151917306316257,-0.0370009801422797,0.0942477796076938,3.457012507693947,142.77717806381864,-1.0031062053941469
1403638164945096960,59.677601,481.4104304487356,9.308145291666667,-0.8907707083333333,-3.4813607499999994,-0.0865683308989187,0.1780235837034216,0.1284562329467826,4.085777723714588,141.67044729355104,0.9436419157438252
1403638165195097088,31.764745,397.9814873772921,9.005773583333333,-0.024516625,-4.298581583333333,-0.1375319450571531,-0.210835773640915,0.1905899543177807,3.2098066418730293,139.85268751323332,-0.2435719362458144
1403638165445096960,49.956084,510.3116885625723,8.139519499999999,-0.024516625,-3.072750333333333,-0.08307767239493,0.0411897703470661,0.114493598930828,3.898911059643958,137.1617351616392,-1.3193778192242007
1403638165695097088,39.812565,409.9188377652452,9.700411291666663,-0.44129925,-4.069759749999999,-0.036302848441482,0.3190461872645634,0.0390953752446729,5.686382191885573,132.0173991009352,-1.1938595601338307
1403638165945096960,50.038814,303.98958609264054,9.978266375,-0.6047434166666666,-2.868445125,-0.036302848441482,-0.1773254520026238,-0.0293215314335047,6.620071087608638,137.0455951279222,-0.06778300410579163
1403638166195097088,51.701545,461.6690401835012,10.656559666666666,-1.22583125,-3.742871416666666,0.0041887902047863,-0.0970403064108847,-0.0642281164733913,2.730853986388,138.01738942108662,0.18676621810678284
1403638166445096960,49.490213,525.5303141624107,10.068160666666666,0.2369940416666666,-4.592781083333333,0.0460766922526503,-0.0733038285837618,0.0607374579694026,11.089096343022623,126.55576259321046,-2.6277154040544417
1403638166695097088,50.571203,589.4654573309517,8.613507583333332,-0.3595771666666666,-2.3699404166666667,0.0481710873550434,0.0774926187885482,0.1096066770252439,5.48741875465668,121.27777509905575,-0.9541488728970648
1403638166945096960,40.228605,359.043779679001,8.351996916666666,-0.5720545833333333,-2.8847895416666667,0.0453785605518525,-0.2841396022246769,0.239459173373622,1.5298622392612535,119.75614957858302,-0.10942441292603178
1403638167195097088,51.866293,471.2779545867416,11.947768583333332,-0.5802267916666666,-3.6202882916666654,-0.0740019602845595,0.0223402144255274,-0.1291543646475804,0.45206289756015167,119.44518003202178,0.25639685469171525
1403638167445096960,56.784153,463.3798634741013,9.528794916666666,-0.0817220833333333,-3.3260887916666664,-0.0195476876223364,0.1075122819228507,0.0886627260013119,4.053949873912684,122.65516490562314,0.819616218763187
1403638167695097088,50.495148,461.093539436816,7.967903124999999,0.269682875,-3.1463002083333333,-0.0628318530717958,0.2324778563656447,0.3036872898470133,2.097615239355914,124.40545388283373,0.38178173703333584
1403638167945096960,61.233283,374.3695026755554,9.487933875,-0.1634441666666666,-3.8409379166666655,-0.3155555287605747,0.0509636141582344,0.2492330171847902,1.8597702704565386,125.9075799969379,0.3217808088486436
1403638168195097088,49.651623,408.4234097850165,9.242767625,0.5311935416666667,-3.8245935,-0.2673844414055313,0.1696460032938488,0.2485348854839925,1.354678961928901,125.39372991235504,0.31712756922740937
1403638168445096960,49.910307,351.11000677637287,8.049625208333332,-0.0735498749999999,-3.3506054166666663,-0.325329372571743,-0.018151424220741,-0.0656243798749867,2.936653349932992,127.93366411943256,0.3087911212903549
1403638168695097088,49.972773,393.7724005591755,7.093476833333334,0.196133,-2.0021910416666664,-0.1836086373098034,-0.1130973355292325,-0.0956440430092892,2.483394092735792,129.96606524366155,0.615521590987754
1403638168945096960,40.418148,524.5911117643433,7.60015375,0.3350605416666666,-3.1544724166666662,0.0300196631343024,-0.0390953752446729,0.1843067690106012,1.614256129171686,128.43690642853656,-0.7242646682819895
1403638169195097088,49.953699,453.0414373652429,7.510259458333333,-0.3105439166666667,-3.612116083333333,0.1277581012459849,0.171740398396242,0.3015928947446201,0.9096846903684003,128.1161477696849,0.4284655166153186
1403638169445096960,39.910316,370.6826327664927,11.45743608333333,-0.44129925,-4.249548333333333,-0.153588974175501,0.1668534764906579,0.4167846253762458,3.317462854124627,128.10448160678135,0.24594426915415113
1403638169695097088,61.491012,356.48458000701555,9.610517,-0.2615106666666666,-3.0073726666666665,-0.4991641660703782,-0.0293215314335047,0.0321140582366956,3.431063426199911,130.40771672964246,1.3163997139874084
1403638169945096960,49.809694,246.84150552168924,9.80665,-0.220649625,-3.881798958333333,-0.635299847725936,0.1151917306316257,-0.1354375499547599,4.021807461381691,134.17019172445933,-0.1306651631643092
1403638170195097088,50.28224,380.94793300348704,10.501287708333331,-0.4494714583333333,-3.57942725,-0.4279547325890095,0.0104719755119659,0.3986332011555048,2.1744118034345106,134.48068359756843,0.3671733180663921
1403638170445096960,49.756765,352.3830036087461,7.395848541666666,-0.0572054583333333,-2.181979625,-0.5145230634879283,-0.1068141502220529,0.2038544566329376,0.27104997924686103,134.15772552412867,0.10977988346908774
1403638170695097088,40.388823,454.1877882102044,9.586000375,-0.7763597916666666,-3.366949833333333,-0.4342379178961891,0.1347394182539622,0.2352703831688356,5.549443794779779,139.0921926636669,0.3714006996453918
1403638170945096960,39.068699,483.3044933330412,9.250939833333334,0.2860272916666666,-2.941995,-0.43703044469938,0.007679448708775,0.2408554367752175,3.0035076166256953,141.26587480298312,0.12224402359055375
1403638171195097088,49.71385,581.4291782556329,9.087495666666666,-0.0572054583333333,-3.8409379166666655,-0.2303834612632515,0.1347394182539622,0.1836086373098034,4.429939963052199,139.4135046568764,0.8707473478779093
1403638171445096960,39.39271,613.7837980117441,8.768779541666666,-0.661948875,-3.3260887916666664,-0.1117010721276371,0.0795870138909414,0.1675516081914556,4.068478851758226,137.5174578761294,0.032841796956574854
1403638171695097088,59.980869,602.2876776566663,7.967903124999999,0.5965712083333333,-2.132946375,-0.2017600615305445,0.143116998663535,0.1151917306316257,4.565699962981019,133.26375557890745,-0.8831224492233503
1403638171945096960,60.726166,545.1638317371905,8.858673833333333,-0.392266,-4.2168595,-0.2024581932313422,0.057246799465414,-0.0684169066781777,3.8026734592606046,132.3633180368265,0.07948166836030168
1403638172195097088,39.372444,698.7543378959301,9.479761666666668,-0.9888372083333332,-2.8439285,-0.0802851455917391,-0.0893608577021096,0.064926248174189,5.891499358222669,133.18997508788857,0.32868604518691313
1403638172445096960,39.81638,739.6413383149945,7.444881791666666,-0.4576436666666666,-1.7815414166666663,0.025830872929516,0.075398223686155,0.028623399732707,9.869278602248567,136.80639305492957,0.35841410620702163
1403638172695097088,50.377369,740.8832099596036,9.406211791666664,-0.9970094166666666,-3.514049583333333,0.0684169066781777,0.0111701072127637,0.1654572130890624,4.826015947443386,136.25783027595753,-0.8482009235642352
1403638172945096960,49.981833,624.2259933723499,7.518431666666666,-0.2124774166666666,-2.974683833333333,0.0837758040957278,-0.075398223686155,0.1500983156715123,3.937464438752949,134.30460805413665,0.273373353886484
1403638173195097088,49.843312,486.3927626968276,6.447872374999999,0.1552719583333333,-3.334261,0.0279252680319092,-0.122173047639603,0.0823795406941323,5.317022665879496,135.74681618950711,0.1310758887441068
1403638173445096960,49.666405,277.5981857205402,6.186361708333333,-0.1552719583333333,-3.064578125,-0.0893608577021096,0.0474729556542457,-0.2715732316103177,6.740622787635349,138.0756798112306,0.4403799779893518
1403638173695097088,50.168991,372.55030880638463,8.703401874999999,-0.9724927916666666,-4.045243125,0.0195476876223364,-0.057246799465414,0.0565486677646162,7.202741411345036,137.7674856802879,-0.2208530870042864
1403638173945096960,49.553871,580.2795678463801,11.571846999999998,-1.6753027083333332,-4.568264458333333,-0.0530580092606276,0.0481710873550434,0.143116998663535,11.24812991121249,149.11291606504804,11.717402298844547
1403638174195097088,62.368632,473.93371985972783,8.548129916666667,-1.61809725,-1.6017528333333333,-0.0293215314335047,0.0006981317007977,0.0,5.848812870095315,149.2393277009556,-0.30687331484736546
1403638174445096960,49.881458,640.9366531248808,8.97308475,0.0,-3.9390044166666662,-0.0209439510239319,-0.0865683308989187,-0.0083775804095727,5.387960495455785,150.4327945646783,0.3373335617865507
1403638174695097088,60.350895,504.9500148015011,10.583009791666663,-0.6701210833333332,-4.568264458333333,-0.0223402144255274,-0.1061160185212552,0.0335103216382911,8.04114515442365,153.60732286952964,1.090616642439585
1403638174945096960,50.117016,541.237663996708,10.198916,-0.24516625,-2.672312125,-0.0237364778271228,-0.0300196631343024,0.1110029404268393,7.066368890532882,159.4572283173108,1.4042837060600561
1403638175195097088,51.158429,571.201349880843,8.401030166666667,-0.171616375,-3.538566208333333,-0.0453785605518525,-0.0383972435438752,0.0048869219055841,9.910834628957987,164.6006748939955,0.9162262658599616
1403638175445096960,50.119638,354.78512105413444,8.662540833333333,-0.1879607916666666,-3.2035056666666666,-0.0781907504893459,-0.189891822616983,-0.0530580092606276,6.178685525054362,165.56036418782634,-0.2811583339835977
1403638175695097088,49.435138,549.5576228860717,8.016936375,-0.1389275416666666,-2.79489525,0.0272271363311115,-0.3106686068549906,0.0970403064108847,1.4005395293367207,166.163530364938,0.31233467776357315
1403638175945096960,61.524391,526.9844879921275,8.098658458333333,0.0653776666666666,-2.214668458333333,-0.0816814089933346,0.1459095254667259,-0.2401573050744197,7.463112013362151,166.8303833834208,0.6577459842841336
1403638176195097088,50.39835,364.86369970857095,9.291800875,-0.63743225,-3.4813607499999994,0.0314159265358979,0.6611307206554521,0.1850049007113989,4.989327050564245,168.8690125867573,0.22311160709020328
1403638176445096960,48.884153,742.4010901188979,9.953749749999998,-0.1470997499999999,-4.020726499999999,-0.0404916386462684,-0.0146607657167523,0.0670206432765822,19.415715885236455,170.49207556173744,1.1956493239829626
1403638176695097088,49.710274,704.3121308837141,10.34601575,-0.8580818749999999,-4.592781083333333,0.0167551608191455,-0.0167551608191455,0.1082104136236484,5.975700866494092,173.58722624326538,1.2599607813436933
1403638176945096960,50.483227,709.7317901936367,7.7472535,0.612915625,-2.680484333333333,-0.0048869219055841,0.0844739357965255,0.1082104136236484,7.56915283942451,178.37440347160054,0.4130575396116285
1403638177195097088,50.060511,733.376235563394,9.275456458333332,-0.0408610416666666,-3.097266958333333,-0.0642281164733913,0.036302848441482,-0.0698131700797731,4.169558975325607,175.98754118687597,-0.6749615645230733
1403638177445096960,60.743809,689.6707190974087,10.190743791666666,-0.1634441666666666,-4.314926,0.0376991118430775,-0.018151424220741,0.3099704751541929,5.807786221611895,171.54060428490175,-0.9382461962715638
1403638177695097088,49.881697,614.2191589338198,6.562283291666667,0.1389275416666666,-2.288218333333333,0.0781907504893459,0.0195476876223364,0.2981022362406315,8.783861025920357,164.1296762587149,-0.9222253368270401
1403638177945096960,39.77561,556.0960546599619,8.891362666666666,0.5883989999999999,-3.391466458333333,-0.0788888821901436,0.2192133540504878,0.1158898623324234,5.164194381404127,159.83978150289644,0.31044787348972136
1403638178195097088,49.446583,566.5143631079228,9.250939833333334,0.907115125,-4.543747833333333,-0.2583087292951608,0.1047197551196597,0.1424188669627373,2.5980536887488785,160.9288054702614,0.45365025316820606
1403638178445096960,50.66514,488.5565632095365,7.50208725,0.5148491249999999,-3.2280222916666665,-0.4181808887778414,0.0272271363311115,0.3029891581462156,0.5725676124320205,161.1019384412469,-0.25249365555859526
1403638178695097088,39.818525,524.8518624960283,7.232404375,-0.2369940416666666,-2.950167208333333,-0.4719370297392667,-0.0237364778271228,0.239459173373622,2.801852512110442,158.66836046272482,-0.44125971500955075
1403638178945096960,48.124074,487.02036001142216,9.250939833333334,-0.1797885833333333,-4.151481833333333,-0.3385938748868999,-0.0949459113084915,0.1954768762233649,1.8363371247093714,157.2451905473183,-0.47547223242114
1403638179195097088,39.466619,427.6954080630997,7.624670374999999,-0.1062387083333333,-2.754034208333333,-0.2450442269800038,-0.0712094334813686,0.0069813170079773,0.8921470891545569,157.36350662819524,0.21355625048846605
1403638179445096960,49.503803,285.0632758583539,8.646196416666667,0.024516625,-2.909306166666666,-0.3001966313430246,0.2422517001768129,0.2911209192326541,1.7613845273689275,156.46785196371215,-0.20999182236167258
1403638179695097088,38.562298,300.4272688940157,9.994610791666668,-0.5883989999999999,-4.527403416666666,-0.494277244164794,0.2436479635784084,0.3001966313430246,2.819443896019404,154.27502014290363,-0.5741089609452956
1403638179945096960,50.118447,305.7576748277924,10.019127416666668,-0.7028099166666667,-3.2035056666666666,-0.4293509959906051,0.0202458193231342,0.2457423586808016,3.0032315513892636,152.090640262911,-0.7738485091844041
1403638180195097088,49.171448,359.1758001111173,9.635033625,1.0705592916666666,-4.3312704166666665,-0.1591740277818828,0.0991347015132779,0.1333431548523667,2.647207873461117,150.12307943616062,-0.3912374969101222
1403638180445096960,61.233282,391.1705909361061,8.97308475,0.24516625,-2.8357562916666668,-0.0230383461263251,0.0383972435438752,-0.0307177948351002,2.0180803965656113,148.93445962021474,-0.16376817966875024
1403638180695097088,49.559116,398.1925930302067,9.324489708333331,0.4576436666666666,-2.966511625,0.0090757121103705,-0.0272271363311115,0.0055850536063818,2.9880029578944,147.38026557307472,-0.3900773991328492
1403638180945096960,38.838149,379.4272082248754,8.376513541666666,0.1389275416666666,-2.966511625,0.0397935069454707,-0.0209439510239319,0.0551524043630208,4.019794739379448,145.71354494359957,-0.1259931793650253
1403638181195097088,31.659841,291.1458272078977,7.886181041666666,0.0653776666666666,-2.8602729166666667,0.054454272662223,0.1389282084587486,0.064926248174189,5.196417891837353,143.48369132290972,-0.6171008431909684
1403638181445096960,60.723305,220.3369349842178,9.863855458333331,0.1879607916666666,-4.053415333333333,-0.2932153143350474,0.2268928027592628,0.3700098014227978,3.4296066022600145,141.86555264572374,-0.39185715043501546
1403638181695097088,60.938597,187.6876717622196,9.700411291666663,-0.196133,-2.9338227916666666,-0.5529203070318035,-0.0397935069454707,0.0411897703470661,2.9454436410636564,140.46222377498526,-0.4504701980865491
1403638181945096960,50.259114,211.5298285384509,9.528794916666666,-0.7028099166666667,-2.7213453750000003,-0.4042182547618868,-0.0558505360638185,0.1410226035611418,5.390620437286927,138.69062305365213,0.09777183860464334
1403638182195097088,49.598932,248.3075805535044,8.392857958333332,-0.3105439166666667,-2.680484333333333,-0.1989675347273535,-0.1452113937659282,0.143116998663535,3.491051579744052,138.82343614640865,0.18827926704142328
1403638182445096960,50.367356,273.15698891312707,7.624670374999999,0.2124774166666666,-3.8082490833333327,-0.085870199198121,-0.0397935069454707,-0.0740019602845595,1.6773935265302975,138.40515794221798,-0.11331385681964434
1403638182695097088,49.902439,258.833642366631,10.779142791666663,0.1552719583333333,-4.519231208333333,0.0097738438111682,-0.0370009801422797,-0.0495673507566389,1.674589624989103,137.92674155418138,-0.23628864011456585
1403638182945096960,39.594174,235.8476754319733,10.149882749999998,-0.2369940416666666,-4.159654041666666,0.0495673507566389,0.1752310569002306,0.1270599695451872,11.536181552500162,136.61982754923307,-0.1475313127084803
1403638183195097088,49.476862,246.38717863226503,10.566665374999998,-0.6946377083333333,-4.339442625,-0.0027925268031909,0.0740019602845595,-0.0404916386462684,5.717746459227366,136.64717704663155,-0.0901539872359649
1403638183445096960,31.031847,219.7297484262012,9.389867375,-0.5230213333333333,-3.8409379166666655,0.007679448708775,-0.1836086373098034,0.0956440430092892,3.405041367687917,136.9424604588163,0.015322616030601921
1403638183695097088,60.328484,173.98932845299527,8.77695175,-0.4903325,-3.268883333333333,0.018151424220741,0.2597049926967562,0.1724385300970397,1.269876177979056,136.91677383619185,0.09240817576520044
1403638183945096960,50.189972,236.2267814049011,9.242767625,0.9398039583333332,-3.6448049166666654,-0.0230383461263251,0.085870199198121,0.0740019602845595,6.149964874314312,137.03388997786786,0.025187456188177748
1403638184195097088,39.724589,226.0747146450257,7.9433865,-0.6946377083333333,-1.6344416666666666,0.0139626340159546,-0.2387610416728242,0.1012290966156711,10.12097009177866,137.67414104675956,0.09969342866864395
1403638184445096960,51.041603,205.7667632689082,8.360169125,0.1307553333333333,-2.729517583333333,-0.0335103216382911,0.1123992038284348,0.0425860337486616,3.773980508556643,137.96204207657993,-0.06397097171492305
1403638184695097088,49.657107,233.4707360015773,9.234595416666666,-0.1307553333333333,-4.927841624999999,-0.0097738438111682,0.0,0.0635299847725936,3.344955584158055,137.99571613497073,0.10803797935170678
1403638184945096960,50.451755,234.70692928929935,9.577828166666666,-0.1307553333333333,-4.9114972083333335,-0.0579449311662117,0.1263618378443894,0.0153588974175501,3.2904593315451973,137.48376120304542,-0.03872355831254026
1403638185195097088,60.790062,226.23266932952447,9.447072833333332,1.0787315,-3.5222217916666665,-0.0579449311662117,-0.0223402144255274,-0.0656243798749867,3.7869656452788574,137.33845928257227,0.039457655281353254
1403638185445096960,39.49809,192.97539371570872,8.376513541666666,-0.1797885833333333,-3.514049583333333,0.0656243798749867,0.1130973355292325,-0.0111701072127637,2.477797525918862,137.08189828272822,-0.15236961087401824
1403638185695097088,47.853231,196.8859981036336,8.164036124999999,0.3759215833333333,-3.8164212916666655,0.2736676267127109,0.1647590813882647,0.1542871058762987,3.520530426645576,136.13094059455727,-0.165623299251763
1403638185945096960,59.950591,206.46547659433452,8.319308083333333,0.1389275416666666,-2.549729,0.1186823891356144,-0.0300196631343024,0.2143264321449036,3.775697058376093,135.08911818151248,-0.1945683882522644
1403638186195097088,49.888611,233.30441577996385,10.656559666666666,0.3350605416666666,-4.143309625,-0.0342084533390888,0.0495673507566389,-0.1151917306316257,2.582585785322232,134.98487170137903,0.04049429274721206
1403638186445096960,39.045572,241.2655869166844,9.013945791666666,-0.196133,-5.123974625,-0.0579449311662117,0.0425860337486616,0.1368338133563554,1.5275102439930146,134.4961455389008,-0.12407073597586304
1403638186695097088,60.138464,240.5919381205624,7.755425708333333,-0.0653776666666666,-2.557901208333333,-0.0460766922526503,0.0823795406941323,-0.1047197551196597,1.4736897409879564,134.60849596624794,0.05889586855505513
1403638186945096960,49.522639,182.29341186198025,9.103840083333331,0.318716125,-2.9174783749999995,0.3448770601940795,0.0551524043630208,-0.0760963553869527,3.0619684907750098,134.24277756138372,0.029927967772920283
1403638187195097088,61.037779,134.27987590309525,8.474580041666666,0.3595771666666666,-2.639623291666666,0.593411945678072,0.2946115777366427,-0.025830872929516,2.923028125445713,132.86940417191238,-0.15880412062452365
1403638187445096960,60.262441,167.03395529780823,9.340834125,-0.34323275,-3.8245935,0.3532546406036522,0.0481710873550434,0.0390953752446729,2.4464922035397882,132.49837924613604,-0.16846352739395343
1403638187695097088,50.044537,210.48258445118452,9.087495666666666,0.5557101666666666,-3.587599458333333,0.1103048087260416,-0.1633628179866692,0.0188495559215387,3.5094571990082692,132.17678294576604,-0.05218486098536346
1403638187945096960,71.181774,204.9877205691,8.858673833333333,-0.2941994999999999,-2.4189736666666666,-0.0795870138909414,0.2052507200345331,-0.085870199198121,3.1127740845850913,130.65029304707954,-0.46626393195117544
1403638188195097088,50.120831,189.62965840326,8.196724958333332,0.7028099166666667,-2.4434902916666665,-0.0537561409614253,0.21851522234969,-0.0027925268031909,3.866349494678493,128.08025946938568,-0.04800953114786921
1403638188445096960,50.390959,184.88573149644685,7.175198916666666,0.2615106666666666,-4.4211647083333325,0.0293215314335047,0.325329372571743,0.3134611336581816,2.920664357901101,126.91347420412495,-0.18550321098098266
1403638188695097088,60.152054,164.91542175018964,8.450063416666666,0.5148491249999999,-3.309744375,0.1305506280491758,-0.2101376419401172,0.0879645943005142,8.974456631617862,128.8001388676627,0.24341609212766002
1403638188945096960,49.938441,179.6535377868235,10.550320958333334,0.6701210833333332,-2.606934458333333,0.1137954672300302,-0.1996656664281513,0.0837758040957278,3.092916223430668,127.85476837454581,-0.3496406822887934
1403638189195097088,39.968253,151.8950237862732,8.932223708333334,-0.7600153749999999,-3.8409379166666655,0.2478367537831947,-0.0558505360638185,0.054454272662223,3.5885275904982694,125.75966500183009,0.13497848658060718
1403638189445096960,50.319195,117.05230348723556,10.615698625,-0.0408610416666666,-3.87362675,0.3162536604613725,-0.3120648702565861,-0.0628318530717958,5.381566503631397,128.79472839878176,0.8081833819461224
1403638189695097088,60.009003,151.5755642605485,7.265093208333333,-0.4494714583333333,-3.2361945,0.1137954672300302,-0.2303834612632515,0.153588974175501,2.8459204280011305,129.54962266395128,0.05734941513961189
1403638189945096960,60.142755,179.71326651602396,8.515441083333332,-0.1144109166666666,-2.5660734166666663,-0.0356047167406843,0.0914552528045028,0.0020943951023931,2.6977944077809903,129.60487554698815,-0.277601914862629
1403638190195097088,61.388731,127.45186498825112,10.828176041666667,-0.0163444166666666,-3.211677875,-0.0411897703470661,0.3406882699892931,-0.0432841654494593,1.0148896905236993,129.92546164532152,-0.08899084952943781
1403638190445096960,39.161682,145.03702903356512,7.150682291666666,0.4985047083333333,-2.214668458333333,0.0481710873550434,0.0942477796076938,-0.289026524130261,0.6428059394223206,129.40650232669952,0.005958079566823926
1403638190695097088,49.812317,184.15387197894083,11.71894675,-0.2124774166666666,-4.16782625,0.1605702911834783,-0.0635299847725936,0.1591740277818828,1.9309138678808326,130.50507402847606,0.28997766797598956
1403638190945096960,50.112486,176.5969923064865,9.357178541666666,-0.4903325,-3.4404997083333333,0.0432841654494593,-0.0781907504893459,0.1165879940332212,2.452778425216524,131.91694079289456,0.14284898266379287
1403638191195097088,60.29129,143.14318610459256,9.422556208333331,0.220649625,-3.28522775,-0.007679448708775,-0.278554548618295,0.0614355896702004,1.815846239420859,130.8774337282228,-0.5315761184268695
1403638191445096960,59.450865,167.37678551121238,7.052615791666666,0.3268883333333333,-2.459834708333333,-0.0272271363311115,-0.0886627260013119,0.1487020522699168,2.102858730790346,132.0226805457535,-0.000937333135453855
1403638191695097088,49.837351,181.6820769583661,8.311135875,0.9724927916666666,-2.239185083333333,-0.0760963553869527,-0.0160570291183478,-0.0586430628670094,1.2998160660245026,130.57407199843033,-0.5501407423227249
1403638191945096960,60.224057,160.90126363458498,8.87501825,0.0898942916666666,-3.5222217916666665,-0.0481710873550434,-0.0111701072127637,0.0991347015132779,1.7559604183575883,130.69100917642393,-0.007578049840475387
1403638192195097088,50.117731,169.00417264491756,9.275456458333332,-0.2860272916666666,-3.4323274999999995,0.0293215314335047,0.0279252680319092,0.1193805208364121,3.7728208631295916,131.53366030710788,0.9251602710717748
1403638192445096960,49.777031,166.9413763279376,10.117193916666666,-0.1144109166666666,-3.6448049166666654,0.0167551608191455,0.064926248174189,0.1459095254667259,4.954160654339638,132.6436603655891,0.17176634284149372
1403638192695097088,49.852372,155.50012454763043,9.144701125,0.4739880833333333,-4.037070916666667,0.0223402144255274,0.2317797246648469,0.2136283004441059,5.086705326475683,135.01288986931556,0.5142097950533469
1403638192945096960,49.762726,137.97262801117824,10.337843541666668,0.4821602916666666,-3.97169325,0.0816814089933346,0.3979350694547071,0.3686135380212024,2.918279715046902,137.29859813656984,0.3524320559509988
1403638193195097088,49.815416,189.1054006425819,10.370532375,0.3268883333333333,-4.437509125,0.1375319450571531,-0.2408554367752175,-0.0551524043630208,5.862891651845118,139.47069121533846,0.633014037325637
1403638193445096960,50.249338,218.5545885892152,9.577828166666666,-0.2369940416666666,-2.0512242916666668,0.0048869219055841,0.0383972435438752,-0.1947787445225671,4.447005847480619,143.03418388571365,1.0345938765873655
1403638193695097088,49.458742,164.740366308311,8.008764166666666,0.7273265416666667,-1.5282029583333332,0.0600393262686049,-0.3211405823669566,0.200363798128949,9.6823184286523,144.5787457118048,0.029106573070521335
1403638193945096960,49.702167,201.0674635550949,9.422556208333331,0.0653776666666666,-2.819411875,0.046774823953448,-0.1158898623324234,0.1172861257340189,4.267659475006257,146.09930487531503,0.3846673999817938
1403638194195097088,52.314997,180.72284258709925,9.16921775,0.2615106666666666,-3.415983083333333,0.0551524043630208,0.1563815009786919,0.064926248174189,6.479070777783607,145.64646990036857,-0.02196362469234714
1403638194445096960,49.615621,181.0145092392065,10.272465875,-0.1062387083333333,-3.3506054166666663,0.0048869219055841,-0.1054178868204575,0.1151917306316257,2.218409809563288,147.51177087700043,0.7994678175719798
1403638194695097088,40.596247,168.04979399275518,8.638024208333333,0.2369940416666666,-3.023717083333333,-0.0230383461263251,-0.124965574442794,0.0893608577021096,2.5761644623795203,149.1725659327883,0.03699366320682884
1403638194945096960,32.547712,218.60068705523332,8.964912541666667,0.6292600416666666,-2.508867958333333,-0.0202458193231342,-0.057246799465414,-0.0048869219055841,1.46942374131728,149.75708276202917,0.2367962008537745
1403638195195097088,49.929857,180.96136728235612,8.278447041666666,0.4576436666666666,-3.6202882916666654,0.046774823953448,-0.21851522234969,0.1870992958137921,2.289174199233509,149.23534750398034,-0.2882528518764218
1403638195445096960,38.527012,190.86179274955492,7.910697666666666,0.5802267916666666,-2.672312125,0.0090757121103705,0.2261946710584651,0.1123992038284348,1.4851382864970593,149.1719673639005,0.4608726104040386
1403638195695097088,49.558401,286.7366827232553,10.73828175,-0.0572054583333333,-3.955348833333333,0.0111701072127637,0.0132645023151569,0.124965574442794,5.71223194431751,154.546341089814,1.0854164589655682
1403638195945096960,39.016723,248.2459124109926,9.880199875,-0.4494714583333333,-2.3699404166666667,-0.0006981317007977,-0.2282890661608583,0.0607374579694026,0.9903578183372914,153.63528855420128,-0.39789874150267224
1403638196195097088,52.455902,245.6067799498016,8.621679791666667,-0.0572054583333333,-2.729517583333333,-0.0013962634015954,0.1933824811209717,0.0167551608191455,5.5279150753186865,151.25429220224166,-0.8464306014905105
1403638196445096960,49.705506,340.77779806634135,9.602344791666663,-0.4494714583333333,-3.138128,0.0048869219055841,-0.0502654824574366,0.0914552528045028,2.251320570449961,152.01116795699855,0.18806393312556224
1403638196695097088,49.332381,249.62024793956544,8.907707083333333,1.0133538333333332,-2.7131731666666665,0.0432841654494593,-0.2017600615305445,0.1480039205691191,0.8959989392531096,152.50914420336485,0.22985241330425765
1403638196945096960,49.937964,283.42556556585384,8.981256958333333,0.4331270416666666,-4.135137416666667,-0.0062831853071795,0.1473057888683213,0.1242674427419962,3.2194509031116807,154.53504968001369,0.44403077591024953
1403638197195097088,59.539557,330.27937562572464,9.340834125,0.1797885833333333,-3.4404997083333333,-0.0558505360638185,0.1438151303643327,0.057246799465414,1.084093842326725,154.8336227202136,0.0935230692824689
1403638197445096960,39.537907,321.77024131865085,9.896544291666666,0.0163444166666666,-2.941995,-0.0188495559215387,0.2234021442552742,0.0251327412287183,0.9471947205261294,154.7064965891293,0.038780565897781116
1403638197695097088,50.099612,326.0864313957031,9.80665,0.4004382083333333,-4.233203916666667,-0.0167551608191455,-0.0774926187885482,0.0558505360638185,2.669035597972612,154.12916689682254,-0.06348367850173986
1403638197945096960,49.41082,221.162419044,9.112012291666666,-0.6292600416666666,-3.685665958333333,0.028623399732707,0.2911209192326541,0.2038544566329376,0.770521583381944,153.7014803298853,-0.09686942632589535
1403638198195097088,49.891949,284.5251432173777,8.082314041666667,0.8662540833333333,-3.8082490833333327,-0.0006981317007977,-0.0209439510239319,0.1068141502220529,2.896925192669426,152.88583528289993,-0.01730349625125882
1403638198445096960,49.929142,275.677215486343,8.539957708333333,0.3105439166666667,-3.38329425,-0.0370009801422797,-0.0614355896702004,-0.0481710873550434,10.334434502668504,156.5091149873663,0.8343157597902007
1403638198695097088,49.938918,263.0394330336548,9.414383999999998,0.34323275,-3.726527,-0.1521927107739055,0.1012290966156711,-0.2736676267127109,2.821118553688205,157.98040743184643,0.22503421683757097
1403638198945096960,39.99877,315.618054552878,10.109021708333332,0.4249548333333333,-3.8899711666666654,0.0160570291183478,-0.0216420827247296,0.0495673507566389,4.709850536186917,159.15388202901536,0.44897362089014337
1403638199195097088,50.091267,283.0468278957245,11.048825666666666,-0.784532,-3.8654545416666655,0.0383972435438752,0.0558505360638185,0.2150245638457014,5.394251025719651,162.47254361007734,0.8292932157537223
1403638199445096960,49.678326,377.3676448086866,10.141710541666669,0.6864655000000001,-4.388475875,-0.0244346095279206,0.0579449311662117,0.0321140582366956,4.248230285103144,165.20255613409722,0.479882683893635
1403638199695097088,49.598694,289.289486367954,9.528794916666666,1.4219642499999998,-3.751043625,0.268082573106329,-0.0195476876223364,0.161268422884276,2.2493443424043136,167.06256923533678,0.16511925025127994
1403638199945096960,40.094376,429.6250514769345,8.809640583333332,0.93163175,-3.718354791666666,0.1424188669627373,-0.1047197551196597,0.1745329251994329,1.1180464911278667,166.77266800294092,0.1693707826530897
1403638200195097088,50.226689,415.8676201656386,9.013945791666666,0.63743225,-2.533384583333333,0.2729694950119131,0.1396263401595463,-0.1256637061435917,1.1682937659800838,167.3549631521946,0.3907566711265815
1403638200445096960,50.049305,562.9182863759278,9.398039583333333,1.005181625,-3.4731885416666666,0.268082573106329,0.0146607657167523,-0.2017600615305445,3.9598273883189314,166.82499950732102,-0.2977032359489158
1403638200695097088,49.441099,587.4995427557686,9.275456458333332,0.6456044583333332,-3.563082833333333,0.2303834612632515,0.0062831853071795,-0.247138622082397,0.8632583817129338,166.6174769380353,-0.05760361934190428
1403638200945096960,59.80134,722.6281141236401,8.899534874999999,0.1634441666666666,-3.8409379166666655,0.1598721594826805,0.007679448708775,0.2590068609959585,3.9240863958298497,169.87674602297284,0.20490747613189342
1403638201195097088,49.443006,782.5143532469042,9.814822208333332,-0.1307553333333333,-3.097266958333333,0.007679448708775,0.08307767239493,0.2129301687433081,3.341011419905169,171.72539655924237,0.4414414821478658
1403638201445096960,50.781011,790.8661444923158,9.005773583333333,0.6210878333333334,-2.0512242916666668,-0.0174532925199432,0.0565486677646162,0.1207767842380075,2.4944877029157255,170.5944479138331,-0.3006504742055256
1403638201695097088,58.680772,902.1800649760778,9.961921958333331,0.1879607916666666,-4.1024485833333335,-0.036302848441482,0.0069813170079773,0.0970403064108847,5.197172227810432,171.56431740694006,0.0934303779971799
1403638201945096960,63.570261,724.1041628131642,8.883190458333333,0.9970094166666666,-3.211677875,0.143116998663535,-0.0453785605518525,0.028623399732707,3.4363329252715817,172.89862284603436,0.4035468831673086
1403638202195097088,49.413681,499.4486510512007,10.73828175,0.0408610416666666,-4.086104166666667,0.2122320370425104,-0.0279252680319092,0.2813470754214859,2.7305079505435823,175.09434580081367,0.4624079492703572
1403638202445096960,50.09532,855.9538436975687,7.935214291666666,1.184970208333333,-2.0757409166666667,0.0991347015132779,0.0216420827247296,0.1117010721276371,3.728073139075325,177.16018250094095,0.6329791321964819
1403638202695097088,39.525032,569.885548052385,9.038462416666666,-0.3514049583333333,-3.317916583333333,0.0139626340159546,-0.0349065850398865,0.1417207352619395,6.698752297385917,181.47277380724515,0.3038402949784711
1403638202945096960,49.214601,403.01336989360976,9.455245041666666,0.6047434166666666,-4.135137416666667,-0.0090757121103705,-0.0516617458590321,0.2666863097047335,2.4651870982387374,183.79659290669804,0.26853669842466843
1403638203195097088,50.143481,355.1022840628225,11.293991916666666,1.0378704583333334,-3.366949833333333,-0.0230383461263251,0.1598721594826805,0.0048869219055841,4.6623025567602,183.93553063068742,0.49923426862031306
1403638203445096960,60.579538,312.2814747993481,7.265093208333333,1.12776475,-1.7978858333333332,0.0104719755119659,-0.1026253600172665,0.1089085453244461,14.98077628596296,182.53010248877428,-0.8515762477821056
1403638203695097088,50.231933,358.0666553308777,8.245758208333333,0.5965712083333333,-3.546738416666667,0.0,0.0146607657167523,0.1354375499547599,19.215216449513715,182.93035010964377,1.4144056792054869
1403638203945096960,58.516264,370.29853506903066,8.915879291666666,0.7436709583333333,-2.5660734166666663,0.0349065850398865,0.0321140582366956,0.0705113017805709,15.693719124188648,185.8872718109628,3.3085854549585747
1403638204195097088,61.862469,330.5243914311315,10.4931155,0.4985047083333333,-3.5957716666666664,0.0390953752446729,-0.0607374579694026,0.210835773640915,6.405184107363759,189.61112295212718,0.6806803871631928
1403638204445096960,50.022364,322.9910642823625,8.964912541666667,-0.1634441666666666,-3.178989041666666,0.0509636141582344,-0.0495673507566389,0.268082573106329,9.198181386602029,197.12678704568063,0.8669170742616359
1403638204695097088,50.764322,332.52817530725514,7.89435325,-0.0653776666666666,-2.966511625,0.0928515162060983,-0.0537561409614253,-0.1975712713257581,14.389803345788108,205.00186961515308,1.755638413807418
1403638204945096960,63.219071,276.1327334789212,6.243567166666667,-0.0163444166666666,-2.0675687083333334,0.4977679026687828,0.0684169066781777,-0.3630284844148205,11.250361831884314,215.99883025784447,2.1255334554255967
1403638205195097088,61.665774,355.07933425067506,9.692239083333332,1.846919083333333,-4.437509125,0.8642870455875921,0.0684169066781777,-0.4105014400690662,5.183490420590608,222.0338111585184,0.0722686347688466
1403638205445096960,39.414645,455.8594434981937,10.386876791666666,-0.1797885833333333,-5.058596958333333,0.897797367225883,0.1563815009786919,-0.2820452071222836,4.279846691244502,224.34558767593074,0.2699893789101395
1403638205695097088,50.122261,523.0627878376338,9.855683249999998,0.5557101666666666,-2.705000958333333,0.1766273203018261,0.1870992958137921,-0.4628613176288962,6.224294840594742,224.7243679440214,0.33292912468021996
1403638205945096960,49.958468,359.589352658135,9.545139333333331,0.4739880833333333,-3.489532958333333,0.4565781323217166,0.104021623418862,-0.0230383461263251,5.394076165702816,224.9394543323519,-0.4720519040883744
1403638206195097088,42.63401,298.35174462708267,9.103840083333331,0.1062387083333333,-3.693838166666666,0.4488986836129415,0.1068141502220529,-0.075398223686155,5.930786861116881,221.68327197186574,-3.1552375252445586
1403638206445096960,35.687685,356.56606047388226,10.44408225,0.3759215833333333,-2.811239666666667,0.3511602455012591,0.064926248174189,0.2541199390903744,6.110278956353881,221.47475933515196,0.21746608255958222
1403638206695097088,49.728871,340.0444147608001,9.234595416666666,0.4086104166666666,-4.069759749999999,0.1996656664281513,0.0621337213709981,0.1808161105066125,8.981172038849742,219.00420178937816,0.11789958615327123
1403638206945096960,49.878836,278.4225557478296,8.768779541666666,0.416782625,-3.097266958333333,0.1137954672300302,0.0397935069454707,0.0314159265358979,5.216451291471485,221.09241756703128,1.2504142624120789
1403638207195097088,50.947189,339.87423557661214,9.308145291666667,0.0163444166666666,-3.366949833333333,0.114493598930828,-0.0209439510239319,0.0446804288510548,3.1516032898286914,225.64634730532865,0.28597624126126675
1403638207445096960,38.31315,290.2763548421258,10.215260416666666,0.4739880833333333,-3.751043625,0.3609340893124273,0.0928515162060983,-0.0216420827247296,3.824694080989486,229.7106822548694,1.2081160333672472
1403638207695097088,49.874544,283.3397079380661,9.332661916666666,0.2043052083333333,-3.0400615,0.2590068609959585,-0.2925171826342496,-0.0635299847725936,2.7500009104675174,228.38064697866486,-0.3655375062720623
1403638207945096960,49.812317,369.63467462541496,10.002783,0.563882375,-3.4813607499999994,0.085870199198121,-0.2122320370425104,0.1172861257340189,6.958564533822148,230.25539767856057,1.1074858076246983
1403638208195097088,50.130129,392.0519231354968,9.651378041666666,1.348414375,-4.527403416666666,-0.0607374579694026,0.143116998663535,0.0851720674973232,0.9831771441160552,231.18585595425202,-0.08998288126380771
1403638208445096960,26.793957,381.1339371678481,10.051816249999998,-0.5475379583333333,-3.38329425,-0.0223402144255274,-0.1410226035611418,0.0628318530717958,0.9975772510114209,231.22165526880258,0.49519824095190756
1403638208695097088,49.865007,462.8953344253781,11.498297125,0.171616375,-3.8245935,0.3029891581462156,-0.0174532925199432,0.036302848441482,1.7210260822362773,233.43805103332141,0.4731939522490052
1403638208945096960,49.926996,633.0040978411394,7.673703624999999,0.4331270416666666,-2.8357562916666668,0.1207767842380075,0.046774823953448,-0.0006981317007977,2.955223643476682,232.9565066883732,-0.015693387185962138
1403638209195097088,49.058676,728.1906935078337,8.809640583333332,0.2043052083333333,-3.97169325,0.0132645023151569,0.036302848441482,0.0747000919853573,0.8584891726827351,233.74462855445555,0.21622809535287502
1403638209445096960,50.194502,782.8903241233581,9.210078791666666,0.4576436666666666,-3.554910625,0.0034906585039886,0.007679448708775,0.1165879940332212,2.1257062171195487,236.14042449051885,1.2676822196322064
1403638209695097088,60.31251,693.9506925680146,7.918869874999999,-0.0081722083333333,-2.0920853333333334,-0.0188495559215387,0.0656243798749867,0.0418879020478639,0.5948432235353103,236.29132831156053,0.24264622675826786
1403638209945096960,50.17519,827.2365813552307,9.128356708333332,0.4249548333333333,-4.126965208333333,-0.0132645023151569,0.2024581932313422,0.0614355896702004,1.2162649139112094,235.10826194050148,0.14964692794194434
1403638210195097088,40.227651,833.6612656241451,9.602344791666663,0.0817220833333333,-3.996209875,-0.0321140582366956,0.1410226035611418,0.0404916386462684,3.1598455223403996,232.31233961435103,-0.629279043403784
1403638210445096960,50.2913,748.0128347535557,7.886181041666666,0.8172208333333333,-3.67749375,-0.0202458193231342,0.0488692190558412,0.0460766922526503,7.174666310192668,225.1807710706591,-0.8002494231030823
1403638210695097088,39.86597,731.9848541021147,9.349006333333334,0.6292600416666666,-3.742871416666666,0.0055850536063818,0.0733038285837618,0.0223402144255274,5.5202658392112935,219.86111394418924,-0.869414850275831
1403638210945096960,61.435938,607.0215996762462,9.316317499999998,0.7436709583333333,-2.9256505833333333,0.057246799465414,-0.124965574442794,0.1117010721276371,2.011959612835244,217.19716018758697,-0.32838069530444614
1403638211195097088,61.069488,718.0386061440573,9.716755708333332,-0.6701210833333332,-4.020726499999999,0.0223402144255274,0.0481710873550434,0.0879645943005142,1.1396563665105326,215.3466368212298,-0.36023690065852065
1403638211445096960,49.083233,618.9891935136313,8.466407833333333,-0.220649625,-2.705000958333333,-0.2045525883337354,0.0237364778271228,0.1968731396249603,1.8297954099525535,212.95707935186513,-0.494916092109861
1403638211695097088,37.743807,520.3390565167601,9.520622708333333,0.8907707083333333,-2.574245625,-0.4363323129985824,0.0984365698124801,0.3183480555637657,2.9657966080117872,210.08640919910678,-0.6988626070821908
1403638211945096960,50.017119,494.7233384863003,9.814822208333332,0.4494714583333333,-2.8847895416666667,-0.55710909723659,0.1061160185212552,0.372104196525191,2.1569332416255906,206.66398647754772,-0.5963564935870238
1403638212195097088,62.456846,533.348773109847,9.447072833333332,-2.239185083333333,-3.3751220416666667,-0.4879940588576146,0.0342084533390888,0.1996656664281513,1.457901635931251,203.8671256871885,-0.7088504827164002
1403638212445096960,50.474167,579.7414530113768,10.533976541666666,-0.6946377083333333,-2.868445125,-0.5396558047166466,-0.0698131700797731,0.208043246837724,3.1303549531692947,201.02945499598763,-0.5150293372217618
1403638212695097088,49.634218,545.696389883876,9.414383999999998,-1.005181625,-3.4731885416666666,-0.5312782243070739,-0.0404916386462684,0.2492330171847902,2.303121116683397,197.1617862481366,-0.930121481032046
1403638212945096960,45.800686,559.0659757560583,10.909898125,-0.122583125,-3.661149333333333,-0.5941100773788698,0.0027925268031909,0.2275909344600605,10.777794369036018,199.6282111125186,1.1520546031855474
1403638213195097088,50.038814,240.4418437751496,8.401030166666667,-0.6210878333333334,-1.569064,-0.5619960191421741,-0.1382300767579508,0.5263913024014898,9.00811456449214,202.41457369715712,1.1059185208694942
1403638213445096960,49.468756,158.19315481481885,8.817812791666666,-0.93163175,-4.118792999999999,-0.5159193268895238,0.0041887902047863,0.5480333851262195,2.5119796732734123,200.28443624267447,-0.6703814626116582
1403638213695097088,50.224066,133.7204413608919,10.484943291666664,-0.1062387083333333,-3.963521041666666,-0.4258603374866163,0.3162536604613725,-0.0788888821901436,3.6715831683350526,197.39311475233453,-0.06586664183868152
1403638213945096960,49.237967,196.42185979010875,9.177389958333332,-0.5720545833333333,-3.7919046666666665,0.0397935069454707,0.0314159265358979,0.2122320370425104,2.5789284551575706,197.3519673665463,-0.09029811929684683
1403638214195097088,49.700499,184.71874062100625,7.314126458333333,0.7763597916666666,-2.0675687083333334,0.046774823953448,-0.2673844414055313,0.0139626340159546,4.906985394050061,192.99336562341892,-1.2849442963288595
1403638214445096960,59.825182,223.52677474319364,9.553311541666666,-0.8253930416666666,-2.6641399166666666,0.0733038285837618,0.1424188669627373,0.0251327412287183,7.730164615032484,187.292659637327,-0.8845891492838405
1403638214695097088,49.588919,151.84534171305563,7.330470875,0.392266,-2.79489525,0.0712094334813686,0.2806489437206881,0.0411897703470661,2.5446270757798928,185.3005934440214,-0.37772097504944213
1403638214945096960,50.329924,220.11238253104017,9.586000375,-0.6456044583333332,-3.546738416666667,0.0335103216382911,0.0705113017805709,0.0677187749773799,5.093990300960778,182.5594529376081,-0.09417055984005174
1403638215195097088,58.557987,203.00282549329523,8.221241583333333,0.0653776666666666,-2.4108014583333333,0.0013962634015954,-0.0677187749773799,0.0397935069454707,3.4646460884972883,177.63718807364128,-1.1071039787581185
1403638215445096960,49.856901,219.69718013211775,10.329671333333332,-0.5802267916666666,-2.9338227916666666,-0.0747000919853573,0.0998328332140756,-0.0663225115757845,0.9351629420381088,175.34689584829073,0.1626630390602486
1403638215695097088,60.675145,241.5734061631551,10.321499125,-1.2176590416666666,-2.803067458333333,0.0097738438111682,0.0188495559215387,0.1661553447898601,2.4897654915010667,171.9051269144424,-0.8277703850671401
1403638215945096960,60.777426,221.568990089106,9.226423208333332,0.0326888333333333,-3.612116083333333,-0.0781907504893459,0.1117010721276371,0.132645023151569,2.852658103174719,171.53043257690513,-0.1508972399601305
1403638216195097088,50.150395,250.8112234862864,8.351996916666666,-0.0081722083333333,-2.1983240416666665,-0.0656243798749867,-0.0097738438111682,0.0481710873550434,3.6927789154384203,171.70892340368007,-0.7320645380536632
1403638216445096960,59.64756,289.86946291785614,9.577828166666666,-0.784532,-4.0125542916666666,-0.0090757121103705,0.0446804288510548,0.1277581012459849,1.7578012242840617,169.49077276639437,-0.6106240257060449
1403638216695097088,60.181141,369.8167339340876,8.638024208333333,0.2533384583333333,-2.8357562916666668,-0.0125663706143591,-0.0027925268031909,0.0104719755119659,0.8896623848281138,167.86700142846365,-0.10164289577573982
1403638216945096960,49.435139,411.35171438193856,9.299973083333333,0.1389275416666666,-2.705000958333333,-0.1738347934986352,0.0907571211037051,0.1891936909161853,1.351007062968768,168.30805857666644,-0.10075170656310206
1403638217195097088,50.567389,422.6800636485988,9.651378041666666,0.269682875,-3.693838166666666,-0.2708750999095199,-0.0795870138909414,0.1961750079241626,1.3780974227627054,169.00663998311083,0.4280620136408402
1403638217445096960,51.141977,763.687319880982,11.293991916666666,0.0326888333333333,-3.685665958333333,-0.1256637061435917,0.0146607657167523,0.1005309649148733,3.622560359844393,170.84799430171466,-0.05298709941536117
1403638217695097088,42.469979,859.6959441452216,11.318508541666665,0.04903325,-4.0615875416666665,-0.0579449311662117,0.0663225115757845,-0.0767944870877505,3.4321252152061956,171.46184102613697,-1.05669963106061
1403638217945096960,42.15765,1138.3791263309663,9.700411291666663,0.1144109166666666,-3.4568441249999995,-0.0174532925199432,0.0977384381116824,-0.1103048087260416,2.5093536136158145,169.13937818913462,0.01859121186234347
1403638218195097088,38.651228,1030.0284481366448,9.430728416666666,-0.5148491249999999,-3.4650163333333333,0.0062831853071795,0.0425860337486616,0.1151917306316257,1.9207227743367596,167.16941619692585,0.005771835587580654
1403638218445096960,56.897879,1195.8655995028253,9.414383999999998,-0.73549875,-3.1217835833333334,0.0851720674973232,0.0432841654494593,0.1808161105066125,1.2962997843877695,166.48350214040352,0.27056939348318565
1403638218695097088,50.154447,849.7171401292078,10.681076291666663,0.392266,-4.511059,0.0097738438111682,-0.1675516081914556,0.1996656664281513,4.084899456243509,164.32930048960233,0.5031149234826273
1403638218945096960,56.927205,960.3426716591208,10.599354208333333,0.3514049583333333,-3.1544724166666662,-0.0062831853071795,0.0767944870877505,0.4628613176288962,1.6462229703403146,164.9972921744824,-0.08368096309149564
1403638219195097088,50.029277,1000.1825002119238,6.766588499999999,1.3075533333333331,-4.225031708333333,-0.0677187749773799,0.1494001839707146,0.0495673507566389,1.7478900192193452,166.45196210164787,0.34858521783166907
1403638219445096960,56.276798,1041.4481353957704,8.155863916666666,0.5230213333333333,-1.4873419166666666,-0.0335103216382911,0.2087413785385218,-0.0167551608191455,1.7250987873559986,167.5657994941331,0.11825037350186562
1403638219695097088,52.864552,1040.916899276003,8.760607333333333,0.269682875,-2.6886565416666666,0.0411897703470661,-0.0984365698124801,0.257610597594363,2.4382466315008995,168.89860232170696,0.5082625059061741
1403638219945096960,50.174475,1029.5971661635444,8.572646541666666,0.122583125,-1.7325081666666666,0.0760963553869527,-0.1256637061435917,0.2743657584135086,1.8188984801723354,170.47405691028612,-0.010566592703753486
1403638220195097088,56.940794,660.518934965259,10.427737833333332,-0.0898942916666666,-3.514049583333333,-0.1759291886010284,0.0705113017805709,-0.3532546406036522,1.5372708376804534,171.20757549197987,0.06346025815955159
1403638220445096960,57.295084,1144.39596235676,10.967103583333332,0.3759215833333333,-4.053415333333333,-0.0565486677646162,0.0160570291183478,-0.0006981317007977,1.2337679090003928,172.4219899374118,0.3934928012068042
1403638220695097088,50.380946,1131.133356831907,7.886181041666666,-0.2369940416666666,-2.7376897916666665,-0.0335103216382911,0.0439822971502571,0.1033234917180643,1.2692747784579534,171.8847907583797,0.12208330544498835
1403638220945096960,50.064802,1133.7136929240007,7.485742833333332,-0.24516625,-2.69682875,0.0139626340159546,-0.0342084533390888,0.1186823891356144,1.0857043682117957,172.42316206614905,0.175661780196549
1403638221195097088,50.082445,1120.3434509633776,9.520622708333333,-0.171616375,-2.7376897916666665,-0.0083775804095727,-0.0027925268031909,0.1019272283164688,1.595655434579387,172.53935210965267,-0.018641410320981322
1403638221445096960,56.08964,1107.4696992828076,8.629852,0.563882375,-2.0593965,0.018151424220741,0.0132645023151569,0.0823795406941323,1.1366517156010871,173.24568840024887,0.16609465529296585
1403638221695097088,56.179523,1171.6245250162465,10.558493166666668,-0.122583125,-2.8439285,0.0642281164733913,0.0705113017805709,0.0795870138909414,0.8521268995544047,174.3307074849052,0.06610072059822869
1403638221945096960,58.281899,1203.7707973513875,8.28661925,0.1062387083333333,-2.909306166666666,-0.0069813170079773,0.025830872929516,0.0006981317007977,0.5491592638157498,174.5578215585246,-0.05912043822269197
1403638222195097088,49.969912,1057.5519031221304,8.817812791666666,-0.2124774166666666,-3.268883333333333,-0.0383972435438752,-0.1061160185212552,0.0621337213709981,1.2785966659010761,175.7697363404669,0.0638557417156278
1403638222445096960,60.818672,1175.7736903201985,8.997601374999999,-1.046042666666667,-3.0400615,-0.0411897703470661,-0.075398223686155,0.0328121899374933,1.863514082221962,176.38809595390077,-0.09798489166897184
1403638222695097088,49.938917,1304.961663445344,8.87501825,0.2533384583333333,-2.778550833333333,0.0125663706143591,0.2031563249321399,0.0921533845053006,1.181473157473048,177.04795835694705,0.20411177557753035
1403638222945096960,60.301065,1194.3655532523003,8.719746291666667,0.7600153749999999,-2.672312125,0.0404916386462684,0.1117010721276371,0.1033234917180643,0.9259308460994362,176.97584566133207,-0.26806118129437095
1403638223195097088,49.72887,682.1688587193595,8.5317855,0.53936575,-2.50069575,0.0244346095279206,-0.3595378259108319,0.2066469834361286,1.9071634327960842,175.2947579007602,-0.33377659688812855
1403638223445096960,49.486637,715.2057593591214,8.327480291666665,0.220649625,-2.3372515833333334,0.1012290966156711,0.1277581012459849,0.2911209192326541,1.7963145088995487,174.1886477759856,-0.1931520607691084
1403638223695097088,39.340734,401.2833676323757,9.577828166666666,0.9234595416666666,-3.2770555416666665,-0.0781907504893459,0.0083775804095727,-0.1305506280491758,0.9640051056573072,173.64619955645594,-0.2755973641259004
1403638223945096960,50.142288,380.56559557169726,8.441891208333333,0.3023717083333333,-3.334261,-0.0509636141582344,0.104021623418862,-0.0747000919853573,4.26893623268152,169.77220683428052,-1.5807895532028056
1403638224195097088,51.617861,240.85886399611744,11.089686708333334,-0.171616375,-3.8082490833333327,0.0216420827247296,-0.0621337213709981,0.0733038285837618,2.865391987356821,167.06668661785218,-0.24335590618167657
1403638224445096960,49.040317,313.4183339511374,9.316317499999998,0.465815875,-3.7673880416666665,0.0837758040957278,0.1926843494201739,0.2408554367752175,2.228404382968021,169.15865044005324,0.35487516791911844
1403638224695097088,38.485288,158.7461991291728,10.051816249999998,0.7191543333333333,-3.726527,0.0062831853071795,-0.2624975194999471,0.0439822971502571,1.3866224005852958,170.26575393735027,0.3435250450164631
1403638224945096960,50.112724,204.50956236235697,9.749444541666666,0.3595771666666666,-3.92266,0.1026253600172665,0.2624975194999471,0.2792526803190927,1.1037390725523253,169.57753691367722,0.5617356534540647
1403638225195097088,50.372362,285.60320998901443,9.013945791666666,0.4494714583333333,-3.930832208333333,-0.0328121899374933,-0.1117010721276371,-0.104021623418862,4.645371599155822,168.56756222672445,-0.2098587526787412
1403638225445096960,60.37879,202.57048366365692,9.275456458333332,1.1359369583333332,-3.415983083333333,-0.0349065850398865,0.3993313328563026,0.0586430628670094,6.091802730276692,166.0058807243486,-0.7840458656226872
1403638225695097088,39.749384,256.0738176279033,7.616498166666665,-1.0787315,-2.2963905416666663,-0.025830872929516,-0.0335103216382911,0.0349065850398865,3.060368388686237,164.09208771168596,-0.24909327847231566
1403638225945096960,50.008774,108.99798923743217,8.605335375,0.0326888333333333,-3.4813607499999994,0.0020943951023931,-0.2611012560983517,0.0530580092606276,1.2929367822829048,163.34815243996331,0.08202739628498534
1403638226195097088,49.446345,112.21375412536838,6.979065916666666,-0.318716125,-2.8847895416666667,-0.0781907504893459,-0.5117305366847374,-0.2555162024919699,3.3094197199330466,161.70901196136538,0.07002544699582813
1403638226445096960,59.780598,219.3835172946021,4.429336916666666,0.784532,-2.132946375,-0.0677187749773799,0.0865683308989187,0.1054178868204575,2.1029898244430294,160.98573505991376,-0.225451339755665
1403638226695097088,51.043749,263.63983882960264,8.499096666666667,1.7978858333333332,-3.3506054166666663,0.018151424220741,-0.0698131700797731,0.0872664625997164,0.6959002260985144,160.34844569134566,-0.12274575924789133
1403638226945096960,50.340653,281.8447930223204,8.450063416666666,0.269682875,-3.734699208333333,-0.0188495559215387,0.0020943951023931,0.1130973355292325,2.3624148962184526,160.61200372791046,-0.008878580130897262
1403638227195097088,39.373875,281.3698068396792,8.768779541666666,0.3105439166666667,-3.751043625,0.028623399732707,0.0097738438111682,0.1459095254667259,3.224462844648652,160.45590355687744,0.1031789440708053
1403638227445096960,37.513017,279.7076320215819,8.891362666666666,0.24516625,-3.742871416666666,0.0090757121103705,-0.0041887902047863,0.0921533845053006,2.6764122222984628,160.78468786454732,0.26979771878413317
1403638227695097088,39.176703,281.3438522470956,8.940395916666665,0.2941994999999999,-3.832765708333333,0.0132645023151569,0.0160570291183478,0.1103048087260416,2.807956882526674,161.7133884681943,0.30750514298765097
