stamp,img_delta,blur,lin_acc.x,lin_acc.y,lin_acc.z,ang_vel.x,ang_vel.y,ang_vel.z,rpe,ate,drift
1403636859801666560,49.873113,408.33536213252506,9.144701125,0.024516625,-3.28522775,-0.1584758960810851,0.2268928027592628,-0.0453785605518525,15.678244175257175,10.791902577953502,0.6122858506933007
1403636860051666432,49.85857,905.8482114822206,6.644005375,0.4576436666666666,-1.9286411666666663,-0.0774926187885482,-0.0153588974175501,0.085870199198121,9.396450033170392,13.044816569264933,0.5085335853132165
1403636860301666560,54.078817,308.1738448886844,8.180380541666665,0.1879607916666666,-2.9338227916666666,0.0705113017805709,-0.2925171826342496,0.2066469834361286,7.407493254479526,10.364496063532668,-0.7450650741342439
1403636860551666432,49.196005,242.92309133828712,10.019127416666668,-0.5311935416666667,-5.254729958333334,0.0265290046303138,-0.3274237676741362,0.1494001839707146,17.977322980048037,8.868375977830274,-0.2291990751225299
1403636860801666560,48.708916,714.7023242334783,10.909898125,-0.3514049583333333,-5.524412833333333,0.0062831853071795,0.0383972435438752,-0.1026253600172665,9.36645813510973,10.850658132982728,-0.0712107738864507
1403636861051666432,48.945189,258.71307758798514,9.602344791666663,-0.2043052083333333,-4.797086291666667,0.0188495559215387,0.2513274122871834,0.0600393262686049,11.48573004209134,10.077729830141962,0.22115591905386722
1403636861301666560,39.422512,267.15928665448945,8.597163166666666,-0.0408610416666666,-3.4404997083333333,0.0188495559215387,0.5026548245743669,0.1123992038284348,18.245115102002895,11.65985977494329,0.8449859311568115
1403636861551666432,36.934853,937.7339526591225,5.965712083333332,0.024516625,-1.9286411666666663,-0.0977384381116824,0.0747000919853573,0.0411897703470661,8.980398231798423,14.630466232006652,-0.030730457276341383
1403636861801666560,44.075489,349.9626838826761,8.368341333333333,-0.2860272916666666,-2.974683833333333,-0.007679448708775,-0.2122320370425104,0.0160570291183478,11.035862916228108,10.675676275754558,-1.0016632074252065
1403636862051666432,39.544821,264.15596488663675,10.092677291666664,-0.3105439166666667,-4.257720541666666,0.0635299847725936,-0.3658210112180114,0.2010619298297467,18.14249373806519,9.234023495713691,0.19630190986522678
1403636862301666560,40.300369,623.3620989564422,11.751635583333332,-0.0898942916666666,-5.6306515416666665,-0.0167551608191455,-0.1228711793404008,-0.0349065850398865,10.12598806575001,9.475009138773805,0.15926245577597342
1403636862551666432,50.568342,250.6280990371409,9.888372083333332,0.2124774166666666,-4.576436666666666,-0.1626646862858715,0.228987197861656,0.0307177948351002,11.294355031923988,9.987643009316026,0.19570356263126776
1403636862801666560,50.288916,379.1335562826157,9.005773583333333,0.24516625,-4.233203916666667,-0.0774926187885482,0.1424188669627373,0.1494001839707146,19.347703486508706,12.383554851833972,1.1688393298159596
1403636863051666432,45.65382,609.1443125262304,5.720545833333333,0.1879607916666666,-1.9695022083333331,-0.0216420827247296,0.2597049926967562,-0.0432841654494593,11.923385335047497,18.321951602022402,0.5397304017260538
1403636863301666560,69.722175,506.9167431238986,8.433719,1.1522813749999998,-2.8439285,-0.0642281164733913,-0.0509636141582344,0.0628318530717958,7.91984828450008,14.265740998295707,-1.3396092363064191
1403636863551666432,60.201406,280.0822443187539,9.790305583333332,0.0,-3.9880376666666666,0.1494001839707146,-0.2904227875318564,0.2673844414055313,19.584121698154906,9.303051307555805,-0.48112447430322547
1403636863801666560,54.861308,261.36466863788473,11.76798,-0.3268883333333333,-6.063778583333333,-0.0020943951023931,-0.2296853295624537,0.0705113017805709,16.86283008430853,8.903861052869386,-0.0920585573550472
1403636864051666432,44.824362,278.8061056347937,10.419565625,-0.3350605416666666,-5.426346333333333,0.0886627260013119,0.1494001839707146,0.0481710873550434,5.744348163083455,9.729058128352822,0.17522894940577416
1403636864301666560,39.555073,390.9456586550511,7.984247541666667,-0.24516625,-3.7919046666666665,0.0300196631343024,0.1165879940332212,0.0886627260013119,19.318751879192927,13.197887035332942,1.14630820282194
1403636864551666432,39.889098,310.7482179200618,7.191543333333333,-0.465815875,-2.655967708333333,0.0642281164733913,0.478918346747244,0.3036872898470133,14.170467032672407,19.023372537898382,0.9588504934893791
1403636864801666560,50.070286,479.5077897823103,7.436709583333332,-0.2778550833333333,-2.2228406666666665,0.0111701072127637,-0.143116998663535,-0.0111701072127637,5.454501591646492,16.086454038234695,-1.1260786291573694
1403636865051666432,49.779654,322.64625811883315,9.005773583333333,-0.3023717083333333,-4.045243125,-0.0027925268031909,-0.2261946710584651,0.057246799465414,16.467497255766954,10.368377301995157,-0.8675295883481482
1403636865301666560,50.032616,472.7029698912818,10.174399375,-0.416782625,-4.690847583333333,0.1354375499547599,-0.0397935069454707,0.2373647782712288,15.473467199870534,8.88597701020789,0.058726509933348936
1403636865551666432,60.179711,703.8651131068156,11.204097625,-0.612915625,-5.777751291666666,0.0209439510239319,-0.1647590813882647,-0.0090757121103705,3.515074425652169,9.465246919256519,0.4763783765321339
1403636865801666560,49.877644,257.22257345509354,9.577828166666666,0.2124774166666666,-4.46202575,0.0265290046303138,0.314857397059777,0.1012290966156711,13.711498625373514,11.218490429477141,0.7206977319026553
1403636866051666432,46.098709,230.37808813170025,8.245758208333333,-0.0817220833333333,-3.2443667083333327,-0.0558505360638185,0.6066764479932288,0.1598721594826805,17.621170317330083,15.971522460396134,-0.12127980209844935
1403636866301666560,59.158086,797.2873102654196,6.472389,0.1144109166666666,-1.4464808749999998,-0.1556833692778942,-0.1396263401595463,-0.0216420827247296,8.914198813232836,22.22631240539088,0.5253973000404564
1403636866551666432,50.146341,439.1490649262327,8.482752249999999,-0.0081722083333333,-2.974683833333333,-0.046774823953448,-0.1996656664281513,0.0370009801422797,8.805534597664604,16.404784047051116,-1.7377942352347944
1403636866801666560,50.30632,402.9994307727658,9.912888708333332,-0.0326888333333333,-4.429336916666666,0.1096066770252439,-0.1731366617978375,0.0781907504893459,13.361179488049899,10.617282974756549,-0.8157140675909886
1403636867051666432,50.245523,439.8757752371727,10.084505083333331,-0.1470997499999999,-4.576436666666666,-0.0209439510239319,-0.2450442269800038,0.1556833692778942,9.328490516744113,9.345506724582085,-0.09073606786617816
1403636867301666560,50.082684,715.6601516742435,9.079323458333333,-0.1144109166666666,-4.543747833333333,0.0795870138909414,-0.1172861257340189,0.0781907504893459,3.5401620045097317,9.696642333262092,0.14529835790070322
1403636867551666432,49.785614,263.2658679278425,7.763597916666666,0.1797885833333333,-4.985047083333333,-0.0893608577021096,-0.5145230634879283,-0.0446804288510548,1.011145325015785,10.358087354934451,0.030943158165293028
1403636867801666560,50.337553,168.97138814611955,7.828975583333331,-0.1552719583333333,-6.791105125,-0.1172861257340189,-1.1526154380170552,0.1396263401595463,3.2399478305704847,10.842644412037055,-0.2272896453929274
1403636868051666432,40.233135,321.25255036779595,5.696029208333333,-0.4576436666666666,-7.698220249999999,-0.0132645023151569,0.3106686068549906,0.1214749159388053,0.21020998893569431,10.76549787219361,0.007743755938525609
1403636868301666560,39.627076,665.6517561996243,6.006573125,-0.93163175,-7.175198916666666,0.0307177948351002,0.0034906585039886,0.2171189589480945,0.6515579067087796,10.890779650221262,0.024601926451479628
1403636868551666432,47.460318,542.8708004303384,6.513250041666667,-0.2369940416666666,-7.093476833333334,-0.1075122819228507,0.1954768762233649,0.1661553447898601,2.53191712992631,10.936045074690911,0.0007679761458625478
1403636868801666560,49.803019,474.57866216082857,6.472389,-0.269682875,-7.093476833333334,0.018151424220741,-0.1494001839707146,-0.007679448708775,2.018322596402794,11.013892943824862,0.04121672106314733
1403636869051666432,51.797867,649.1736563303532,6.398839124999999,-0.392266,-7.117993458333333,0.1082104136236484,0.1075122819228507,0.0579449311662117,1.6776594052528409,11.060632642338978,0.009072310195611166
1403636869301666560,50.433874,891.5517906434644,6.815621749999999,-0.4004382083333333,-6.938204874999999,0.0111701072127637,0.0139626340159546,0.018151424220741,1.0379871503780913,11.110680482770032,0.015435648510429445
1403636869551666432,39.84785,743.7233294104561,6.61948875,0.2615106666666666,-7.134337875,-0.0146607657167523,0.0321140582366956,0.0816814089933346,0.5776365949125266,11.172762024505303,-0.001861691993715553
1403636869801666560,46.184301,267.5734565390329,6.921860458333333,0.318716125,-7.142510083333334,-0.0809832772925368,0.007679448708775,0.1521927107739055,7.16255365036146,11.122314001696157,-0.0770803821299797
1403636870051666432,49.707174,211.3936807402405,6.554111083333333,0.0326888333333333,-7.003582541666666,-0.1263618378443894,0.0300196631343024,0.2234021442552742,14.413747779271874,10.609297093103427,0.1820824013415745
1403636870301666560,49.654007,197.3752582516547,6.815621749999999,-0.367749375,-7.273265416666667,-0.064926248174189,0.1047197551196597,0.1556833692778942,17.813961294403086,9.970295047961839,-0.5397006279936019
1403636870551666432,46.249151,203.0358009890217,6.464216791666666,-0.3105439166666667,-7.093476833333334,-0.0335103216382911,-0.0900589894029074,0.2750638901143063,14.330076733361125,10.063214956177633,0.20036885270050142
1403636870801666560,43.017387,361.496620119662,5.859473375,-0.4985047083333333,-7.346815291666666,0.0642281164733913,0.2296853295624537,0.2478367537831947,9.313282676458655,9.694244359587376,0.01829488200725038
1403636871051666432,50.144672,324.7340369975525,6.627660958333332,-0.5475379583333333,-6.946377083333333,0.0642281164733913,-0.064926248174189,0.2450442269800038,2.6011446856495137,9.7541511798898,0.005249810978583014
1403636871301666560,60.137749,286.5025009668659,6.505077833333333,-1.2748645,-7.036271375,0.0237364778271228,0.0635299847725936,0.0048869219055841,2.0959265433347403,9.49828045989426,-0.08022818833043921
1403636871551666432,43.137788,224.42215411955496,6.627660958333332,-1.0296982499999998,-7.175198916666666,0.0663225115757845,0.0048869219055841,0.0719075651821663,9.911064300006352,9.194546147186356,-0.04402820227765858
1403636871801666560,39.988757,168.8341741171249,6.848310583333333,-0.6701210833333332,-6.799277333333333,0.1487020522699168,0.0020943951023931,0.0293215314335047,16.999737137355677,9.108030474405751,0.05930991558209975
1403636872051666432,54.762364,207.1396765429293,6.840138375,-0.1797885833333333,-6.913688249999999,0.2171189589480945,0.122173047639603,-0.007679448708775,18.429055822836723,9.633683380741992,0.11693091471078176
1403636872301666560,50.390482,219.67939619630852,6.578627708333332,-0.0817220833333333,-6.856482791666667,0.143116998663535,-0.1549852375770964,-0.0202458193231342,18.55719972458702,10.026206116272746,0.1271299665322747
1403636872551666432,50.102949,665.7593718168758,7.10982125,0.7927042083333332,-7.330470875,0.0495673507566389,0.0495673507566389,0.0,10.493865839965858,10.296578915806636,0.044990971170040694
1403636872801666560,40.173531,486.5225458838181,7.0689602083333325,0.4821602916666666,-6.807449541666666,-0.1165879940332212,-0.0118682389135614,0.0356047167406843,1.8250620915153,10.592035204271735,0.05874004303454328
1403636873051666432,54.959298,238.97645073315007,6.970893708333333,0.196133,-7.126165666666666,-0.1661553447898601,0.0460766922526503,0.132645023151569,13.338570506125972,10.655983997706482,-0.06506440946541936
1403636873301666560,60.709715,184.96139732798704,6.513250041666667,-0.4576436666666666,-7.077132416666666,-0.1452113937659282,0.0020943951023931,0.1850049007113989,19.806105323810026,10.323893519704601,0.15417902944959927
1403636873551666432,45.39299,159.0211452020058,6.047434166666666,-1.1686257916666667,-7.265093208333333,-0.1947787445225671,-0.0586430628670094,0.1605702911834783,20.530636246831264,9.565966976173756,-0.22034765420269942
1403636873801666560,59.497595,281.66983861390275,5.990228708333333,-1.9449855833333327,-7.469398416666666,-0.0132645023151569,0.018151424220741,0.1417207352619395,14.28876896810984,9.159101952023683,-0.011480988391893376
1403636874051666432,50.192594,598.1202736821118,6.554111083333333,-1.2748645,-7.338643083333332,-0.0516617458590321,0.0335103216382911,0.1151917306316257,3.1934862788147313,9.566974941463545,0.5634642723658807
1403636874301666560,49.119711,215.5161611600927,6.1209840416666665,-2.018535458333333,-7.305954249999999,0.093549647906896,-0.0342084533390888,-0.057246799465414,4.485348543467378,9.300330939817476,-0.007694928742109752
1403636874551666432,54.676294,156.59959839836552,6.194533916666667,-1.372931,-7.363159708333333,0.0684169066781777,0.1228711793404008,-0.0041887902047863,14.553518568346819,9.165548820514148,-0.0058568053694667555
1403636874801666560,46.959877,168.111796158794,6.104639625,-0.392266,-6.856482791666667,0.1521927107739055,0.0125663706143591,-0.025830872929516,19.000500694762064,9.597835069227864,0.09490909633143474
1403636875051666432,50.254583,382.14025932231806,7.379504124999999,0.2941994999999999,-6.962721499999999,-0.0230383461263251,0.2352703831688356,0.140324471860344,17.135398237507452,9.939113095608624,-0.00713094785392876
1403636875301666560,43.84923,624.9671811306126,6.112811833333333,-0.4739880833333333,-7.436709583333332,-0.3225368457685521,0.2220058808536787,0.48939032225921,8.85539557645042,9.35813586188543,-0.12302272507973733
1403636875551666432,59.99279,365.3561565332283,6.823793958333333,0.0817220833333333,-7.322298666666667,-0.057246799465414,-0.0949459113084915,0.3064798166502042,6.596344282215148,9.339177221291019,0.08203748089851892
1403636875801666560,56.737423,249.87220152138488,7.077132416666666,-0.318716125,-6.7502440833333335,-0.3623303527140228,0.0223402144255274,0.2960078411382383,11.325369392983866,9.998733643209547,0.0741622617031723
1403636876051666432,49.580336,124.44160848785349,7.918869874999999,-0.5311935416666667,-6.161845083333333,-0.5557128338349946,0.1647590813882647,0.3106686068549906,17.71955158435567,12.692886695771627,2.3802754219696762
1403636876301666560,49.84808,153.34673305949914,7.665531416666666,-0.980665,-5.6715125833333335,-0.3099704751541929,-0.0383972435438752,0.2722713633111154,16.680537020752247,12.168301172067917,-0.2761441670233573
1403636876551666432,50.020218,166.59542455582366,7.518431666666666,-1.7570247916666666,-6.202706124999999,-0.1256637061435917,0.2275909344600605,0.0041887902047863,19.476673128989468,12.93443768477706,0.09499819833057188
1403636876801666560,55.555105,147.5077351264729,6.774760708333333,-2.3209071666666663,-6.840138375,0.2981022362406315,0.1521927107739055,-0.2904227875318564,18.824937865870957,11.468562168436753,-0.24165571600116742
1403636877051666432,46.418667,188.54189371290428,6.390666916666666,-1.9041245416666663,-7.265093208333333,0.6639232474586428,0.1193805208364121,-0.4237659423842232,17.978263497173536,9.901357597755219,-0.256415214386454
1403636877301666560,39.957285,183.7749448261267,6.529594458333333,-0.9234595416666666,-7.232404375,0.7204719152232593,-0.0174532925199432,-0.3427826650916863,24.47885306859431,9.522362464618093,0.27791265320822944
1403636877551666432,49.110651,158.62216162730743,6.333461458333334,0.5066769166666666,-7.526603874999999,0.450294947014537,-0.2534218073895766,-0.0788888821901436,24.344968224162667,12.40950536921786,0.7153796899238447
1403636877801666560,61.022282,239.29966584833767,6.864654999999999,0.1389275416666666,-6.970893708333333,-0.0411897703470661,-0.1689478715930511,0.2911209192326541,19.579270875627223,15.223041401200177,0.43687871026432745
1403636878051666432,49.389839,292.93757058449813,7.40402075,0.8417374583333332,-6.554111083333333,-0.4125958351714595,-0.0733038285837618,0.2960078411382383,6.702913871738812,19.40389130038744,2.7569592946854655
1403636878301666560,49.367667,168.48846595789874,7.869836625,0.0163444166666666,-6.586799916666666,-0.364424747816416,0.1333431548523667,0.5291838292046808,21.403052774538693,38.23324780235674,5.6233297121078465
1403636880401666560,60.157061,279.57778966729944,7.681875833333333,-0.8744262916666666,-6.733899666666666,-0.5801474433629151,0.1696460032938488,0.3337069529813158,29.82533501438858,10.50472775184629,0.06354153211806945
1403636880651666432,49.724578,290.81827336319924,7.534776083333333,-2.1492907916666666,-6.104639625,-0.3162536604613725,-0.1019272283164688,0.2429498318776106,9.074479965238607,10.297386052677744,-0.03230401418584172
1403636880901666560,48.707008,247.15995618138737,8.164036124999999,-0.93163175,-5.213868916666666,0.2548180707911721,0.1291543646475804,-0.0160570291183478,9.442935524021664,10.330953840791523,-0.008598648666358955
1403636881151666432,49.474716,261.3250974959948,8.302963666666667,-0.1144109166666666,-5.295591,0.507541746479951,0.1661553447898601,-0.1689478715930511,12.576509797605645,10.576823556409275,-0.01145983720267374
1403636881401666560,60.365677,535.9947386362613,7.976075333333333,0.907115125,-5.123974625,0.1710422666954443,0.0774926187885482,-0.2562143341927675,11.749693415714596,10.56599298797749,-0.014299813165621345
1403636881651666432,40.228844,409.0153657027871,7.240576583333333,1.103248125,-5.589790499999999,0.0593411945678072,0.0963421747100869,-0.2199114857512855,11.232031913418249,10.182931022457906,-0.03289557612888494
1403636881901666560,60.763836,311.2741349795858,7.060788,0.3023717083333333,-6.742071875,-0.1668534764906579,-0.0404916386462684,0.2310815929640492,17.421553895124823,9.794510972148426,-0.10368788830660769
1403636882151666432,60.064792,306.25133539947683,6.889171625,-1.2666922916666667,-6.627660958333332,-0.2303834612632515,0.1054178868204575,0.2059488517353309,18.127711246843045,11.361613318054705,1.85855484618493
1403636882401666560,39.700985,383.0919995874178,7.804458958333332,-1.846919083333333,-5.581618291666667,0.0684169066781777,0.0970403064108847,0.0509636141582344,10.838974432570774,11.076104990923122,0.019577538092736546
1403636882651666432,49.801827,277.0999206520788,9.218251,-0.7927042083333332,-4.004382083333333,0.2638937829015426,0.3274237676741362,0.0097738438111682,6.661072652234093,11.548107069424626,0.07441504810549127
1403636882901666560,60.646534,320.3936926261242,8.368341333333333,-0.4004382083333333,-3.9144877916666654,0.5319763560078716,0.2708750999095199,-0.0593411945678072,6.653961996460403,11.907206014828224,0.09035953154075038
1403636883151666432,54.874897,381.29273563785455,8.940395916666665,-0.5311935416666667,-4.069759749999999,0.1542871058762987,0.1759291886010284,-0.1752310569002306,6.671726596787286,12.46990284599634,0.034079505789943454
1403636883401666560,50.438643,492.0248414255538,9.536967125,-0.3268883333333333,-3.9390044166666662,0.1473057888683213,0.1033234917180643,0.0907571211037051,4.798681553698099,12.664055484270442,0.02012369074219933
1403636883651666432,40.163517,503.1366725462548,9.234595416666666,-0.6782932916666666,-3.260711125,0.1870992958137921,0.132645023151569,0.0488692190558412,1.9453167530587603,12.945023920243633,0.054272848382760586
1403636883901666560,56.569576,572.6244853185045,9.471589458333332,-0.4249548333333333,-3.0073726666666665,0.0376991118430775,0.0432841654494593,0.0418879020478639,1.1902943733138915,13.057481018602001,0.046145362119528244
1403636884151666432,39.794207,605.181407906332,9.643205833333331,-0.8825985,-2.803067458333333,-0.1417207352619395,0.0677187749773799,-0.2792526803190927,0.4714787746258286,13.120637852679367,-0.013429523349618222
1403636884401666560,49.53146,654.029337503673,9.422556208333331,-0.5148491249999999,-2.427145875,0.0055850536063818,0.0223402144255274,0.0907571211037051,0.15048145318730236,13.102711662391735,-0.006054603222089838
1403636884651666432,43.282748,658.4919641284285,10.198916,-0.4739880833333333,-2.7622064166666664,0.0069813170079773,0.0132645023151569,0.0823795406941323,0.040009262107738516,13.08657575068905,-0.007262587191252834
1403636884901666560,61.0466,659.961374818844,9.357178541666666,-0.612915625,-2.508867958333333,0.0125663706143591,0.0069813170079773,0.1026253600172665,0.027341399811618473,13.078040887267955,-0.0011470332437770736
1403636885151666432,49.966097,663.9557662712816,9.414383999999998,-0.4576436666666666,-2.557901208333333,-0.0090757121103705,0.0125663706143591,0.0719075651821663,0.011492413545217996,13.086675791165703,0.00021088365620691718
1403636885401666560,49.589157,666.7162092290238,9.46341725,-0.4739880833333333,-2.672312125,-0.0069813170079773,0.0160570291183478,0.0712094334813686,0.03961241597145757,13.11385303212044,0.0026817087578425713
1403636885651666432,49.20721,665.4693021571304,9.471589458333332,-0.392266,-2.582417833333333,0.0013962634015954,0.0153588974175501,0.0921533845053006,0.014933163541974319,13.104745369346501,-0.003872776415132506
1403636885901666560,50.388098,666.6270093401489,9.340834125,-0.2941994999999999,-2.5660734166666663,-0.0013962634015954,0.0055850536063818,0.0942477796076938,0.019332410876068174,13.10398713047729,-0.0054279983691536415
1403636886151666432,45.330524,664.5452977398136,9.373522958333332,-0.5557101666666666,-2.5170401666666664,-0.0069813170079773,0.0202458193231342,0.0712094334813686,0.008646073137448765,13.10638828295878,-0.0007348353263125773
1403636886401666560,50.212384,665.2425272317846,9.471589458333332,-0.3023717083333333,-2.557901208333333,-0.0048869219055841,0.018151424220741,0.0705113017805709,0.009202842749594932,13.107013244330668,0.00021136095283402767
1403636886651666432,49.552679,662.4090605587621,9.438900625,-0.3759215833333333,-2.582417833333333,-0.0006981317007977,0.0230383461263251,0.0781907504893459,0.006727939558413663,13.103936126283505,0.0003801713583637678
1403636886901666560,54.44932,663.2109270698912,9.455245041666666,-0.392266,-2.59876225,-0.0027925268031909,0.0216420827247296,0.075398223686155,0.004297502056949673,13.104267693362504,0.001080150740987662
1403636887151666432,50.670147,662.3910096410311,9.291800875,-0.4086104166666666,-2.533384583333333,0.0034906585039886,0.0356047167406843,0.0809832772925368,0.010627109060659827,13.103909303747072,-0.0013733507333473227
1403636887401666560,49.891471,662.056063554951,9.430728416666666,-0.4985047083333333,-2.655967708333333,-0.0055850536063818,0.0139626340159546,0.0719075651821663,0.007201630611265272,13.099656106598983,-0.0021246349047210344
1403636887651666432,50.162792,661.256595623814,9.528794916666666,-0.5311935416666667,-2.5905900416666663,-0.0020943951023931,0.0139626340159546,0.0767944870877505,0.009967378489302351,13.1006022322919,0.0041953571486708086
1403636887901666560,46.973229,660.385284334828,9.381695166666669,-0.4331270416666666,-2.574245625,-0.0027925268031909,0.0083775804095727,0.0712094334813686,0.0031815192720679474,13.099925132857384,2.6660051219096204e-05
1403636888151666432,39.754868,662.5128059364644,9.422556208333331,-0.4576436666666666,-2.533384583333333,-0.0020943951023931,0.018151424220741,0.0767944870877505,0.007837654774924275,13.093838287815535,-0.0018580013143090213
1403636888401666560,46.033144,660.4175367458596,9.430728416666666,-0.3268883333333333,-2.606934458333333,-0.0013962634015954,0.0202458193231342,0.0865683308989187,0.01721343240880333,13.100344471993877,0.0009733296419707216
1403636888651666432,43.801308,551.3794911596252,10.427737833333332,0.4004382083333333,-3.0564059166666664,0.1172861257340189,-0.0097738438111682,0.046774823953448,0.03671923825109922,13.121088359022925,0.011355227615483798
1403636888901666560,60.807944,646.221318065359,8.785123958333333,-1.5118585416666666,-2.231012875,0.0020943951023931,0.0328121899374933,0.0446804288510548,0.02576246395464661,13.12752782517582,-0.014716955808978582
1403636889151666432,60.22501,646.781575693952,7.371331916666667,-0.0081722083333333,-1.22583125,-0.0237364778271228,0.0481710873550434,0.0781907504893459,0.04940197324794872,13.086621479136303,0.012680937059323938
1403636889401666560,49.252033,651.8528374342166,9.275456458333332,-0.5802267916666666,-2.574245625,-0.0293215314335047,0.0509636141582344,0.0879645943005142,0.04255988441575443,13.103734018849195,0.005605583505166933
1403636889651666432,60.650349,625.2307443152725,9.782133375,0.3105439166666667,-2.770378625,-0.0055850536063818,0.0607374579694026,0.093549647906896,0.0248212619733501,13.086282010434278,-0.002042860520617751
1403636889901666560,39.241791,573.380409142029,9.357178541666666,1.5363751666666667,-2.950167208333333,-0.0118682389135614,0.0481710873550434,0.1137954672300302,0.02390843348167222,13.096277895004782,-0.0041288722993133575
1403636890151666432,49.605847,582.3389952910246,9.675894666666666,1.1441091666666665,-2.9256505833333333,0.0209439510239319,0.1193805208364121,0.0579449311662117,0.03035403562105008,13.084299354738476,0.008890930436997735
1403636890401666560,40.140867,541.3250800058738,8.115002875,0.0408610416666666,-2.655967708333333,-0.1214749159388053,0.0390953752446729,0.1389282084587486,0.08727698935293281,13.107131338356925,-0.014978697491265791
1403636890651666432,40.854692,583.035680085541,8.499096666666667,-1.593580625,-2.3454237916666667,-0.075398223686155,-0.0439822971502571,0.114493598930828,0.04556092218919175,13.05494225566732,-0.007553158698646811
1403636890901666560,60.2839,629.6248741321823,11.138719958333333,-0.0735498749999999,-2.778550833333333,-0.0202458193231342,0.0328121899374933,0.0998328332140756,0.047416885856308565,13.042163744156312,0.009374332542476438
1403636891151666432,40.260315,652.2696059806502,9.103840083333331,0.1470997499999999,-2.4108014583333333,-0.0153588974175501,0.0265290046303138,0.093549647906896,0.04810199675030247,13.075255544735457,0.0020807369803677034
1403636891401666560,59.41844,656.6924951503439,9.46341725,-0.196133,-2.4925235416666665,0.0,0.0202458193231342,0.0900589894029074,0.024064774532893327,13.069082949246475,-0.004032751818705549
1403636891651666432,49.027681,657.589991031476,9.487933875,-0.3350605416666666,-2.5170401666666664,-0.0020943951023931,0.0139626340159546,0.0726056968829641,0.0071109641305331,13.067345208113098,0.0028089587594362087
1403636891901666560,60.692787,658.7866375882547,9.586000375,-0.465815875,-2.557901208333333,0.0013962634015954,0.0174532925199432,0.0712094334813686,0.009686860678162264,13.065599052668176,-0.0061956223600301286
1403636892151666432,40.495634,656.8197384769502,8.997601374999999,-0.3514049583333333,-2.263701708333333,-0.0013962634015954,0.0209439510239319,0.0879645943005142,0.007043923694801127,13.058453232987343,0.00022858096174083187
1403636892401666560,59.951306,633.1023074263227,9.299973083333333,0.1470997499999999,-2.50069575,-0.0307177948351002,0.064926248174189,0.0879645943005142,0.015118727500770476,13.068047649252732,0.0034578976671344464
1403636892651666432,49.787759,652.4385389048648,9.635033625,-0.3105439166666667,-2.819411875,-0.0062831853071795,0.0230383461263251,0.0719075651821663,0.02123975732004107,13.06989761006862,-0.004532972223797671
1403636892901666560,62.011003,648.7794454498696,9.438900625,-0.0817220833333333,-2.639623291666666,-0.0125663706143591,0.0314159265358979,0.0907571211037051,0.012999348492262905,13.061247524261624,0.0037118418556580934
1403636893151666432,49.631596,654.2202591173017,9.26728425,-0.5802267916666666,-2.574245625,-0.0223402144255274,0.0153588974175501,0.0747000919853573,0.010734558502509681,13.061584314799552,-0.00033491688517983675
1403636893401666560,49.447775,652.0664157103112,9.994610791666668,-0.6782932916666666,-2.941995,-0.0097738438111682,0.0125663706143591,0.0705113017805709,0.019137656832940917,13.05899065874484,-0.003430146089156594
1403636893651666432,37.891388,653.6990448318787,9.283628666666663,-0.3268883333333333,-2.4434902916666665,-0.0111701072127637,-0.0125663706143591,0.0795870138909414,0.015048739553766495,13.070669830792822,0.004983536610303929
1403636893901666560,50.246954,654.6614848251577,9.283628666666663,-0.8253930416666666,-2.427145875,0.0041887902047863,0.0055850536063818,0.0642281164733913,0.007306941070775432,13.074123570870436,-0.0022616669169721604
1403636894151666432,63.763618,655.0777687984471,9.308145291666667,-0.5802267916666666,-2.50069575,-0.0118682389135614,0.0132645023151569,0.0921533845053006,0.013041970440265567,13.061872928519346,-0.0008111862992947749
1403636894401666560,60.57477,655.6376689762873,9.438900625,-0.2533384583333333,-2.533384583333333,-0.0027925268031909,0.0314159265358979,0.0788888821901436,0.016610779007661884,13.071286093163437,0.0033084227454214243
1403636894651666432,54.54278,655.0687600804176,9.128356708333332,-0.4331270416666666,-2.4108014583333333,-0.0146607657167523,0.0293215314335047,0.0781907504893459,0.02062590250482902,13.059377432911395,-4.209700922075399e-06
1403636894901666560,60.679912,652.439454333331,9.586000375,-0.1389275416666666,-2.533384583333333,0.0223402144255274,0.018151424220741,0.0788888821901436,0.01835346035671582,13.062797843549282,-1.5492132112271406e-05
1403636895151666432,61.164617,651.7596652287455,10.010955208333332,-0.196133,-2.803067458333333,0.0432841654494593,0.0097738438111682,0.0795870138909414,0.022186030809209042,13.082036386977054,0.00039921477101678704
1403636895401666560,50.272465,653.4315704662223,9.438900625,-0.1470997499999999,-2.435318083333333,0.0272271363311115,0.0307177948351002,0.0663225115757845,0.022531674484807557,13.071856787029093,-0.004915721163362363
1403636895651666432,50.213814,656.197526677776,9.283628666666663,-0.0081722083333333,-2.3944570416666666,0.0069813170079773,0.0265290046303138,0.0767944870877505,0.033355494342146075,13.052721593827984,-0.002775522875959169
1403636895901666560,39.457559,653.2207115871845,9.626861416666666,-0.1797885833333333,-2.950167208333333,-0.0006981317007977,0.0174532925199432,0.0565486677646162,0.07192911805851879,13.104025791403782,0.014594592205897428
1403636896151666432,56.716442,637.6307422799616,9.250939833333334,-0.5802267916666666,-2.868445125,-0.0195476876223364,-0.0069813170079773,0.0118682389135614,0.04359265353875607,13.112778683575248,-0.00443549759962103
1403636896401666560,49.153567,648.8906944177888,9.626861416666666,-0.3350605416666666,-1.936813375,0.0132645023151569,-0.0349065850398865,0.1354375499547599,0.07618487256283907,13.077891443446049,-0.006822338260430882
1403636896651666432,50.11487,649.5687934106907,9.136528916666666,-0.3759215833333333,-2.5170401666666664,-0.0013962634015954,-0.0432841654494593,0.0621337213709981,0.033408853874785246,13.046647097649869,-0.0025224486353057074
1403636896901666560,60.763836,635.8804401221447,7.649186999999999,-0.3759215833333333,-1.871435708333333,0.0069813170079773,0.0272271363311115,0.0879645943005142,0.0638809725676906,13.090421030252978,0.02699347847665301
1403636897151666432,60.162545,600.4182929113958,8.556302125,0.318716125,-2.533384583333333,-0.007679448708775,0.0321140582366956,0.1319468914507713,0.26013568269351584,13.28953872211795,0.03776456658295402
1403636897401666560,53.107261,436.8548901206856,10.991620208333332,-0.809048625,-4.919669416666666,-0.140324471860344,-0.179419847105017,0.0411897703470661,1.300972467313561,13.241490284043083,-0.02342342859989799
1403636897651666432,51.711321,248.13885120323343,13.181772041666669,-0.024516625,-4.985047083333333,-0.1577777643802873,-0.2834414705238791,0.0,3.1878784998619727,13.379930094027722,0.052799295581026584
1403636897901666560,39.470434,384.1225632354351,9.684066875,1.1931424166666666,-3.718354791666666,-0.0328121899374933,-0.1766273203018261,0.0188495559215387,3.5340441068859003,13.409733094576776,-0.17085291637302547
1403636898151666432,50.602198,472.5496198761338,8.409202375,0.122583125,-2.8439285,0.1382300767579508,0.1075122819228507,0.1103048087260416,5.8140923809492095,13.246472920808527,-0.07020513843292164
1403636898401666560,46.794414,534.7228654269683,10.149882749999998,0.1389275416666666,-4.298581583333333,0.0733038285837618,-0.0411897703470661,0.0621337213709981,5.712539142777481,12.98698417619623,-0.03682957581620272
1403636898651666432,50.093651,568.0764907122367,8.621679791666667,-0.1062387083333333,-3.064578125,0.0314159265358979,-0.0251327412287183,0.0321140582366956,7.9535217467036565,12.611280657940895,-0.030578892298603222
1403636898901666560,64.117432,643.9559701789291,9.447072833333332,0.04903325,-2.729517583333333,0.0495673507566389,-0.0090757121103705,0.2275909344600605,7.146940243916454,12.612731109412845,-0.01479516456792851
1403636899151666432,55.212021,396.61808168158655,9.340834125,0.7109821249999999,-5.24655775,-0.2352703831688356,0.0872664625997164,0.1577777643802873,6.461799237171219,12.243960197936222,-0.13760727988626975
1403636899401666560,60.14824,294.8454544057405,8.482752249999999,-0.4086104166666666,-2.7622064166666664,-0.4405211032033687,0.1068141502220529,0.2506292805863857,7.352581691535972,11.180213821238572,-0.19761706428282544
1403636899651666432,55.823565,471.70516920292425,10.591182,-0.1062387083333333,-3.072750333333333,-0.2066469834361286,-0.0991347015132779,0.2073451151369263,6.293787750786977,9.506885318812852,-0.061049908547390785
1403636899901666560,46.684265,499.38572089869183,10.076332875,-0.0898942916666666,-3.8164212916666655,-0.1556833692778942,0.0495673507566389,0.0069813170079773,6.971835417516117,8.597997011562834,-0.08779445249414408
1403636900151666432,40.0846,499.6115818340855,10.411393416666668,0.6456044583333332,-3.9880376666666666,0.0244346095279206,0.2017600615305445,0.0851720674973232,7.523042482054933,8.227210434597133,-0.09122001812493252
1403636900401666560,50.104141,862.502157602874,9.136528916666666,-0.63743225,-4.927841624999999,0.0600393262686049,-0.179419847105017,0.1012290966156711,10.0417961386891,8.243906324366275,-0.18125416384700088
1403636900651666432,50.295353,957.1009945558442,7.273265416666667,-0.784532,-2.10842975,0.0390953752446729,-0.1487020522699168,0.0600393262686049,11.032569263096692,8.297469713237472,0.22683636334921786
1403636900901666560,50.015688,1027.537682824991,7.559292708333333,0.5802267916666666,-3.260711125,0.1033234917180643,0.0300196631343024,0.3707079331235955,9.657487440354414,7.689892984323807,-0.14123564454977622
1403636901151666432,44.411897,1130.9256742652967,10.950759166666666,0.269682875,-4.511059,0.0265290046303138,0.0593411945678072,0.1200786525372098,9.930783036782923,7.2892085974246426,-0.07764888033874229
1403636901401666560,45.838118,889.9183714463359,9.839338833333333,-0.171616375,-2.0920853333333334,-0.0209439510239319,-0.0321140582366956,-0.0390953752446729,13.335458867376781,7.221413867008468,0.1370380337909216
1403636901651666432,39.872885,878.3500513203637,7.453054,0.465815875,-1.830574666666667,0.0020943951023931,0.0998328332140756,0.0397935069454707,16.665309817034753,9.857380029953488,0.550218971433651
1403636901901666560,50.070763,1030.241007214085,8.025108583333333,0.34323275,-2.557901208333333,-0.0062831853071795,0.0153588974175501,0.0397935069454707,16.04413804259959,10.917101630945664,0.08708487090384587
1403636902151666432,48.579454,980.128870050697,10.370532375,-0.2288218333333333,-3.514049583333333,-0.0418879020478639,-0.0537561409614253,0.0118682389135614,14.077205721410193,11.309595652674195,0.3482755539565261
1403636902401666560,50.145865,878.409056801912,5.360968666666666,0.4494714583333333,-1.6671305,-0.0397935069454707,0.0188495559215387,0.0963421747100869,15.1394854936561,12.94161097011245,0.3743521608202265
1403636902651666432,46.179295,824.9482427069405,9.545139333333331,-0.2124774166666666,-2.4925235416666665,-0.1117010721276371,0.0439822971502571,-0.0244346095279206,15.793774242651917,14.826137288709528,0.41586687889798846
1403636902901666560,60.100317,956.7651991971164,10.967103583333332,-0.1144109166666666,-5.083113583333333,0.0425860337486616,0.1137954672300302,0.0788888821901436,15.333209635854619,16.324477995759217,0.04127086186111484
1403636903151666432,59.708357,976.574336638932,9.430728416666666,0.1552719583333333,-3.113611375,0.0719075651821663,0.0586430628670094,0.1012290966156711,13.323160004625443,16.28090731950325,-0.01297742073635888
1403636903401666560,40.346861,907.7276081803476,9.692239083333332,1.3402421666666664,-3.652977125,0.0104719755119659,0.0642281164733913,-0.0251327412287183,14.996018579182035,16.914899815212685,0.17072862957043
1403636903651666432,59.75318,754.9901550577791,8.482752249999999,-0.318716125,-3.0564059166666664,0.0376991118430775,-0.0460766922526503,0.1940806128217694,12.965141973371566,17.391009057439472,-0.0035237306033941707
1403636903901666560,49.464226,740.703391300031,10.83634825,-0.5557101666666666,-3.358777625,0.0083775804095727,0.0097738438111682,0.054454272662223,11.634230627881523,17.419454559952722,-0.05398077919912936
1403636904151666432,49.848318,762.2927133030585,9.569655958333334,0.907115125,-3.963521041666666,-0.0062831853071795,-0.0760963553869527,0.1521927107739055,14.406269791005414,17.62591493776202,0.06071484196417032
1403636904401666560,54.108858,698.6423963727904,7.5511205,-1.0950759166666666,-1.7978858333333332,-0.0237364778271228,0.064926248174189,0.0656243798749867,18.260134540787707,16.941887399414963,0.06915578677925183
1403636904651666432,50.898791,744.4658978823168,8.38468575,-0.563882375,-3.097266958333333,-0.0698131700797731,0.0272271363311115,0.018151424220741,18.03912939651392,17.70027169971724,0.1692021637928427
1403636904901666560,50.493479,754.0299937855261,7.820803375,0.1634441666666666,-4.347614833333333,-0.0579449311662117,-0.0139626340159546,-0.0062831853071795,17.874385882329083,18.24092280786327,0.04701634197291682
1403636905151666432,49.720526,774.144935587809,9.054806833333332,-0.612915625,-3.4323274999999995,-0.0537561409614253,-0.0006981317007977,0.15079644737231,16.628091305944565,18.548853364097408,0.058406968532853654
1403636905401666560,49.786329,885.4981983592172,9.978266375,-0.6946377083333333,-3.8164212916666655,-0.0174532925199432,-0.1207767842380075,0.0565486677646162,15.37389275568232,18.998240292174547,0.12846377841302115
1403636905651666432,59.743643,902.2398046195912,7.224232166666667,0.3514049583333333,-3.0073726666666665,0.122173047639603,-0.0600393262686049,0.1179842574348166,14.362211255209065,18.98412375156388,0.03015793778865472
1403636905901666560,41.39924,832.5465507074142,6.791105125,-0.0653776666666666,-2.582417833333333,0.0432841654494593,0.0069813170079773,0.0963421747100869,9.937740097093586,18.806594752053925,-0.05510537813810856
1403636906151666432,40.044069,898.0047687960204,9.389867375,0.1879607916666666,-3.2361945,0.0223402144255274,0.0342084533390888,0.028623399732707,7.751556425181347,18.17841513636031,-0.16390499387494373
1403636906401666560,49.78323,673.1682845945384,8.989429166666666,-0.1144109166666666,-2.4434902916666665,0.0928515162060983,0.0781907504893459,0.3588396942100341,8.30445661439364,17.42884434878456,-0.17140666769141077
1403636906651666432,42.925596,784.6385499247563,9.250939833333334,0.7927042083333332,-4.118792999999999,-0.0446804288510548,-0.0474729556542457,0.0230383461263251,9.597818542866646,16.909770245995055,-0.08689745840342411
1403636906901666560,40.250301,792.2467929382154,9.651378041666666,-0.5066769166666666,-4.46202575,-0.025830872929516,-0.0474729556542457,-0.0418879020478639,8.976446954828484,16.573452780436266,-0.0847914608024567
1403636907151666432,49.741984,817.8193145701297,9.545139333333331,0.024516625,-3.996209875,0.0041887902047863,-0.0865683308989187,0.0474729556542457,9.02828335120893,16.11453064550023,-0.027884000381746432
1403636907401666560,60.163736,795.7671852996444,8.490924458333334,0.6701210833333332,-5.336452041666667,0.0069813170079773,-0.0321140582366956,0.1494001839707146,8.065822474792698,15.215601718554824,-0.1424794879886644
1403636907651666432,38.851023,743.3368152213432,8.38468575,-0.367749375,-1.2830367083333332,0.0216420827247296,-0.0153588974175501,0.114493598930828,11.351078471396095,14.690027846996657,-0.0745083848406356
1403636907901666560,60.425282,555.9134348358866,8.621679791666667,-0.0081722083333333,-3.587599458333333,-0.0530580092606276,0.2017600615305445,-0.0621337213709981,16.541388076860613,14.547692820014158,-0.0284420545366757
1403636908151666432,60.958385,462.2772624624375,7.739081291666666,-0.1307553333333333,-2.7376897916666665,0.0090757121103705,0.1193805208364121,0.0153588974175501,14.540484699607559,13.974986874296805,-0.14221272530816265
1403636908401666560,50.146341,590.5763124590259,7.542948291666666,0.3350605416666666,-2.729517583333333,0.0335103216382911,0.0321140582366956,0.0300196631343024,14.956322993667698,13.242400062662222,-0.08031243351819128
1403636908651666432,49.919605,570.2149603443405,11.383886208333331,-0.8662540833333333,-4.388475875,-0.0083775804095727,-0.0453785605518525,-0.0062831853071795,12.646471011474194,12.669981974219619,-0.10961887855737196
1403636908901666560,50.037145,543.1725093598906,10.288810291666666,0.53936575,-4.748053041666666,0.0335103216382911,-0.0083775804095727,0.1389282084587486,14.71419743822549,12.252951600509743,0.02552117422792577
1403636909151666432,50.548792,468.7838912088144,6.856482791666667,0.2860272916666666,-3.391466458333333,0.0083775804095727,0.0509636141582344,0.0328121899374933,19.18310872851498,11.54436352661329,-0.07876998210493724
1403636909401666560,50.111771,383.2801610302046,8.237585999999999,0.0898942916666666,-3.0809225416666663,-0.0593411945678072,0.0621337213709981,0.018151424220741,17.95445842128988,11.014601108433485,-0.210065825031041
1403636909651666432,49.708604,420.7070925573983,8.270274833333334,0.0653776666666666,-4.0125542916666666,-0.0202458193231342,0.0446804288510548,0.2122320370425104,16.33765557294136,10.16399895940846,-0.3051699408661861
1403636909901666560,49.626112,324.84133217632706,8.409202375,-0.1307553333333333,-2.69682875,-0.1682497398922533,-0.0006981317007977,-0.2268928027592628,15.09492811381097,9.74999803149877,0.027512810674860333
1403636910151666432,39.456129,399.4490202543759,8.245758208333333,-0.7927042083333332,-3.669321541666666,0.0432841654494593,-0.1179842574348166,0.2429498318776106,11.781527616074252,9.34861210349876,-0.16449504485563082
1403636910401666560,50.051927,443.3290319429106,10.190743791666666,0.0817220833333333,-3.8082490833333327,-0.0090757121103705,-0.057246799465414,0.1033234917180643,8.088461760072423,7.908049511246933,-0.1493602120092241
1403636910651666432,50.647259,432.5347995670677,7.828975583333331,0.2533384583333333,-2.4925235416666665,-0.0118682389135614,0.0642281164733913,0.0586430628670094,10.412230427236617,7.3215587286037875,-0.1126061518987127
1403636910901666560,39.671421,410.2356531518788,9.013945791666666,-0.5557101666666666,-2.043052083333333,0.0579449311662117,0.0383972435438752,0.1151917306316257,7.383357113665998,6.906719178301785,-0.04008104106939747
1403636911151666432,40.772677,371.8698725988893,10.141710541666669,0.24516625,-3.857282333333333,-0.0202458193231342,-0.0460766922526503,0.0677187749773799,7.7719972107962425,5.814838822396898,-0.10323121004181601
1403636911401666560,49.874067,377.2762905815173,8.850501625,-0.2615106666666666,-3.661149333333333,-0.007679448708775,0.0942477796076938,0.1396263401595463,10.29995630713601,4.86819972704539,-0.17031810145516335
1403636911651666432,50.702572,389.5205339746269,9.831166624999998,-0.4821602916666666,-2.549729,-0.0314159265358979,0.0111701072127637,0.161268422884276,12.462685410298942,4.322169659066901,-0.0787171068594219
1403636911901666560,49.805403,325.8645310594128,8.499096666666667,0.7600153749999999,-3.4731885416666666,0.1054178868204575,-0.1703441349946465,0.3225368457685521,8.729969452810701,3.877947159376661,-0.19957685796180158
1403636912151666432,50.02141,386.0692481880653,8.213069375,0.8744262916666666,-3.072750333333333,-0.0342084533390888,0.0851720674973232,-0.0048869219055841,7.885805501027497,3.387233844746592,-0.12382658380127998
1403636912401666560,50.385952,393.6029011206078,10.599354208333333,0.0735498749999999,-4.494714583333333,-0.0111701072127637,-0.0558505360638185,0.1291543646475804,10.800872259587905,3.3214000564207673,-0.0624154398580159
1403636912651666432,51.767826,467.0834616867502,9.398039583333333,0.1634441666666666,-1.8224024583333327,-0.0167551608191455,0.1438151303643327,0.1424188669627373,11.137642941191462,2.8507198302959664,-0.08055965805889409
1403636912901666560,60.429335,486.55337550954425,8.768779541666666,0.0817220833333333,-3.702010375,-0.0307177948351002,0.1117010721276371,0.0160570291183478,11.846478266815536,3.1423651775945247,0.1434565536004131
1403636913151666432,49.913645,588.3148405668758,10.395049,-0.3105439166666667,-4.094276375,-0.0404916386462684,0.1591740277818828,-0.0481710873550434,14.794278488868432,4.10947870050735,0.16302144484534153
1403636913401666560,52.810192,586.8826472224013,10.44408225,0.563882375,-4.225031708333333,0.0132645023151569,-0.1305506280491758,0.1368338133563554,14.526688521595782,3.9125037123580424,-0.0945828145803147
1403636913651666432,47.063827,593.0553263148336,7.1588545,0.5475379583333333,-2.8602729166666667,-0.0439822971502571,0.0062831853071795,0.0013962634015954,15.656573387101593,3.9579365226437506,0.07661481688721183
1403636913901666560,38.157463,617.8079183492549,9.65955025,0.1797885833333333,-3.6448049166666654,-0.0202458193231342,0.0321140582366956,0.0670206432765822,16.078985123165808,4.457104424391202,0.08018558145639787
1403636914151666432,54.244995,648.7938754765354,8.033280791666666,0.0572054583333333,-3.489532958333333,0.0195476876223364,0.0307177948351002,0.1647590813882647,16.78469669920417,4.816725218871434,0.042728638055927526
1403636914401666560,60.997963,632.4608922483001,10.043644041666663,-0.4985047083333333,-3.048233708333333,-0.0774926187885482,-0.046774823953448,0.0579449311662117,16.794648808496188,5.169657184504068,0.06871749876133126
1403636914651666432,48.714161,536.2634961781065,10.869037083333334,0.220649625,-4.2168595,-0.0097738438111682,0.0411897703470661,0.0691150383789754,16.861457316236844,5.610843024378878,0.1874261852240231
1403636914901666560,41.294336,636.8024386143006,7.673703624999999,-0.24516625,-2.680484333333333,-0.0013962634015954,0.0488692190558412,0.0530580092606276,16.54983959894162,5.66047983566733,0.058751734621023566
1403636915151666432,50.093651,640.4931795157058,9.381695166666669,0.2533384583333333,-2.672312125,-0.0132645023151569,-0.0607374579694026,0.1012290966156711,13.817459559789965,5.793474651521561,-0.002631226524956176
1403636915401666560,61.054945,653.0932423002006,10.509459916666668,-0.1144109166666666,-3.28522775,0.0195476876223364,0.0621337213709981,0.0663225115757845,11.852172530024163,5.8584115036138185,-0.012917927166467003
1403636915651666432,52.139998,493.9459287126614,10.174399375,0.83356525,-4.56009225,0.0712094334813686,0.1675516081914556,0.3001966313430246,11.407135420455049,5.804164610149217,-0.01004340718148189
1403636915901666560,45.493603,591.2555476718477,9.9047165,-0.5230213333333333,-3.358777625,-0.0174532925199432,0.0020943951023931,0.0474729556542457,15.36126542412643,6.094648442339184,0.13506009133762653
1403636916151666432,61.717033,563.5811507959663,8.588990958333333,-1.046042666666667,-3.407810875,0.0027925268031909,-0.0349065850398865,-0.0293215314335047,16.888438564000744,6.943182682517375,0.12165723932370565
1403636916401666560,49.644232,570.3264127309369,9.643205833333331,0.220649625,-4.870636166666666,-0.0153588974175501,-0.0705113017805709,0.057246799465414,15.664642458402517,6.917830176375893,0.08075232331392179
1403636916651666432,50.600291,554.5061145985361,9.210078791666666,-0.7927042083333332,-4.004382083333333,-0.247138622082397,-0.0083775804095727,0.1333431548523667,14.937722982068472,7.125603785825565,0.01719884389520221
1403636916901666560,46.964645,670.0128817183677,7.591981541666666,0.465815875,-1.5363751666666667,-0.1452113937659282,-0.0034906585039886,-0.0230383461263251,10.557490738895597,7.266476493970589,0.0068408939167285965
1403636917151666432,50.063849,686.7835607291162,9.26728425,-0.34323275,-3.219850083333333,-0.0167551608191455,0.0509636141582344,0.1731366617978375,6.973574074267443,7.228240031067429,0.013062280135695659
1403636917401666560,48.244953,462.5634337688076,9.430728416666666,0.5883989999999999,-2.40262925,-0.4237659423842232,0.0188495559215387,0.140324471860344,8.818641554142845,7.960221778723133,0.13384639897069306
1403636917651666432,61.820507,546.7693994796075,8.997601374999999,-0.0163444166666666,-4.094276375,-0.1933824811209717,0.0551524043630208,0.2101376419401172,9.025915446517175,8.311050700004857,0.1011648813356576
1403636917901666560,49.79372,642.5284851801813,10.820003833333333,-0.5475379583333333,-3.849110125,-0.143116998663535,0.093549647906896,0.1577777643802873,3.7019030227462766,8.581129220426531,0.04204447981628334
1403636918151666432,59.571504,672.8240468501206,9.831166624999998,-0.3840937916666667,-4.306753791666666,-0.0307177948351002,-0.0684169066781777,0.0111701072127637,1.4494227208402881,9.024163408687523,0.03260840441633661
1403636918401666560,50.068617,476.5368306388527,8.768779541666666,-0.3105439166666667,-3.138128,0.0146607657167523,-0.2143264321449036,0.0670206432765822,1.195249515339039,9.002926513812612,-0.007493418991305845
1403636918651666432,60.331106,568.2689990030526,9.373522958333332,0.2043052083333333,-3.669321541666666,0.0691150383789754,0.0383972435438752,0.0900589894029074,7.2245383701979735,8.786182960278829,-0.07318852801557973
1403636918901666560,51.076174,407.95136172499775,9.716755708333332,0.196133,-2.508867958333333,0.0307177948351002,0.2457423586808016,0.3895574890451343,14.81518416769154,8.926695424549717,0.1632912164889877
1403636919151666432,39.244651,538.1208874589697,10.64021525,-0.0817220833333333,-4.347614833333333,-0.0956440430092892,0.0607374579694026,0.1836086373098034,16.414959026517455,9.321877023537981,0.053331180512286025
1403636919401666560,41.123867,594.9314443335844,8.834157208333334,-0.1470997499999999,-2.982856041666666,-0.179419847105017,-0.0006981317007977,-0.0048869219055841,15.791839511530878,9.783268515987272,0.11418137638495018
1403636919651666432,49.565316,636.5090969971282,6.496905624999999,-0.5557101666666666,-2.6641399166666666,-0.0851720674973232,0.0823795406941323,-0.0488692190558412,12.131707893750097,10.151952066552356,0.05147911584357168
1403636919901666560,50.078154,728.7768669542565,10.484943291666664,0.8253930416666666,-3.6448049166666654,0.0349065850398865,0.0404916386462684,0.1068141502220529,7.980824429482423,10.298701902915731,0.02771426874651084
1403636920151666432,50.291061,703.5618573428079,9.528794916666666,-0.1307553333333333,-3.751043625,0.0656243798749867,0.0376991118430775,0.2087413785385218,6.842697216643308,9.792363581204071,-0.00368919847708149
1403636920401666560,48.494101,526.6718867645718,10.190743791666666,-0.1307553333333333,-4.739880833333333,-0.0321140582366956,0.0523598775598298,-0.0809832772925368,11.498646860278546,9.939496602859045,0.054794044589231206
1403636920651666432,61.542749,569.1680494082536,9.185562166666664,-0.0326888333333333,-3.1299557916666663,-0.0167551608191455,-0.1452113937659282,0.0328121899374933,10.864379353154995,9.962094560521537,-0.03305421798137331
1403636920901666560,52.038431,718.4994670064227,9.161045541666669,0.1797885833333333,-2.770378625,-0.0006981317007977,-0.0726056968829641,0.0991347015132779,7.962784272928708,9.93175923948372,0.02817902742249956
1403636921151666432,49.857855,715.4546144884021,10.460426666666669,-0.7600153749999999,-4.3721314583333335,-0.0370009801422797,-0.0251327412287183,0.0774926187885482,6.68644948522237,9.964081967441734,-0.058429291496088
1403636921401666560,49.68524,672.0356465948513,10.149882749999998,-0.3514049583333333,-4.020726499999999,0.0551524043630208,0.0984365698124801,0.2736676267127109,4.963138467653757,9.953506698790353,-0.028416472980767438
1403636921651666432,48.349857,389.2858595513422,8.899534874999999,-0.0980665,-3.996209875,-0.057246799465414,-0.3993313328563026,0.0041887902047863,7.763400083997171,9.844536133915915,-0.03097894011436253
1403636921901666560,57.053327,703.360693624349,7.967903124999999,-0.0326888333333333,-2.018535458333333,-0.0537561409614253,0.2694788365079245,-0.0069813170079773,11.534525770385967,9.827335559853964,0.04718713209125447
1403636922151666432,52.256108,616.5714812582804,10.918070333333333,0.367749375,-4.208687291666666,-0.1319468914507713,0.0411897703470661,0.0991347015132779,11.052135537358941,10.010665473578799,0.0488458750424261
1403636922401666560,41.032791,522.1215299684244,7.175198916666666,0.2288218333333333,-1.5527195833333332,-0.0488692190558412,-0.054454272662223,0.0621337213709981,7.689999715415843,10.02293505188212,0.0029943808908505787
1403636922651666432,74.723721,497.7275983959723,7.077132416666666,0.83356525,-2.705000958333333,-0.2380629099720265,0.2366666465704311,0.0020943951023931,6.947857941015448,10.130875308379899,0.042061532392249745
1403636922901666560,48.03729,674.8547153436174,7.976075333333333,-0.0163444166666666,-4.429336916666666,-0.0530580092606276,0.2143264321449036,0.2659881780039358,5.355706068362779,10.254049764246716,0.030530798616549504
1403636923151666432,50.117493,534.3315321228448,8.262102624999999,0.6210878333333334,-2.3699404166666667,-0.143116998663535,-0.0006981317007977,0.1354375499547599,3.7261149176202055,10.09187166650493,-0.0844688070951829
1403636923401666560,49.226284,408.0034147370886,10.092677291666664,-0.907115125,-3.947176625,-0.2122320370425104,-0.2722713633111154,0.0726056968829641,8.318424848855875,10.124492396898574,0.07345393300050596
1403636923651666432,39.485216,663.5540651169426,11.661741291666669,0.2124774166666666,-4.8052585,-0.0230383461263251,-0.0691150383789754,0.1494001839707146,9.41456927348076,10.296314162053354,0.006846847063609829
1403636923901666560,49.963236,764.6646793586636,7.0689602083333325,-0.6210878333333334,-1.838746875,0.0390953752446729,-0.0349065850398865,0.2010619298297467,4.436751714820186,10.290462224278764,0.04815929206537106
1403636924151666432,39.109469,725.4367231113993,9.022118,0.171616375,-3.505877375,-0.0293215314335047,0.1445132620651305,0.0279252680319092,3.42833602327163,10.75856419576358,0.0387465564316507
1403636924401666560,48.287869,588.9768059428393,7.412192958333333,0.2941994999999999,-1.9531577916666665,0.1123992038284348,0.1808161105066125,0.268082573106329,2.576279089418442,11.2116936427487,0.12616350750064598
1403636924651666432,49.560309,549.4333806408675,10.533976541666666,-0.4494714583333333,-2.7867230416666664,0.1130973355292325,0.140324471860344,0.3092723434533951,9.132080161139752,11.66079795530422,0.0548414201540961
1403636924901666560,49.564839,699.2900803059455,9.455245041666666,-0.0163444166666666,-2.631451083333333,-0.1214749159388053,0.114493598930828,0.1179842574348166,7.112881748675568,12.115926293619248,0.13208001425532778
1403636925151666432,50.093413,439.6488691613952,9.782133375,-0.2941994999999999,-2.378112625,-0.2520255439879811,-0.0795870138909414,-0.1836086373098034,9.37316013327376,12.719919187306997,0.1217589106766983
1403636925401666560,57.446718,470.6965645098837,8.809640583333332,-0.1552719583333333,-2.288218333333333,-0.1137954672300302,-0.2052507200345331,0.0816814089933346,12.169026772137004,12.972010942728227,0.01613844460859859
1403636925651666432,49.715519,690.1394882105902,8.147691708333333,0.2860272916666666,-2.655967708333333,-0.0237364778271228,-0.1724385300970397,0.0970403064108847,8.696541477919805,13.168545557367493,0.0713703668510206
1403636925901666560,50.058842,455.57135720322,10.632043041666666,-0.2043052083333333,-4.4211647083333325,-0.0237364778271228,0.3783873818323706,0.0321140582366956,10.156171724054747,12.925419339725558,0.16240880827965753
1403636926151666432,45.281887,497.6385027433922,9.005773583333333,0.784532,-3.661149333333333,0.0907571211037051,0.393048147549123,0.2380629099720265,13.13157542674323,14.07803626489543,0.18532035497767652
1403636926401666560,50.45867,666.3979207009783,8.433719,0.5148491249999999,-3.489532958333333,0.0656243798749867,0.0244346095279206,0.1452113937659282,4.427301881412158,14.372798566522127,0.030608329351395014
1403636926651666432,55.19557,616.0729682164834,11.212269833333332,-0.1879607916666666,-4.16782625,-0.0516617458590321,-0.0907571211037051,0.0209439510239319,8.891649051515618,6.4150615611471435,0.0058245601423259075
1403636926901666560,50.252437,487.31548024896085,8.899534874999999,0.563882375,-3.563082833333333,-0.1668534764906579,-0.057246799465414,0.2841396022246769,7.137553620034802,6.812958608784873,0.1075670974530274
1403636927151666432,56.721926,414.3777183388808,8.760607333333333,-0.0408610416666666,-3.587599458333333,-0.4928809807631986,0.085870199198121,0.1947787445225671,9.922462601107695,7.175142819110977,0.04525579567419946
1403636927401666560,56.479931,304.40892780194,10.509459916666668,-0.3514049583333333,-4.0125542916666666,-0.3190461872645634,-0.2192133540504878,0.0397935069454707,10.638898169200232,7.277883125548145,-0.055431047812800394
1403636927651666432,50.115108,474.4434794446081,12.544339791666664,-0.0326888333333333,-4.069759749999999,-0.1619665545850737,-0.046774823953448,0.0481710873550434,8.32592970452759,5.717658395457794,-1.9899772355810041
1403636927901666560,49.679041,610.7790235472766,8.736090708333332,-0.0735498749999999,-2.574245625,-0.0013962634015954,0.124965574442794,0.1263618378443894,9.878772980157189,6.129518180163422,0.08603580118948795
1403636928151666432,48.787594,449.71659840030577,9.496106083333332,-0.5230213333333333,-4.290409374999999,0.0041887902047863,0.2066469834361286,0.0712094334813686,11.136403346435952,6.710461202563598,0.08233945383792829
1403636928401666560,49.571514,609.4198689998459,6.529594458333333,-0.2615106666666666,-2.0267076666666664,0.0125663706143591,0.171740398396242,0.0851720674973232,8.53459407216457,7.107607948282125,0.11936377147392019
1403636928651666432,49.474955,589.9610745825403,10.762798375,-0.171616375,-3.072750333333333,0.0104719755119659,-0.1235693110411985,0.0041887902047863,5.328243349836468,8.143566249105618,0.12347942835280357
1403636928901666560,49.962759,553.0884831261433,10.566665374999998,0.1879607916666666,-4.511059,-0.0272271363311115,-0.0356047167406843,0.0795870138909414,9.700794334619836,8.651603424645058,0.10645556059227879
1403636929151666432,52.313328,497.8769408350781,10.117193916666666,-0.2369940416666666,-5.009563708333333,0.0760963553869527,0.1954768762233649,0.2464404903815993,17.77527083975044,8.646868750023742,0.004780845063718786
1403636929401666560,50.020695,611.9949434144066,9.447072833333332,0.7763597916666666,-3.4404997083333333,-0.0174532925199432,0.0223402144255274,-0.0558505360638185,18.201917495409837,8.893689284812103,0.06081440187223741
1403636929651666432,50.286531,573.9282259755297,8.466407833333333,-0.5311935416666667,-3.268883333333333,-0.0621337213709981,-0.0774926187885482,-0.1968731396249603,12.823285706003418,9.171344495628006,0.11759213748344699
1403636929901666560,49.666166,614.2503371618749,10.092677291666664,-0.024516625,-4.437509125,0.0216420827247296,0.0376991118430775,0.1556833692778942,9.320138850386476,9.421623825188403,0.028804028024485007
1403636930151666432,61.680317,582.1457861460674,9.373522958333332,0.4576436666666666,-2.7622064166666664,-0.0195476876223364,0.0956440430092892,0.0600393262686049,9.534501971831718,9.558278177473973,-0.027786596382767925
1403636930401666560,50.055743,501.97897674481504,10.73828175,-0.6864655000000001,-3.3751220416666667,-0.046774823953448,-0.0139626340159546,-0.0020943951023931,13.66096655292334,9.725895481714772,0.010631346892365556
1403636930651666432,50.591707,574.9318731623985,7.224232166666667,-0.563882375,-3.505877375,0.0670206432765822,0.0383972435438752,0.1682497398922533,12.537022763432867,9.86655181216834,0.027562787847521975
1403636930901666560,49.287081,523.2095153521162,9.610517,0.0817220833333333,-3.2280222916666665,0.0230383461263251,-0.0055850536063818,0.3050835532486088,8.945769772718114,9.488912077749635,-0.0035162082532202987
1403636931151666432,47.950268,341.3486684296649,9.455245041666666,0.8662540833333333,-2.018535458333333,-0.3022910264454179,0.2164208272472968,-0.0837758040957278,13.041331287162402,9.866147425921246,0.073586163801318
1403636931401666560,49.013853,466.46855129005735,10.623870833333331,0.04903325,-4.404820291666666,-0.114493598930828,0.0481710873550434,-0.0139626340159546,15.77584338608171,9.813178794263656,-0.015454514868782354
1403636931651666432,49.940825,488.9104748264303,9.978266375,0.0735498749999999,-4.241376125,-0.1089085453244461,0.0139626340159546,-0.1096066770252439,15.5137657015908,9.645757974418723,-0.0513053391085414
1403636931901666560,49.364567,502.1138185075881,9.447072833333332,-0.4331270416666666,-3.3751220416666667,0.0356047167406843,-0.182212373908208,0.2562143341927675,10.69858581119654,9.495922359957317,-0.011055774013282615
1403636932151666432,50.53258,593.8666247337476,8.556302125,0.220649625,-3.097266958333333,-0.0055850536063818,0.1082104136236484,0.1424188669627373,9.844280576585385,9.23280414722121,-0.05192026086475465
1403636932401666560,49.874545,531.3179234991827,10.664731875,0.4086104166666666,-4.110620791666666,-0.0970403064108847,0.1005309649148733,-0.0621337213709981,9.197142244870928,8.977812263419791,-0.11344493285475998
1403636932651666432,57.873249,475.28180037567984,10.231604833333332,-0.5720545833333333,-3.317916583333333,-0.2590068609959585,0.0907571211037051,0.3686135380212024,5.305419926401058,8.332822957370663,-0.1670446991785024
1403636932901666560,50.377607,543.7991099970776,9.054806833333332,-0.4494714583333333,-2.2963905416666663,-0.1766273203018261,-0.1047197551196597,0.1598721594826805,5.3016659046940715,6.237153825218065,-0.10136916857718603
1403636933151666432,50.56715,515.2293952227346,9.177389958333332,0.1634441666666666,-2.0512242916666668,-0.1773254520026238,-0.0439822971502571,0.1347394182539622,3.8544104556696026,5.703628453387368,-0.11709601161504946
1403636933401666560,50.073862,581.8215334843086,8.229413791666666,-0.196133,-2.950167208333333,-0.0404916386462684,-0.1731366617978375,0.1103048087260416,11.283498566249555,5.462765448061672,-0.06496713593245218
1403636933651666432,50.392151,521.9642084967859,10.958931375,-0.563882375,-3.0318892916666664,0.0272271363311115,0.1256637061435917,0.1270599695451872,11.09093449154871,5.112263442947673,-0.08249826450077702
1403636933901666560,49.848079,697.0394486863589,9.308145291666667,0.0735498749999999,-3.67749375,0.0062831853071795,0.1766273203018261,0.1494001839707146,4.9803108210615195,4.712237503244324,-0.0926495310646418
1403636934151666432,48.22278,448.0213579626827,8.662540833333333,0.5311935416666667,-3.4568441249999995,-0.3679154063204046,0.0823795406941323,0.2066469834361286,3.631142912245186,4.384880015118272,-0.04729117712019182
1403636934401666560,49.645901,407.96839087399593,8.597163166666666,0.5066769166666666,-2.89296175,-0.4970697709679851,0.0307177948351002,0.4098033083682685,11.727967775831855,4.309029737048967,0.12676584426002613
1403636934651666432,50.664425,415.97061135821593,10.239777041666668,0.5148491249999999,-4.004382083333333,-0.5354670145118603,0.036302848441482,0.3211405823669566,12.658337676618507,5.362651545739953,0.09500599114437236
1403636934901666560,47.466994,610.921567454459,11.293991916666666,0.0735498749999999,-4.870636166666666,-0.2324778563656447,-0.1487020522699168,0.0607374579694026,11.614412046795247,5.514516232051793,-0.005879597693803973
1403636935151666432,60.904741,587.9131591413429,8.262102624999999,0.0980665,-3.0809225416666663,0.114493598930828,0.2150245638457014,0.2122320370425104,13.821345011623324,6.223199543408543,0.019193923322482043
1403636935401666560,49.668074,799.8440458238422,8.3356525,-0.3350605416666666,-3.342433208333333,0.0760963553869527,0.0153588974175501,0.140324471860344,12.58167966039769,5.91104304100003,-0.04443789030480172
1403636935651666432,49.94154,838.8065035347769,9.218251,0.3268883333333333,-3.6202882916666654,0.0432841654494593,0.1207767842380075,0.0230383461263251,12.217711380761878,5.642257566667998,-0.0211224243095689
1403636935901666560,49.732685,482.52729590145066,9.586000375,0.2124774166666666,-2.974683833333333,0.0034906585039886,-0.1598721594826805,-0.0055850536063818,15.028957042772484,5.37654548457702,-0.08098971986010728
1403636936151666432,39.67905,722.2837141880111,9.103840083333331,-0.416782625,-1.52003075,-0.0453785605518525,0.0600393262686049,0.0027925268031909,17.62471567220518,5.254273665575513,-0.0572421123008926
1403636936401666560,45.934438,592.1862871836142,10.084505083333331,0.3268883333333333,-4.314926,-0.0370009801422797,0.1947787445225671,0.0670206432765822,16.157475729553827,5.373743353620943,0.10851602417962969
1403636936651666432,50.631285,740.3562152522045,9.210078791666666,-1.454653083333333,-3.759215833333333,-0.0432841654494593,-0.028623399732707,0.189891822616983,14.621773469221372,5.573127406302475,-0.01783907207004809
1403636936901666560,40.373564,795.0911802200324,8.711574083333332,-0.392266,-2.1983240416666665,-0.0628318530717958,0.0111701072127637,0.028623399732707,14.519027423684475,5.376950572441301,-0.06513284955477694
1403636937151666432,50.040722,788.7214355692785,7.690048041666667,0.1389275416666666,-2.982856041666666,0.0251327412287183,0.0886627260013119,0.1500983156715123,13.022778983955668,5.191858416326895,-0.05595082978590771
1403636937401666560,49.355745,814.5345047476378,10.051816249999998,-0.0980665,-3.8082490833333327,-0.0174532925199432,0.0090757121103705,0.0956440430092892,12.334805571929634,3.8929624256827666,-0.015401358264649279
1403636937651666432,50.084114,704.5141588132984,9.863855458333331,-0.0653776666666666,-2.312734958333333,-0.0705113017805709,-0.0202458193231342,-0.0383972435438752,11.799235770919143,4.010548594758348,0.07874959082355781
1403636937901666560,48.463106,643.1966033101728,10.844520458333331,-1.2176590416666666,-3.178989041666666,-0.0998328332140756,0.2052507200345331,0.0097738438111682,12.011388592643627,4.148193764851068,-0.022970877798038636
1403636938151666432,42.228699,780.2888848155497,9.75761675,0.0653776666666666,-2.7213453750000003,-0.0460766922526503,0.1877974275145898,0.2750638901143063,11.849731492758966,4.455613963268216,0.17536778610022274
1403636938401666560,49.677849,584.5354145913301,7.788114541666666,0.5311935416666667,-3.3751220416666667,0.0530580092606276,-0.0900589894029074,0.5592034923389831,10.869737755877699,5.442837786044227,0.294528031059186
1403636938651666432,58.92086,809.675997548911,8.3356525,-0.612915625,-4.4211647083333325,-0.1123992038284348,0.0104719755119659,0.0111701072127637,9.761685243743186,6.187362474548521,0.02191070902757275
1403636938901666560,41.307449,647.9846615938751,8.77695175,0.24516625,-2.018535458333333,-0.1710422666954443,-0.0565486677646162,-0.2771582852166995,14.442554098192886,6.204709250583204,0.011155597657277028
1403636939151666432,39.252519,780.8619230602504,8.270274833333334,0.465815875,-2.672312125,-0.0132645023151569,0.0872664625997164,0.0202458193231342,18.431173495583348,6.1582852938871335,-0.05903067672717732
1403636939401666560,56.370258,804.0755100560431,10.820003833333333,0.4004382083333333,-3.9390044166666662,0.0356047167406843,0.0837758040957278,0.0593411945678072,19.949444735631058,6.482975799818975,0.021234297669534108
1403636939651666432,60.611725,774.7362746967428,8.97308475,0.0163444166666666,-2.9583394166666666,0.0726056968829641,0.1605702911834783,0.1696460032938488,19.38648680638918,6.758395382601735,-0.15479242555011385
1403636939901666560,49.797058,698.5848680157727,8.155863916666666,-0.220649625,-3.219850083333333,0.0390953752446729,0.0041887902047863,0.1808161105066125,19.082100878099737,7.528400547788179,0.10289818667034822
1403636940151666432,59.155941,512.3979646149229,8.956740333333332,0.3350605416666666,-3.6448049166666654,-0.1347394182539622,-0.0139626340159546,0.1633628179866692,21.238862862017964,9.223429705240951,0.40063941665898817
1403636940401666560,42.20128,591.8078739196463,9.398039583333333,-0.3595771666666666,-3.92266,-0.0551524043630208,0.0034906585039886,0.1989675347273535,26.673118624351982,8.625344265895874,0.4176342496625409
1403636940651666432,50.2069,411.285998953754,10.901725916666663,-0.318716125,-2.778550833333333,-0.0767944870877505,-0.0760963553869527,-0.0244346095279206,27.267593806126516,10.249844359612446,0.2561403628485355
1403636940901666560,53.261996,591.4377785321444,8.662540833333333,-0.563882375,-2.59876225,-0.0886627260013119,-0.0998328332140756,-0.0397935069454707,26.503406465340145,11.588286236182254,0.3004254695777213
1403636941151666432,43.187141,667.0023676187955,8.417374583333332,0.171616375,-4.233203916666667,0.0111701072127637,0.1542871058762987,0.0481710873550434,25.84967863705777,12.033483638979124,-1.0946172384773565
1403636941401666560,38.264036,692.6348894107732,7.690048041666667,-0.7191543333333333,-2.79489525,0.0446804288510548,0.0823795406941323,-0.0251327412287183,24.74889922852208,13.37665446874765,0.19398347772980884
1403636941651666432,59.887647,760.2809646496305,7.681875833333333,0.122583125,-2.7131731666666665,0.0132645023151569,-0.028623399732707,0.0370009801422797,23.724300992027594,14.113929073359191,0.1360228825741494
1403636941901666560,50.267219,720.3605223647769,9.520622708333333,-0.5311935416666667,-3.603943875,-0.0279252680319092,-0.0383972435438752,0.0048869219055841,22.74063590827812,15.057117437783374,0.16924848576196894
1403636942151666432,60.175419,646.5755205846615,8.801468374999999,-0.2615106666666666,-1.8060580416666667,-0.0020943951023931,0.0628318530717958,0.1110029404268393,21.314943767196787,15.787680173153952,0.3135188666139559
1403636942401666560,39.730787,716.6912656290955,7.79628675,-0.1062387083333333,-2.1002575416666667,0.0230383461263251,0.0376991118430775,0.1626646862858715,21.327340127732477,17.521483752428814,0.11159688762651854
1403636942651666432,42.422294,663.5233076177035,8.523613291666665,0.1062387083333333,-2.672312125,-0.036302848441482,-0.1703441349946465,0.1075122819228507,25.015949099149342,19.4166740162436,0.17077310135257662
1403636942901666560,37.407875,717.1119629623943,9.275456458333332,0.1634441666666666,-4.306753791666666,-0.0781907504893459,0.1158898623324234,-0.0223402144255274,26.774399126404667,20.686022518776124,0.2659182960903266
1403636943151666432,60.493946,797.1595663096793,7.379504124999999,-0.7763597916666666,-2.8766173333333334,-0.0328121899374933,0.0265290046303138,0.1082104136236484,25.923321875992723,21.943057637740495,0.2619871864803116
1403636943401666560,60.190439,804.1592929265726,7.567464916666665,-0.7927042083333332,-2.459834708333333,-0.046774823953448,0.0244346095279206,0.0628318530717958,25.241194485840275,23.197400526395306,-0.12262069694998345
1403636943651666432,50.69685,788.2334274381101,9.651378041666666,-0.3350605416666666,-2.7213453750000003,-0.0809832772925368,0.0425860337486616,0.0090757121103705,25.721885043101324,24.267642691528973,0.24762101430738426
1403636943901666560,47.726155,447.9583678893368,7.305954249999999,-0.6782932916666666,-1.8224024583333327,0.1123992038284348,-0.1850049007113989,0.0020943951023931,26.311081653957398,25.450666782809105,0.3053026197627453
1403636944151666432,41.93902,495.853138899835,9.937405333333334,-0.4249548333333333,-3.3751220416666667,0.0907571211037051,-0.1877974275145898,-0.0453785605518525,26.724774134321095,28.098426070679334,0.7382863513104958
1403636944401666560,60.18591,560.7906245048358,10.852692666666666,0.3759215833333333,-2.7213453750000003,-0.0356047167406843,0.317649923862968,-0.1389282084587486,20.664583705550626,29.052629192125934,-0.2530440376231802
1403636944651666432,47.319651,562.5888454888665,10.681076291666663,-0.1389275416666666,-4.086104166666667,-0.018151424220741,0.239459173373622,-0.1130973355292325,16.88710935873709,29.36126657081713,0.0761236227005675
1403636944901666560,52.006721,559.8756494712799,11.007964625,-0.1797885833333333,-3.3751220416666667,0.124965574442794,0.0090757121103705,0.1242674427419962,12.611770471386025,29.68017517068847,0.7442938105184638
1403636945151666432,39.533615,698.9859142086378,6.2599115833333325,0.1879607916666666,-3.28522775,0.0439822971502571,0.0383972435438752,0.0537561409614253,8.33367467544118,30.83935084241493,0.19381605878619013
1403636945401666560,47.290802,710.6760693371347,10.182571583333331,0.3023717083333333,-4.110620791666666,-0.0125663706143591,-0.0062831853071795,0.0719075651821663,7.3538194786763125,31.713413917463395,0.15985587082845143
1403636945651666432,41.395664,347.3866220903949,8.074141833333334,-0.1879607916666666,-2.680484333333333,-0.0642281164733913,-0.2562143341927675,0.0307177948351002,4.54263451809803,32.41107047177923,0.09788106013805731
1403636945901666560,50.012111,679.2073012764499,10.558493166666668,-0.5311935416666667,-4.233203916666667,-0.0013962634015954,-0.0153588974175501,0.1619665545850737,7.458905616299508,33.174094926385834,0.04508300364642537
1403636946151666432,60.134411,707.1680963603559,9.054806833333332,0.3759215833333333,-4.862463958333334,-0.018151424220741,0.0356047167406843,0.1123992038284348,9.34126439645664,33.07218904420926,-0.02910568532436031
1403636946401666560,59.932232,675.6486617531216,9.773961166666666,-0.2615106666666666,-2.1492907916666666,-0.0160570291183478,0.0488692190558412,0.0970403064108847,14.513071617268183,33.125329949687824,-0.09110597290343492
1403636946651666432,50.278187,509.31207861942585,8.858673833333333,0.7600153749999999,-3.195333458333333,0.0097738438111682,-0.0809832772925368,0.1242674427419962,18.28356920457707,34.00331177557984,0.07377429375668498
1403636946901666560,49.822807,554.2262563658801,7.453054,1.1114203333333332,-3.636632708333333,0.0349065850398865,0.0167551608191455,0.2143264321449036,14.795704024829298,34.459695839110125,0.03065124177019385
1403636947151666432,41.80026,378.5799283410855,9.406211791666664,0.0408610416666666,-3.9880376666666666,-0.1459095254667259,-0.0502654824574366,-0.21851522234969,14.437942209307556,34.85540054536673,0.09802770985942999
1403636947401666560,50.494432,392.40806736102775,9.36535075,-0.4903325,-4.707191999999999,-0.0879645943005142,-0.1661553447898601,-0.0760963553869527,12.891376470419377,34.86631668776546,0.05953924084609952
1403636947651666432,50.186873,502.59392743240153,8.752435125,1.103248125,-4.723536416666667,-0.0397935069454707,0.265290046303138,-0.0216420827247296,7.454796480384592,34.326706690224,-0.04951200381619003
1403636947901666560,59.965849,517.9967694296874,8.907707083333333,-0.6946377083333333,-3.2525389166666665,-0.0663225115757845,0.0516617458590321,-0.0851720674973232,7.525721940545885,33.83193087605778,-0.07724008475064181
1403636948151666432,50.221205,573.5967522747821,7.567464916666665,0.3840937916666667,-3.048233708333333,0.0439822971502571,-0.0621337213709981,-0.0300196631343024,3.071496370495886,33.46142096490639,-0.10048098974112207
1403636948401666560,49.685001,554.5616425482399,9.332661916666666,0.0572054583333333,-4.233203916666667,0.0139626340159546,0.0335103216382911,-0.007679448708775,1.4577656990425614,32.72825409882564,-0.1405928830767209
1403636948651666432,60.30941,436.9828060509837,8.172208333333334,-0.0326888333333333,-2.8847895416666667,0.0411897703470661,0.1801179788058148,0.0586430628670094,6.346541784981719,31.5990104126413,-0.24782443242230556
1403636948901666560,49.508333,373.22024205396,9.242767625,0.04903325,-3.8654545416666655,0.1912880860185785,0.1864011641129944,0.4635594493296939,15.492540388312031,30.40421117627705,-0.24798014911167598
1403636949151666432,59.988022,526.1046175402522,8.433719,0.1879607916666666,-2.582417833333333,-0.0202458193231342,-0.0020943951023931,0.0404916386462684,19.014664265605614,29.37401450470177,-0.1573293433967322
1403636949401666560,50.569534,512.7066106581154,9.651378041666666,-0.1307553333333333,-4.797086291666667,0.064926248174189,0.0209439510239319,0.2303834612632515,17.458070241696568,28.381630567724557,-0.20070174353127612
1403636949651666432,59.415579,575.600999276928,9.56148375,0.2124774166666666,-4.004382083333333,-0.0523598775598298,-0.179419847105017,-0.0118682389135614,16.043532144013835,27.89693538723867,-0.05494386770430992
1403636949901666560,47.707558,413.6291654089084,8.3356525,0.465815875,-2.8439285,-0.0565486677646162,-0.1542871058762987,-0.0195476876223364,13.072220442769392,27.376247430622964,-0.16648410842126538
1403636950151666432,42.397737,547.9159815476977,7.886181041666666,-0.318716125,-4.609125499999999,-0.0607374579694026,-0.0579449311662117,0.0202458193231342,11.185541220522746,26.66264259949059,-0.1638462263573608
1403636950401666560,62.377215,511.9867509783492,9.896544291666666,0.416782625,-5.025908124999999,-0.0188495559215387,0.2590068609959585,-0.0062831853071795,9.389877693919644,25.707161147439166,-0.18515938300184231
1403636950651666432,39.17551,537.8490902154133,10.092677291666664,0.416782625,-3.906315583333333,-0.0132645023151569,0.0977384381116824,-0.0244346095279206,9.352697877781774,24.838498568151227,-0.21399787028402528
1403636950901666560,49.465656,587.8795189295929,9.56148375,-0.2533384583333333,-4.16782625,0.0279252680319092,0.0370009801422797,0.1884955592153876,12.694002602194873,23.92851674934159,-0.22391682408102653
1403636951151666432,50.065994,378.37283343679934,8.466407833333333,-0.2369940416666666,-3.759215833333333,0.0691150383789754,-0.1158898623324234,0.2799508120198904,15.816695786867296,22.947428937512694,-0.4963702359586364
1403636951401666560,49.959659,483.5938451483393,8.842329416666665,-0.1307553333333333,-2.9338227916666666,-0.0740019602845595,-0.2087413785385218,-0.0048869219055841,12.748653608416419,22.17993406086921,-0.15078853897802347
1403636951651666432,49.707174,433.41941672622977,10.215260416666666,-0.5311935416666667,-4.175998458333333,-0.0027925268031909,0.1172861257340189,0.0272271363311115,11.035003248447234,21.045407198329112,-0.23557697692836044
1403636951901666560,60.780287,362.74190124906977,9.471589458333332,-0.0980665,-2.132946375,-0.0998328332140756,0.0293215314335047,-0.104021623418862,12.92572131957384,19.521480455827724,-0.36594960762861817
1403636952151666432,49.190282,297.8098700656893,8.425546791666665,-0.2778550833333333,-2.533384583333333,0.0118682389135614,0.0251327412287183,0.1773254520026238,15.572985736069642,18.40664737596987,-0.1605246275480603
1403636952401666560,48.208475,308.3020183765201,8.629852,0.0572054583333333,-3.0400615,0.0621337213709981,0.0272271363311115,0.228987197861656,14.491592358265088,16.301149940952193,-0.1629284118343719
1403636952651666432,61.043024,308.8498758592553,8.801468374999999,0.2778550833333333,-3.6202882916666654,-0.0642281164733913,0.0502654824574366,0.0279252680319092,14.695744617841195,15.787922054612455,-0.14120451012234447
1403636952901666560,59.051275,239.90214698592337,6.693038625,0.0653776666666666,-1.985846625,0.007679448708775,-0.1940806128217694,0.1808161105066125,14.222083270098961,14.634968126580212,-0.03359852523940532
1403636953151666432,49.601555,273.57303387184226,7.518431666666666,0.1552719583333333,-4.543747833333333,0.0342084533390888,-0.0656243798749867,0.1563815009786919,14.505574818761849,14.45912834958136,-0.05613982363030878
1403636953401666560,61.630965,278.9647816041013,9.684066875,-0.024516625,-3.342433208333333,-0.0069813170079773,0.1521927107739055,-0.0446804288510548,12.20986541905262,13.804606529689908,-0.14222465151219943
1403636953651666432,56.248904,256.83401050390904,8.164036124999999,-0.7600153749999999,-4.233203916666667,-0.0579449311662117,-0.0879645943005142,-0.1019272283164688,9.930963907983354,13.194379414893193,-0.13748945552218572
1403636953901666560,42.771339,276.6522643576248,10.411393416666668,-0.7436709583333333,-3.947176625,0.0272271363311115,0.0460766922526503,0.1766273203018261,14.491684210308103,12.486018739735332,-0.03958969137460677
1403636954151666432,60.600996,317.1369975655612,8.915879291666666,0.2778550833333333,-2.770378625,-0.0328121899374933,0.0153588974175501,0.1103048087260416,18.802004866656166,12.275149440042131,-0.04748156538437165
1403636954401666560,49.444914,322.85521923756903,7.387676333333332,0.1634441666666666,-2.8847895416666667,-0.0321140582366956,-0.0677187749773799,-0.007679448708775,19.347577820030608,11.868520739789448,-0.08625573589613111
1403636954651666432,47.50061,272.75272124954034,7.314126458333333,-0.3023717083333333,-2.083913125,-0.1137954672300302,0.0432841654494593,0.046774823953448,21.852734053387522,11.420103190842202,-0.05165335601460974
1403636954901666560,40.39216,328.67573153399326,8.752435125,-0.0081722083333333,-4.0125542916666666,-0.0551524043630208,0.1179842574348166,0.21851522234969,20.912087966349702,11.38476290077155,-0.06902513087210771
1403636955151666432,47.435046,369.4745924726657,10.632043041666666,1.0705592916666666,-2.754034208333333,-0.1270599695451872,0.0300196631343024,-0.0020943951023931,21.249734396391844,11.184231146963409,-0.05984766189035007
1403636955401666560,60.302735,370.40832219500834,8.319308083333333,0.6210878333333334,-3.28522775,-0.1298524963483781,-0.0691150383789754,0.0740019602845595,21.72648514142121,10.445524792798935,-0.5225242720362733
1403636955651666432,61.170339,415.16878477594,8.417374583333332,0.465815875,-2.124774166666666,-0.0523598775598298,0.0244346095279206,0.1068141502220529,24.981694434541414,10.668074335903093,0.00043967289920310293
1403636955901666560,47.935724,410.3364468740373,10.73828175,0.0817220833333333,-3.072750333333333,-0.0083775804095727,0.0621337213709981,0.1975712713257581,25.89344104980682,10.87669275716841,0.061382044576957284
1403636956151666432,52.118778,564.567151448388,8.425546791666665,0.392266,-3.366949833333333,0.0160570291183478,-0.0523598775598298,0.2213077491528809,27.47926556271187,11.313256039998956,0.00923998796738168
1403636956401666560,49.922466,570.779518465305,10.926242541666667,0.1470997499999999,-4.3312704166666665,-0.1480039205691191,-0.0851720674973232,-0.1836086373098034,23.20019110965135,10.907624818266996,-0.12050985759585586
1403636956651666432,50.80986,350.53942504778433,11.073342291666666,0.7191543333333333,-4.666330958333333,0.3972369377539094,0.2241002759560719,0.1766273203018261,20.963082026281143,9.6864308856677,-0.9628138045780243
1403636956901666560,53.431749,323.1777550718768,8.270274833333334,-1.1686257916666667,-1.6916471249999998,0.5222025121967034,-0.1068141502220529,-0.1103048087260416,19.718873700355203,9.523327777001851,-0.07598544327379564
1403636957151666432,50.010443,313.77300944081026,10.828176041666667,-0.2124774166666666,-4.004382083333333,0.5612978874413763,-0.124965574442794,-0.2548180707911721,15.606750743726225,8.61052746656949,-0.13889336689876153
1403636957401666560,50.293445,418.0768117996169,7.828975583333331,0.122583125,-2.3699404166666667,0.2946115777366427,-0.0537561409614253,0.0307177948351002,12.597631580649828,5.802166981448824,0.02171361369935454
1403636957651666432,42.151928,410.6426219752339,5.385485291666667,0.1144109166666666,-3.015544875,0.2464404903815993,-0.0027925268031909,0.054454272662223,10.269842808111061,5.460151277313615,-0.04556091133642237
1403636957901666560,50.004482,323.82907666997414,8.082314041666667,0.4331270416666666,-2.476179125,0.6220353454107791,0.0942477796076938,-0.0893608577021096,10.80350950899883,5.237260130355491,0.21308310862392155
1403636958151666432,66.226483,367.0500422985206,11.947768583333332,0.0,-4.274064958333334,0.510334273283142,-0.0342084533390888,0.0230383461263251,6.414432018628256,6.62795961712219,0.05913792130863005
1403636958401666560,49.872875,468.4154832340991,10.231604833333332,0.2778550833333333,-4.028898708333333,0.296705972839036,0.0244346095279206,-0.1584758960810851,6.527016133521443,6.898846594623864,-0.3744389873079461
1403636958651666432,60.459852,647.2663450342037,8.760607333333333,0.1307553333333333,-3.57942725,0.0502654824574366,0.0488692190558412,0.046774823953448,6.84785349895864,4.722891485105861,-0.4003199290075887
1403636958901666560,47.593116,579.0867872935461,7.959730916666666,-0.3840937916666667,-3.170816833333333,-0.028623399732707,-0.0760963553869527,0.0802851455917391,4.658213150959701,4.26963526660042,0.07782387776987854
1403636959151666432,39.613008,638.589206560253,7.837147791666666,0.5965712083333333,-3.097266958333333,-0.0851720674973232,0.0760963553869527,0.0600393262686049,3.4951338242473295,6.158575232294738,0.06925432408967591
1403636959401666560,50.082683,646.1392723309833,8.638024208333333,-0.1552719583333333,-2.770378625,-0.0614355896702004,0.0272271363311115,0.025830872929516,3.148024126004113,6.605731104616368,0.0919345048920368
1403636959651666432,61.475516,616.4444888532615,10.378704583333333,-0.6292600416666666,-4.347614833333333,-0.0244346095279206,-0.085870199198121,0.0209439510239319,6.9090179770026365,7.966690575314016,0.18959182915738015
1403636959901666560,60.482025,635.540782184147,9.520622708333333,0.2778550833333333,-3.4813607499999994,-0.0565486677646162,0.0202458193231342,0.075398223686155,5.121496963457287,8.493224584043297,0.04628009331520211
1403636960151666432,50.015688,609.2966546500691,10.133538333333334,-0.465815875,-3.342433208333333,-0.0188495559215387,0.0411897703470661,0.0174532925199432,7.070250000131015,7.4151663562867896,-0.6346023054117893
1403636960401666560,60.704708,578.4087804387324,8.147691708333333,-0.220649625,-2.982856041666666,0.0237364778271228,0.1591740277818828,0.0,7.1532453071080155,7.827782354440588,0.06529150117241933
1403636960651666432,49.355507,528.8496337971676,7.591981541666666,0.4494714583333333,-4.927841624999999,0.1284562329467826,0.1528908424747032,0.0432841654494593,9.727449141962941,8.293879520408044,0.12313164957827638
1403636960901666560,45.926094,396.3613683127792,9.234595416666666,-0.83356525,-4.208687291666666,0.3441789284932817,-0.1438151303643327,0.0600393262686049,13.795931065787814,8.980079015259015,0.19682747657511968
1403636961151666432,39.217472,370.9788218410284,10.54214875,-0.3268883333333333,-3.38329425,0.5396558047166466,-0.0034906585039886,-0.0272271363311115,14.590417313477122,10.307328451084064,0.24152473858791446
1403636961401666560,40.754795,455.48348396739135,7.935214291666666,-0.0408610416666666,-3.4731885416666666,0.3755948550291797,-0.0041887902047863,-0.1480039205691191,13.622661202821519,11.492874420040218,0.23856455802845566
1403636961651666432,49.862623,442.4048421934286,9.1201845,0.2615106666666666,-3.693838166666666,0.3776892501315729,0.0907571211037051,-0.007679448708775,15.97383915016647,10.84833120481392,0.10508063960188885
1403636961901666560,63.263178,412.67907782740417,9.250939833333334,-0.9234595416666666,-3.113611375,0.3895574890451343,0.0034906585039886,-0.007679448708775,17.39357841305651,11.684747849658908,0.1346032650002531
1403636962151666432,49.67165,432.3176188666728,9.487933875,0.1062387083333333,-3.211677875,0.4167846253762458,0.0397935069454707,-0.0851720674973232,14.245757381586094,11.920076057116443,0.1899659457351266
1403636962401666560,39.503098,378.4982902169274,10.158054958333333,0.1879607916666666,-5.418174124999999,0.4300491276914028,0.0509636141582344,-0.0942477796076938,15.542500133043823,11.352119022989612,0.2595026917605665
1403636962651666432,50.268411,437.96212817637473,7.959730916666666,-0.8417374583333332,-1.9695022083333331,0.4314453910929983,0.0244346095279206,-0.2450442269800038,17.73619212303113,12.964714212991735,0.33854587393169844
1403636962901666560,50.275087,445.354725990616,7.779942333333333,-0.3759215833333333,-2.69682875,0.2275909344600605,0.0481710873550434,0.1026253600172665,15.017512862332696,15.334965789731736,0.1985033246931618
1403636963151666432,50.512314,633.7852796697724,8.703401874999999,0.9479761666666666,-2.631451083333333,-0.0020943951023931,0.1494001839707146,0.15079644737231,17.625886364265707,14.850083261722045,-0.9690171584650678
1403636963401666560,39.82544,666.0775046665523,7.493915041666666,1.054214875,-3.309744375,-0.0516617458590321,0.0139626340159546,0.1710422666954443,16.64401841508007,15.106898713449802,0.07860288709079022
1403636963651666432,60.076714,699.5954562821319,11.040653458333331,-0.269682875,-3.505877375,-0.0872664625997164,0.0230383461263251,0.0963421747100869,16.04134640216984,15.266000709697867,0.00946412007063735
1403636963901666560,46.87357,582.4034297517419,8.221241583333333,0.171616375,-2.770378625,-0.0425860337486616,0.0195476876223364,0.0607374579694026,16.810054246065103,16.25437739814962,0.28611368373057644
1403636964151666432,60.742855,522.8855531584497,9.65955025,0.4004382083333333,-3.072750333333333,-0.0146607657167523,0.0914552528045028,0.0719075651821663,18.988988579836274,17.933691485033908,0.35027424266527163
1403636964401666560,49.957991,539.0292772110021,8.793296166666666,-0.3268883333333333,-2.40262925,0.0048869219055841,0.0307177948351002,0.0335103216382911,18.87277776357178,19.510373064052295,0.3231523292984342
1403636964651666432,49.021244,424.7050007858956,7.363159708333333,-0.3268883333333333,-4.110620791666666,0.2227040125544764,0.0090757121103705,-0.0342084533390888,19.79765548173767,21.282759530874714,0.4516629277276216
1403636964901666560,50.166607,289.6829581692757,9.36535075,-0.0980665,-3.162644625,0.5012585611727715,0.0712094334813686,0.0774926187885482,23.255104832096727,19.748687763456807,-3.0553054907995687
1403636965151666432,41.822195,356.1675608837349,9.308145291666667,0.1144109166666666,-3.1299557916666663,0.4251622057858186,0.0125663706143591,0.0160570291183478,28.620964682162825,21.957549437278566,0.5196207246231559
1403636965401666560,49.749613,311.4265865618616,10.623870833333331,0.8825985,-3.6202882916666654,0.124965574442794,-0.4454080251089529,0.0684169066781777,32.395316525778526,24.879629446282873,0.6200662514305932
1403636965651666432,49.603462,261.54350786836835,10.427737833333332,0.83356525,-3.661149333333333,0.0216420827247296,0.4768239516448508,0.2918190509334519,35.86787796350377,28.245200876290514,0.7766074452835809
1403636965901666560,50.084114,470.7416895847369,9.038462416666666,0.2288218333333333,-3.4731885416666666,-0.1305506280491758,0.057246799465414,-0.0733038285837618,35.81642543000024,32.60891983029826,0.7981620128111828
1403636966151666432,48.279285,511.0791831385759,7.559292708333333,0.6946377083333333,-1.6589582916666663,-0.0635299847725936,0.0383972435438752,-0.057246799465414,31.934084519359608,36.57812370509834,0.7607264713748236
1403636966401666560,50.382614,333.7290390195856,9.75761675,-0.416782625,-4.380303666666666,0.1110029404268393,0.0956440430092892,0.4412192349041665,30.892929429444223,40.55639538960192,0.5069050910346178
1403636966651666432,51.472187,484.0947431109682,7.959730916666666,-0.0653776666666666,-3.571255041666667,-0.122173047639603,-0.0314159265358979,-0.1054178868204575,28.61110002416104,42.58219401938137,0.35382455869387996
1403636966901666560,49.751521,456.4969404600132,9.438900625,0.465815875,-2.672312125,-0.0006981317007977,-0.0104719755119659,0.1417207352619395,25.3281447020009,44.38735350994546,0.41853233819584545
1403636967151666432,47.486306,527.6195202087722,9.112012291666666,-0.2124774166666666,-2.909306166666666,-0.0495673507566389,-0.0418879020478639,-0.0006981317007977,23.09775594835097,46.22050649986312,0.3378313961556003
1403636967401666560,48.024892,536.7169297031386,11.694430124999998,-0.367749375,-3.636632708333333,-0.0293215314335047,-0.0146607657167523,0.0781907504893459,22.39993092533533,47.636311695968544,0.2801674977988995
1403636967651666432,49.074411,532.3617925072149,10.411393416666668,-0.0980665,-2.533384583333333,-0.0607374579694026,0.025830872929516,0.0907571211037051,21.561589964232695,49.19308043763404,0.35212337638582625
1403636967901666560,40.65299,494.921145744886,9.978266375,0.34323275,-4.584608875,0.0146607657167523,0.075398223686155,0.0691150383789754,45.338902956533495,17.516995997330998,0.23629192780132158
1403636968151666432,49.638271,449.6994307928976,8.237585999999999,0.5802267916666666,-2.378112625,0.0132645023151569,-0.0872664625997164,0.1710422666954443,29.88691001946644,17.39246394784194,-0.0694151231542186
1403636968401666560,37.168741,438.26793725319936,8.956740333333332,0.2124774166666666,-3.268883333333333,-0.0125663706143591,0.054454272662223,0.0663225115757845,28.971149363259418,17.216610949673715,-0.07540649692663237
1403636968651666432,49.503803,492.1506015725128,10.901725916666663,0.6946377083333333,-4.1024485833333335,-0.0237364778271228,-0.0411897703470661,-0.0516617458590321,25.674196645821684,17.0112093126322,0.03163873852831145
1403636968901666560,52.794694,416.25261231693696,8.556302125,0.5311935416666667,-2.966511625,0.0663225115757845,0.0097738438111682,0.2227040125544764,25.202580496099763,16.941008875382607,-0.016688222197263514
1403636969151666432,60.352326,477.31650449815066,9.520622708333333,0.4739880833333333,-2.950167208333333,0.0020943951023931,-0.1905899543177807,0.1235693110411985,27.872221521071133,7.144222914874781,-10.011592277169033
1403636969401666560,49.995422,606.6429117127448,10.239777041666668,0.0980665,-3.211677875,-0.0020943951023931,-0.1787217154042193,0.0795870138909414,24.256066419534132,4.967497435007781,0.048002986005683645
1403636969651666432,50.088167,637.4025300451933,8.164036124999999,0.1144109166666666,-3.1054391666666663,-0.0118682389135614,0.0802851455917391,0.0816814089933346,25.567506818943862,6.475486866914296,0.031962343546086736
1403636969901666560,52.139521,640.5054994191681,8.343824708333333,0.3514049583333333,-2.819411875,-0.054454272662223,0.0921533845053006,-0.0125663706143591,24.5106318761753,6.143839713603868,-0.5977823047217159
1403636970151666432,48.42329,653.9094328296745,7.755425708333333,-0.392266,-3.407810875,-0.0069813170079773,0.2464404903815993,0.057246799465414,25.214490473983254,5.395259358708148,-1.0504150047377987
1403636970401666560,60.240507,481.508736228845,9.161045541666669,0.6456044583333332,-3.636632708333333,-0.0132645023151569,-0.1703441349946465,0.0223402144255274,25.984752004468465,5.6731985711998565,0.07229889310261495
1403636970651666432,68.9435,600.969705091854,10.901725916666663,0.3023717083333333,-3.505877375,0.0153588974175501,-0.2031563249321399,0.0698131700797731,25.585723432822643,6.131453900199603,0.07299261641315269
1403636970901666560,47.334671,660.589128555997,9.504278291666663,-0.1062387083333333,-4.094276375,0.0300196631343024,-0.2024581932313422,0.0872664625997164,24.294815327782512,7.027600719882707,0.1250894637516664
1403636971151666432,50.008297,590.002566122801,9.161045541666669,0.196133,-3.4486719166666666,0.0705113017805709,0.28623399732707,0.21851522234969,24.289282684847585,6.956193222655152,0.11850456237352258
1403636971401666560,50.187588,749.6072527323402,7.575637124999999,-0.4739880833333333,-3.260711125,0.0460766922526503,0.15079644737231,0.1347394182539622,20.32395977446035,7.468129212279684,0.12173987832526212
1403636971651666432,38.659811,669.4514982283932,9.422556208333331,-0.1552719583333333,-2.9256505833333333,-0.0523598775598298,0.2024581932313422,-0.2115339053417127,15.247601496477383,7.655677238646306,0.0023822132074649005
1403636971901666560,49.803972,751.9643874564399,9.872027666666666,-0.7028099166666667,-4.020726499999999,-0.0104719755119659,0.0851720674973232,0.0370009801422797,12.936444393031627,7.829933753518563,0.010929898482262779
1403636972151666432,49.750328,638.8687628572317,10.583009791666663,-0.2043052083333333,-2.2473572916666664,-0.0383972435438752,-0.0495673507566389,-0.0083775804095727,9.121729262634506,7.888674635075113,0.1417177577513975
1403636972401666560,56.833983,818.1710173874089,10.329671333333332,0.1062387083333333,-5.173007875,-0.0328121899374933,0.0614355896702004,-0.0041887902047863,4.328921460028264,7.990361366414993,0.030518176497581706
1403636972651666432,50.323248,807.2156028073765,9.308145291666667,-0.0817220833333333,-2.263701708333333,-0.0314159265358979,0.1417207352619395,-0.0432841654494593,4.112008350065549,7.995200141779872,0.004524794673024246
1403636972901666560,50.286769,856.5541171960165,8.613507583333332,0.7109821249999999,-2.754034208333333,-0.0628318530717958,0.0083775804095727,0.0453785605518525,2.9907287740472084,8.016934501116319,0.004940579626781627
1403636973151666432,39.840698,701.0887343020747,9.144701125,0.2043052083333333,-3.1054391666666663,-0.1724385300970397,0.0872664625997164,0.1200786525372098,2.6633222667819894,7.779241561364081,0.01625073799999477
1403636973401666560,43.026209,851.5153295108827,7.395848541666666,-0.3840937916666667,-2.0267076666666664,-0.1452113937659282,-0.0034906585039886,0.0509636141582344,6.128159893190763,8.114320507864246,-0.002698391249502663
1403636973651666432,50.034523,833.4367464390419,8.564474333333333,-0.122583125,-3.2443667083333327,-0.0558505360638185,0.0963421747100869,0.0802851455917391,9.279863802624723,7.981079992697191,-0.04895412003807387
1403636973901666560,39.390325,879.8731110713913,11.661741291666669,0.5230213333333333,-3.1054391666666663,0.0293215314335047,0.0970403064108847,0.1110029404268393,7.378283761226263,7.909714187081039,-0.014749318896074115
1403636974151666432,41.368961,579.2272882082764,9.863855458333331,0.196133,-2.99102825,-0.2541199390903744,-0.1054178868204575,0.2241002759560719,2.354703027506701,7.956254863145168,0.0017561605775844313
1403636974401666560,49.881936,559.492411944814,7.804458958333332,-0.8662540833333333,-2.312734958333333,-0.5878268920716901,0.0712094334813686,0.260403124397554,4.386736967510895,8.121663002909388,0.01839030726969071
1403636974651666432,39.577246,585.0588326150643,10.027299625,0.1062387083333333,-3.5957716666666664,-0.629714794119554,-0.0816814089933346,0.2485348854839925,8.45933598293247,8.019347987485157,-0.13843858376913332
1403636974901666560,49.330711,562.512164340526,8.97308475,-0.5311935416666667,-4.396648083333333,-0.3881612256435388,-0.1054178868204575,0.4021238596594935,6.3925058524456455,8.03013646480876,-0.004257735205714042
1403636975151666432,49.463034,632.4874550445267,7.510259458333333,-0.1552719583333333,-1.7325081666666666,-0.3546509040052477,0.2066469834361286,0.1354375499547599,2.557688581489884,8.104135045972907,0.019227478713464308
1403636975401666560,49.836159,950.9688581979772,8.474580041666666,-0.0326888333333333,-2.5905900416666663,-0.1528908424747032,-0.0446804288510548,0.0216420827247296,2.8638669984808627,7.837922240327765,-0.08363253325860587
1403636975651666432,49.868822,978.4861225851436,10.672904083333334,-0.1552719583333333,-3.2525389166666665,0.0153588974175501,-0.046774823953448,0.0740019602845595,3.704950819237308,7.640538444937062,-0.013243857783841406
1403636975901666560,62.05821,872.0455131543349,9.912888708333332,-0.0081722083333333,-3.97169325,-0.189891822616983,-0.0083775804095727,0.2513274122871834,2.894856127371384,7.619268044865433,-0.013759722406000208
1403636976151666432,48.082113,646.0709384335024,9.054806833333332,-0.0817220833333333,-2.435318083333333,-0.2960078411382383,0.2694788365079245,0.5731661263549379,3.4246090126323554,7.080211985676025,-0.1826033732897301
1403636976401666560,42.063237,608.4138101432219,8.883190458333333,-0.2288218333333333,-3.963521041666666,-0.520806248795108,0.0614355896702004,0.2666863097047335,4.013979295933106,6.39571910471526,-0.1303542339325663
1403636976651666432,37.440538,611.3405241126641,9.054806833333332,0.3595771666666666,-2.705000958333333,-0.4230678106834254,0.0481710873550434,-0.0551524043630208,8.968906768267583,6.625388240008938,0.14528328143754354
1403636976901666560,49.046039,604.5397668078191,10.615698625,-0.4903325,-3.710182583333333,-0.0705113017805709,-0.0390953752446729,0.1186823891356144,12.236971598849337,6.715059251115751,0.05377155438787984
1403636977151666432,60.635805,874.0140331543729,8.38468575,-0.1389275416666666,-2.3699404166666667,0.0684169066781777,0.0118682389135614,0.0991347015132779,9.196913771582187,6.868217025601207,0.07117922477072014
1403636977401666560,50.366878,606.9414102554533,9.1201845,-0.661948875,-3.18716125,0.0223402144255274,0.0865683308989187,-0.0027925268031909,9.20783492649938,7.007068611912377,-0.011171123615293155
1403636977651666432,49.46661,905.727808656076,8.499096666666667,-0.2124774166666666,-3.219850083333333,-0.0013962634015954,0.1270599695451872,-0.0020943951023931,10.582025499729204,6.900470671898201,-0.018013329509995124
1403636977901666560,61.020851,768.601753690923,11.52281375,-0.4331270416666666,-3.603943875,-0.0586430628670094,-0.0006981317007977,0.0376991118430775,13.26138852175023,6.936526539539782,0.03619293918718558
1403636978151666432,49.724102,748.4278066769923,10.83634825,-0.7109821249999999,-5.597962708333332,-0.0537561409614253,-0.0481710873550434,0.0034906585039886,14.017578605485955,7.259030519726002,0.09127526202828395
1403636978401666560,55.086374,658.1050245289736,8.523613291666665,-0.171616375,-4.233203916666667,-0.0390953752446729,-0.1410226035611418,0.0006981317007977,14.639471735251933,7.736716026956159,0.01702766158016278
1403636978651666432,49.966097,610.7454169407278,10.1008495,0.1879607916666666,-3.4241552916666667,-0.0104719755119659,-0.093549647906896,0.0558505360638185,14.556485197720356,7.565042896466509,0.06857599901974787
1403636978901666560,50.111055,500.97025676247017,9.724927916666667,0.1879607916666666,-2.1983240416666665,0.0432841654494593,0.1584758960810851,0.1340412865531645,12.358086891757857,7.713744028405143,0.06848181042988077
1403636979151666432,56.785345,584.507025215859,7.902525458333333,1.046042666666667,-2.190151833333333,0.0335103216382911,0.0893608577021096,0.0167551608191455,10.676900954088012,7.464731212551047,-0.10340361205476256
1403636979401666560,50.024509,543.227695057926,9.618689208333333,0.2941994999999999,-4.208687291666666,-0.0481710873550434,-0.2199114857512855,0.025830872929516,8.772763280621003,7.0972843779831205,-0.015342732048328145
1403636979651666432,37.712812,702.4440953639288,9.226423208333332,0.220649625,-4.3312704166666665,0.0167551608191455,0.0,0.1640609496874669,8.564093436251735,6.751338471031026,-0.046012941396684326
1403636979901666560,47.821522,484.3625930664944,8.074141833333334,-0.2124774166666666,-3.563082833333333,-0.0453785605518525,0.0977384381116824,0.1570796326794896,13.401484621223956,5.549888137193109,-0.172272388580752
1403636980151666432,53.398609,691.9968652859515,8.997601374999999,-0.3268883333333333,-3.4404997083333333,-0.046774823953448,0.0747000919853573,0.1068141502220529,11.616535120231891,4.741598851028969,-0.15359929654577975
1403636980401666560,43.384075,652.1035998959434,7.779942333333333,0.5066769166666666,-2.190151833333333,0.0216420827247296,0.1738347934986352,0.1884955592153876,6.6759351029281975,4.65074439473154,0.39155052215828423
1403636980651666432,43.990612,685.0669886382755,9.26728425,0.220649625,-3.293399958333333,0.0628318530717958,0.0139626340159546,0.1675516081914556,1.6607065438534039,3.9213748807866655,-0.1845367381754488
1403636980901666560,45.177222,623.9486475387627,10.844520458333331,0.0408610416666666,-4.731708625,-0.0279252680319092,-0.1738347934986352,-0.0376991118430775,3.5394012562961983,3.6839176395638726,0.01660324293801052
1403636981151666432,49.91436,599.3808145283818,8.490924458333334,0.0898942916666666,-3.8082490833333327,0.0307177948351002,-0.0174532925199432,0.2611012560983517,6.725670216785034,3.389134693743708,-0.07544139260012583
1403636981401666560,49.571991,668.5711413642297,7.387676333333332,0.5883989999999999,-2.181979625,-0.0188495559215387,0.0342084533390888,0.1850049007113989,11.160626450473686,11.629967795752396,-0.07387611062461197
1403636981651666432,49.7365,501.61442798296576,9.822994416666669,-0.6537766666666667,-3.342433208333333,-0.1284562329467826,-0.1235693110411985,-0.1445132620651305,0.7461176912967954,11.168120674355231,-0.06164772913978567
1403636981901666560,49.590111,550.4896157623397,8.564474333333333,-0.1307553333333333,-2.2555295,-0.0740019602845595,-0.1815142422074102,0.0328121899374933,6.740130654152443,10.168716466228146,-0.6853171933367044
1403636982151666432,45.984507,597.9123423189311,9.765788958333331,0.563882375,-4.1024485833333335,0.0474729556542457,0.0321140582366956,0.182212373908208,14.24008019483346,8.041597309329031,-1.2265524278962658
1403636982401666560,49.688816,372.63057522532506,10.6892485,-0.6456044583333332,-4.037070916666667,0.0635299847725936,0.2555162024919699,0.2213077491528809,13.074612797987639,7.5986561745354955,-0.2607679019809295
1403636982651666432,56.197881,611.8623295876625,9.953749749999998,-0.2369940416666666,-3.4404997083333333,0.0397935069454707,0.0167551608191455,0.1263618378443894,14.07073946606959,6.131105642709495,-0.13492958470077632
1403636982901666560,42.981386,626.5319654120896,8.981256958333333,0.0898942916666666,-2.974683833333333,-0.0586430628670094,-0.0628318530717958,-0.0474729556542457,14.347737613244904,4.9200823951218045,-0.21834808041410536
1403636983151666432,49.94154,512.5816956632932,9.880199875,0.2860272916666666,-3.3260887916666664,-0.0097738438111682,0.1668534764906579,0.0300196631343024,11.677284384184363,4.122560356328948,-0.3100010014543493
1403636983401666560,49.268484,626.102542768603,10.207088208333332,0.5557101666666666,-2.819411875,-0.0495673507566389,0.0209439510239319,0.0048869219055841,6.8340422273187125,3.366303078230464,-0.11413528060479639
1403636983651666432,46.8359,566.8864561927204,8.834157208333334,-0.0163444166666666,-3.955348833333333,-0.0607374579694026,-0.1417207352619395,0.1291543646475804,6.18457744502924,3.040648837767632,-0.11616262330542027
1403636983901666560,46.146393,639.4254703654392,10.746453958333332,0.3268883333333333,-4.159654041666666,-0.0886627260013119,-0.0460766922526503,0.1012290966156711,12.903699131285851,2.754072279752316,-0.06665092835368691
1403636984151666432,43.416261,520.2297528633997,8.458235625,0.93163175,-2.982856041666666,-0.0516617458590321,0.1480039205691191,0.0621337213709981,18.816890332191917,2.556283757823803,-0.07163241223771832
1403636984401666560,39.150715,591.0763128819599,6.840138375,0.6292600416666666,-2.8766173333333334,-0.0404916386462684,0.0663225115757845,0.0740019602845595,16.961696659967558,3.279914348072831,0.6890778332313219
1403636984651666432,44.822931,631.1733052644604,8.670713041666666,0.2860272916666666,-3.7837324583333327,-0.0132645023151569,0.0195476876223364,0.0593411945678072,13.51389186670339,2.571575413269623,-0.3107457921606427
1403636984901666560,49.788475,596.3737524469017,8.687057458333333,-0.2533384583333333,-3.685665958333333,0.0460766922526503,-0.0376991118430775,0.265290046303138,17.482004489903133,3.7821347444490514,1.265832366582723
1403636985151666432,50.259114,650.3526013050891,5.573446083333333,0.2778550833333333,-1.7406803749999995,-0.0244346095279206,0.0844739357965255,0.0020943951023931,18.636213762468,3.7187859769280434,0.007294405649305169
1403636985401666560,56.607008,566.7343539371765,10.337843541666668,-0.2043052083333333,-3.18716125,0.1626646862858715,-0.0153588974175501,-0.0251327412287183,14.129279451636714,3.630608494608721,-0.0006601541736332983
1403636985651666432,49.873352,481.8278917843565,10.059988458333333,-0.0408610416666666,-4.347614833333333,0.064926248174189,0.0153588974175501,-0.1158898623324234,18.288289904668257,4.332606042165423,-0.17128446626465976
1403636985901666560,50.591946,278.91611733365164,9.087495666666666,0.7600153749999999,-2.811239666666667,0.075398223686155,0.4796164784480418,0.0160570291183478,20.99549576167583,3.982486085220502,-0.014429236092230902
1403636986151666432,50.271749,427.32589071172185,10.533976541666666,-1.454653083333333,-3.334261,0.0104719755119659,-0.2715732316103177,0.0907571211037051,20.273260507805407,3.9521932274683422,0.05434844029126307
1403636986401666560,50.584555,508.7130416918162,9.112012291666666,0.196133,-3.170816833333333,0.0607374579694026,-0.0551524043630208,0.2150245638457014,21.579404687202405,4.3022311488098275,0.1187131323403694
1403636986651666432,47.046661,546.306881704166,9.103840083333331,0.2288218333333333,-3.097266958333333,0.0167551608191455,0.0118682389135614,0.1033234917180643,23.089376655888373,5.484890646486824,0.5944540855839984
1403636986901666560,49.697876,610.9950277464435,8.907707083333333,0.8580818749999999,-3.603943875,0.0621337213709981,0.0488692190558412,0.0998328332140756,24.176943408084362,6.20615684987354,0.17076782580301586
1403636987151666432,65.321446,622.306198687335,9.487933875,0.8253930416666666,-3.612116083333333,-0.0767944870877505,0.08307767239493,0.054454272662223,24.97263570681983,6.679730539043254,0.18367477108492025
1403636987401666560,49.71242,525.7144803786815,9.283628666666663,-0.171616375,-2.4516625,0.0244346095279206,0.1207767842380075,0.0202458193231342,21.906205752099435,7.059649817026843,0.09118926878725286
1403636987651666432,50.129175,579.1063993560682,10.44408225,0.3595771666666666,-3.996209875,0.0642281164733913,0.0251327412287183,0.0579449311662117,19.966699364354856,6.786247002920205,0.004291379930995376
1403636987901666560,47.635794,566.5884016881647,9.250939833333334,0.0408610416666666,-3.6284605,0.0774926187885482,-0.0977384381116824,0.1773254520026238,19.181116156399792,6.97298252517823,0.06042149925068152
1403636988151666432,49.478292,608.620326257386,7.918869874999999,-0.1552719583333333,-1.569064,0.0446804288510548,-0.1110029404268393,0.2115339053417127,18.494156354254642,7.158568391873954,0.10025051034695132
1403636988401666560,50.246,504.0908936263343,10.73828175,0.8499096666666667,-3.4977051666666665,0.0307177948351002,0.2115339053417127,0.1158898623324234,14.036879714408201,7.44608386360373,0.13439269404525866
1403636988651666432,59.858799,695.7306169187133,10.395049,-0.392266,-3.612116083333333,0.0370009801422797,0.0237364778271228,0.1235693110411985,9.51351298470755,7.625242270290154,0.02022101415869404
1403636988901666560,38.814545,670.7827345133966,9.7085835,-0.44129925,-4.339442625,-0.0251327412287183,0.0677187749773799,0.1619665545850737,4.094372933885179,7.642505953545414,-0.046535767162120045
1403636989151666432,52.045345,693.330497437836,9.880199875,-0.2860272916666666,-3.603943875,0.0174532925199432,-0.0027925268031909,0.1494001839707146,4.561295827602482,7.38380158121295,-0.13732846454638192
1403636989401666560,49.941539,366.7809898484607,9.888372083333332,-0.465815875,-2.7131731666666665,-0.0809832772925368,-0.2806489437206881,-0.0914552528045028,9.277571970001564,7.131087448478213,-0.11352424603558209
1403636989651666432,39.643287,576.7469718237745,9.953749749999998,-0.7763597916666666,-4.2822371666666665,-0.0502654824574366,-0.1214749159388053,-0.0048869219055841,11.255495987066952,6.971759686062487,0.01705938645801197
1403636989901666560,50.673485,600.5815171008468,9.635033625,0.0653776666666666,-3.3260887916666664,0.0460766922526503,0.1298524963483781,0.1549852375770964,12.928031945605383,6.699823907613293,0.0029546165024498805
1403636990151666432,49.746275,711.9589378399912,10.877209291666668,-0.5148491249999999,-4.225031708333333,0.0160570291183478,0.1019272283164688,0.0719075651821663,12.06317926609629,6.80178280373961,0.05221843809055127
1403636990401666560,60.344457,662.1595823156126,8.621679791666667,-0.4004382083333333,-2.557901208333333,0.0446804288510548,-0.0579449311662117,0.1047197551196597,10.177160197491878,7.955375184135429,0.2860606292832264
1403636990651666432,60.145378,734.6244428174546,8.77695175,-0.196133,-2.378112625,0.054454272662223,-0.0062831853071795,0.1130973355292325,10.533638845346003,8.56456575998696,0.031054502584453303
1403636990901666560,50.124407,755.5967833652883,8.351996916666666,-0.907115125,-2.288218333333333,0.0244346095279206,-0.0516617458590321,0.1459095254667259,13.544090236398585,8.989833642222623,0.35391266015649414
1403636991151666432,40.303469,738.3061249786571,10.697420708333333,0.196133,-3.178989041666666,0.0104719755119659,0.0495673507566389,0.1759291886010284,16.53385656160066,9.742030704929325,0.2081137402962998
1403636991401666560,60.390234,760.1294951295351,11.089686708333334,-0.024516625,-3.702010375,-0.0418879020478639,0.0279252680319092,0.0921533845053006,15.260783343067999,8.360118153810795,0.12058282504239948
1403636991651666432,49.986124,749.9872928200134,9.569655958333334,0.6292600416666666,-1.9041245416666663,-0.0111701072127637,0.0558505360638185,0.2150245638457014,8.778831186673655,8.54347486680947,0.17042813627891462
1403636991901666560,47.5564,802.1097766626513,9.422556208333331,0.0408610416666666,-4.2168595,0.0006981317007977,0.0376991118430775,0.1633628179866692,3.6797022482159742,9.318228463938802,0.2153855828538287
1403636992151666432,63.342333,730.0750318421018,6.562283291666667,-0.4576436666666666,-2.8766173333333334,-0.0984365698124801,0.1466076571675237,-0.1089085453244461,7.172638021865496,9.723668054262957,0.0804757771185507
1403636992401666560,50.094605,675.8110006675646,9.291800875,0.0980665,-2.778550833333333,-0.0558505360638185,-0.0600393262686049,0.0125663706143591,12.001447111426696,9.494484177524528,-0.0020689484518996437
1403636992651666432,50.456763,776.092343999217,10.133538333333334,-0.2124774166666666,-2.5660734166666663,-0.0474729556542457,-0.0048869219055841,0.0963421747100869,8.920135572198664,9.596497699107122,-0.23337120627285834
1403636992901666560,50.169945,861.0932351524469,9.471589458333332,0.5311935416666667,-2.8847895416666667,-0.0914552528045028,0.0740019602845595,0.0188495559215387,6.196765605584142,9.322092751591244,0.009899211087860849
1403636993151666432,37.783384,724.6788151513144,8.123175083333333,-0.24516625,-2.6477955,0.1277581012459849,0.0635299847725936,0.1808161105066125,7.52217744551285,9.71438128388713,0.08120945727506168
1403636993401666560,47.209263,626.3444296259813,11.375714,-0.3350605416666666,-3.415983083333333,0.3469714552964727,-0.0237364778271228,-0.0125663706143591,3.6144929964811148,10.227871021133213,0.12408745318530734
1403636993651666432,43.31851,645.3615524545651,8.842329416666665,-0.0653776666666666,-3.702010375,0.3714060648243933,-0.1179842574348166,-0.046774823953448,2.307208942024118,10.415518583853002,0.07172262671862839
1403636993901666560,39.309025,815.4270559644873,7.485742833333332,-0.122583125,-1.3647587916666666,0.1082104136236484,-0.0062831853071795,-0.1075122819228507,4.036283683290031,10.40221764669928,0.1279231400590337
1403636994151666432,49.700975,703.5886173253011,7.763597916666666,0.7600153749999999,-1.8959523333333328,0.0048869219055841,0.1389282084587486,0.0502654824574366,7.013887216693259,12.024497699849569,1.2617672062177405
1403636994401666560,42.794943,909.3642648509532,10.190743791666666,-0.0980665,-3.2443667083333327,-0.054454272662223,0.1445132620651305,0.0670206432765822,10.8491093550915,11.847081640284832,-0.20120437418974646
1403636994651666432,47.860861,608.3490122131758,9.234595416666666,0.024516625,-3.7673880416666665,0.028623399732707,-0.1843067690106012,0.257610597594363,11.390941143204385,12.42052570839342,0.12686635692484138
1403636994901666560,47.687769,856.7871302232214,9.177389958333332,-0.5965712083333333,-2.312734958333333,0.0300196631343024,-0.143116998663535,0.2178170906488923,8.991668429204825,12.78368161565534,0.19046636904752212
1403636995151666432,49.756288,871.4631015194395,10.231604833333332,-0.5311935416666667,-2.9256505833333333,-0.0202458193231342,0.1912880860185785,-0.0516617458590321,10.844854318345938,13.163249560880782,0.09515902225440165
1403636995401666560,38.825751,819.5533081817284,10.207088208333332,-0.4004382083333333,-2.8357562916666668,-0.0314159265358979,-0.1158898623324234,0.0104719755119659,7.93946160540941,14.13866704142979,0.3504500303468987
1403636995651666432,50.748348,977.7834681245914,7.698220249999999,0.8580818749999999,-2.827584083333333,0.028623399732707,0.0900589894029074,0.0774926187885482,3.389097793590127,14.807171163919358,0.18375077295934084
1403636995901666560,37.81724,862.5199441977311,8.270274833333334,0.4903325,-2.018535458333333,0.0390953752446729,-0.0223402144255274,0.208043246837724,5.711513534374131,15.23957399935694,0.09787385658703407
1403636996151666432,49.324035,977.199396592802,9.643205833333331,0.3840937916666667,-4.16782625,-0.0816814089933346,0.0607374579694026,-0.0621337213709981,8.885712657125078,14.824716179011762,0.10732128662871432
1403636996401666560,49.100399,985.0236698502264,11.073342291666666,-0.5883989999999999,-3.3751220416666667,0.1103048087260416,-0.018151424220741,0.0719075651821663,7.151195059138181,15.820557498178148,0.1622199913072695
1403636996651666432,41.357994,749.7082116838521,7.060788,-1.0378704583333334,-2.7131731666666665,0.3057816849494065,-0.0069813170079773,-0.0523598775598298,2.210204980272051,15.76193233001519,0.1693730412578116
1403636996901666560,61.469316,699.6464822625467,7.7472535,0.4821602916666666,-2.770378625,0.4691445029360757,0.0404916386462684,-0.1012290966156711,7.468294062511846,17.222970416473483,0.18074817028483636
1403636997151666432,39.202928,804.8296998217811,8.376513541666666,-0.04903325,-2.6886565416666666,0.3337069529813158,-0.0579449311662117,-0.0607374579694026,13.877327661375263,16.74216717302863,0.0195991697504887
1403636997401666560,48.971176,1014.1552581669224,11.612708041666664,0.5720545833333333,-4.306753791666666,0.0865683308989187,0.0300196631343024,0.0586430628670094,15.835135841070247,15.18868642852597,0.14368184229891234
1403636997651666432,59.458732,1179.1259188309891,8.392857958333332,-0.4739880833333333,-3.8899711666666654,-0.0907571211037051,-0.0349065850398865,0.0265290046303138,9.974459043618788,15.906563997219047,0.13191058003534017
1403636997901666560,49.654007,1149.4604004853047,9.087495666666666,-0.318716125,-2.778550833333333,0.0153588974175501,0.0481710873550434,0.1333431548523667,7.309638203790213,16.448332063521118,0.1266889371136628
1403636998151666432,50.145388,1080.2085714265552,6.317117041666666,-0.5230213333333333,-2.3699404166666667,0.007679448708775,0.0844739357965255,0.1291543646475804,10.755234076975984,16.988270925169367,0.10443437857174231
1403636998401666560,49.896956,1132.782292420665,9.610517,-0.907115125,-2.7622064166666664,-0.0349065850398865,-0.0432841654494593,0.1263618378443894,10.2717614088526,17.6679840537612,0.3159139047972843
1403636998651666432,47.52922,623.8185465469925,10.027299625,-0.0326888333333333,-4.4129925,-0.0481710873550434,0.4265584691874141,-0.0614355896702004,9.786935533811008,17.825822179423486,0.010326924880299515
1403636998901666560,48.574686,1095.9838311754918,10.721937333333331,0.171616375,-3.92266,-0.0390953752446729,0.0279252680319092,0.0237364778271228,13.239508000550218,18.27840464862656,0.06231470656071636
1403636999151666432,49.426079,1145.784753596268,8.147691708333333,-0.7191543333333333,-3.685665958333333,-0.0509636141582344,-0.0132645023151569,0.0195476876223364,9.983194369075933,18.655289464276738,0.08220545455633044
1403636999401666560,49.368143,1054.621047427475,8.049625208333332,-0.0653776666666666,-3.97169325,0.0251327412287183,0.0579449311662117,0.2150245638457014,9.238893118824514,19.132506830087166,0.0948981825280697
1403636999651666432,42.91749,1103.13713849541,9.447072833333332,0.3840937916666667,-5.181180083333333,0.0083775804095727,0.1242674427419962,0.0942477796076938,10.883263317970263,19.5427982656398,0.025341180860497303
1403636999901666560,60.027361,1111.6793533786772,11.988629624999998,-0.367749375,-4.110620791666666,-0.0237364778271228,0.0432841654494593,0.0272271363311115,12.94755386741096,19.461154481238832,-0.5331399058796435
1403637000151666432,46.202182,1108.3996256156677,10.476771083333333,0.5311935416666667,-4.437509125,0.0020943951023931,0.0118682389135614,0.1214749159388053,12.827407376562947,19.993362637658244,0.12042540476994645
1403637000401666560,48.481464,1141.8042940278594,6.848310583333333,0.5148491249999999,-2.2228406666666665,0.0558505360638185,0.0453785605518525,0.1843067690106012,13.3702251223944,20.652936538166138,0.14416433400210238
1403637000651666432,48.875093,1093.6152770706822,10.787315,0.0326888333333333,-1.6589582916666663,0.0237364778271228,0.1263618378443894,0.1570796326794896,14.841866179378025,21.36560134149757,0.14409316535131111
1403637000901666560,49.643278,1080.47079834362,9.422556208333331,-0.2124774166666666,-2.745862,-0.0279252680319092,-0.0132645023151569,0.0837758040957278,15.161862030661538,22.14147730053962,0.12501661556300547
