stamp,img_delta,blur,lin_acc.x,lin_acc.y,lin_acc.z,ang_vel.x,ang_vel.y,ang_vel.z,rpe,ate,drift
1403636581113555456,44.092179,317.62326531878347,8.213069375,0.0898942916666666,-2.827584083333333,-0.0397935069454707,0.2981022362406315,0.2038544566329376,35.23513605488483,22.084868978322017,1.7734817587469927
1403636581363555584,60.877085,706.9276681740287,5.810440125,-0.0653776666666666,-1.6834749166666665,-0.0928515162060983,0.0293215314335047,-0.0209439510239319,13.939165332052648,25.296602170546862,0.47718785365265504
1403636581613555456,44.479609,403.1741312812884,7.9433865,0.0408610416666666,-2.378112625,0.0747000919853573,-0.2268928027592628,0.093549647906896,27.039357885027343,16.81368991343607,-0.47962242197423066
1403636581863555584,50.074101,373.80182120812896,9.128356708333332,-0.392266,-3.415983083333333,-0.028623399732707,-0.0837758040957278,0.0823795406941323,21.787696495432137,14.12452943445949,-0.42598603206021934
1403636582113555456,50.046444,256.7156031591092,11.024309041666667,-0.44129925,-4.95235825,0.0139626340159546,-0.3204424506661589,0.0111701072127637,20.642265065860133,13.025873450446065,-0.2533124253292698
1403636582363555584,53.645372,279.69500766314184,10.419565625,0.0735498749999999,-4.748053041666666,-0.0097738438111682,0.3134611336581816,0.0600393262686049,2.2922295389234555,13.890461512886121,0.6818254373751174
1403636582613555456,55.294037,370.36355367321767,9.381695166666669,-0.1552719583333333,-3.7919046666666665,-0.132645023151569,0.1270599695451872,-0.0020943951023931,21.33023597886588,14.533767324361682,0.853188423822969
1403636582863555584,50.086022,291.991663156984,7.878008833333333,-0.3268883333333333,-3.554910625,-0.1591740277818828,0.3169517921621702,0.200363798128949,24.159073758766812,15.269296821213171,0.35465105167445365
1403636583113555456,44.164896,860.8256963254792,6.1209840416666665,0.04903325,-1.5608917916666667,-0.0851720674973232,0.0760963553869527,-0.0069813170079773,13.39753392685122,18.095446137856207,0.0736983004572096
1403636583363555584,44.081211,437.2350852445632,7.861664416666666,-0.0653776666666666,-2.6477955,-0.0111701072127637,-0.0802851455917391,0.0104719755119659,11.584251592752086,16.924164922796752,-0.745897507871998
1403636583613555456,39.632797,319.8223207004329,9.161045541666669,0.196133,-3.563082833333333,-0.1584758960810851,-0.228987197861656,-0.0719075651821663,22.77559480761963,14.736724968663351,-0.3262434928669222
1403636583863555584,45.168638,257.31447149648693,9.880199875,0.1307553333333333,-4.731708625,-0.0251327412287183,-0.2478367537831947,0.0733038285837618,20.60753491180308,12.364865534452175,-0.1335830853189517
1403636584113555456,43.682337,528.9564609990666,11.596363625,0.0980665,-4.895152791666666,0.0963421747100869,0.0195476876223364,0.0998328332140756,7.779707196115698,12.388157874367794,0.131466960394361
1403636584363555584,39.397478,338.7114125333576,10.476771083333333,0.4494714583333333,-4.225031708333333,-0.08307767239493,0.0809832772925368,-0.0677187749773799,14.619144844629972,12.93286003079101,0.13435579618214
1403636584613555456,55.080652,257.7938147700252,8.401030166666667,0.024516625,-3.8409379166666655,-0.1417207352619395,0.3923500158483253,0.1584758960810851,24.91062830883802,13.935397505482216,0.2977136517920087
1403636584863555584,44.300556,460.5136350139532,7.346815291666666,0.220649625,-2.557901208333333,-0.0272271363311115,0.2715732316103177,0.1850049007113989,21.69279949194837,17.333799302620083,1.0980443461044764
1403636585113555456,49.656153,810.3935523761095,6.652177583333333,0.2288218333333333,-2.0267076666666664,0.0153588974175501,-0.0760963553869527,0.1110029404268393,2.9604753730726854,18.056205662757336,-0.34051656540467334
1403636585363555584,49.831629,439.73543734926784,9.586000375,0.0163444166666666,-3.4486719166666666,-0.0027925268031909,-0.132645023151569,-0.0383972435438752,14.781977263220112,14.757280181952368,-0.7789811508882476
1403636585613555456,61.181545,322.8867570930013,10.419565625,-0.122583125,-4.797086291666667,0.2638937829015426,-0.2429498318776106,0.1459095254667259,17.91195930776204,13.48507932405019,-0.11084205857422269
1403636585863555584,50.305605,369.899934685107,10.043644041666663,-0.269682875,-4.404820291666666,0.143116998663535,-0.3581415625092364,0.1850049007113989,7.3127231518248905,11.769582326576451,-1.3006242782310036
1403636586113555456,54.945707,405.4361015348146,8.294791458333332,-0.4086104166666666,-5.410001916666666,-0.2017600615305445,-0.3455751918948772,0.1891936909161853,0.7638652487645818,10.302558476934793,0.03401500042815364
1403636586363555584,59.718609,312.6568976799208,7.126165666666666,-0.0817220833333333,-6.145500666666667,-0.018151424220741,-0.3937462792499207,0.2247984076568696,0.6138602353223817,10.598990860210815,-0.02707630246075965
1403636586613555456,50.062179,870.1512930487958,7.820803375,-0.0326888333333333,-5.93302325,0.0509636141582344,-0.0984365698124801,0.1054178868204575,1.4170972517523277,9.841100073352946,-0.18201034913833247
1403636586863555584,39.34598,767.0270325810396,7.142510083333334,-1.12776475,-6.129156249999999,0.0530580092606276,0.1570796326794896,0.0230383461263251,3.0972443562279284,9.398569690861587,-0.0709739643629188
1403636587113555456,55.088043,890.1768316164939,7.240576583333333,0.1389275416666666,-6.080123,0.0237364778271228,-0.0774926187885482,0.0188495559215387,1.0949694961931427,9.532283477019417,0.03302090692980997
1403636587363555584,49.941301,526.9613084370557,7.469398416666666,0.2043052083333333,-6.366150291666666,-0.0370009801422797,-0.0020943951023931,0.1445132620651305,4.411756875753914,8.833529745486757,-0.3125077702213268
1403636587613555456,39.260149,344.7407769547826,7.649186999999999,0.04903325,-6.71755525,-0.0795870138909414,0.0516617458590321,0.143116998663535,10.909824786041392,7.201578596849524,-0.2921473561571988
1403636587863555584,49.581289,338.7355826577008,6.938204874999999,-0.6456044583333332,-6.03108975,-0.1158898623324234,0.0404916386462684,0.200363798128949,15.464139897945556,5.903710074768064,-0.2482957611066796
1403636588113555456,38.34939,350.96324183898315,7.216059958333333,-0.7927042083333332,-6.725727458333332,-0.0265290046303138,-0.0970403064108847,0.1005309649148733,14.405146601608667,7.186786593639395,0.3709672323825668
1403636588363555584,50.017357,589.3927631649217,7.175198916666666,-1.3157255416666664,-6.856482791666667,0.0677187749773799,0.0977384381116824,0.1172861257340189,6.8583520543304095,9.180494153273125,0.10943314817466643
1403636588613555456,54.361344,396.8798993264992,7.346815291666666,-1.22583125,-6.799277333333333,0.018151424220741,0.0342084533390888,0.0991347015132779,3.0988504997149655,8.308439554064302,-0.3689709761473683
1403636588863555584,60.079575,285.3374380638223,7.093476833333334,-0.83356525,-6.791105125,0.0907571211037051,0.0307177948351002,0.0244346095279206,11.386048417277516,6.066825092065126,-0.3990480097048721
1403636589113555456,45.055628,305.4602198458944,7.461226208333334,-0.83356525,-6.390666916666666,0.1186823891356144,0.124965574442794,0.0048869219055841,16.892720589741124,5.9619001650724455,0.5047369623270637
1403636589363555584,50.179005,308.9838426426469,7.657359208333333,-0.2533384583333333,-6.145500666666667,0.0851720674973232,-0.075398223686155,0.0125663706143591,17.77837050229166,8.859003065345632,1.0134394882881352
1403636589613555456,60.462713,370.2648209594816,7.232404375,-0.2941994999999999,-6.382494708333334,0.0439822971502571,0.0691150383789754,0.0418879020478639,16.515522393078243,11.931209353418604,0.7887552337268282
1403636589863555584,50.134182,332.82971180457787,7.542948291666666,0.1879607916666666,-6.22722275,0.1382300767579508,-0.1277581012459849,-0.0013962634015954,14.773950367674827,14.492756120611727,0.2777639433463168
1403636590113555456,49.853087,564.3401527308923,7.878008833333333,0.2778550833333333,-6.472389,0.1179842574348166,0.1661553447898601,0.0579449311662117,9.565149641640591,15.493145334071176,0.20957749536581716
1403636590363555584,49.32189,659.4345540438189,7.428537374999999,0.465815875,-6.415183541666666,-0.1193805208364121,0.0048869219055841,0.0872664625997164,0.6090412544902662,15.740050114822418,-0.032144724957259285
1403636590613555456,40.327549,390.7587933510095,7.338643083333332,0.0980665,-5.93302325,-0.1235693110411985,0.0809832772925368,0.1130973355292325,8.77355660218304,15.036669996508007,-0.21008379968156987
1403636590863555584,60.407876,388.8183998998678,7.444881791666666,-0.1144109166666666,-6.300772625,-0.0677187749773799,-0.0656243798749867,0.1284562329467826,13.812054037674748,13.414255976142305,-0.3794730878822161
1403636591113555456,50.297499,388.62695387359486,7.305954249999999,-0.8172208333333333,-6.333461458333334,0.0390953752446729,0.0376991118430775,0.114493598930828,15.463974540169922,11.79940278289236,-0.3530913533460982
1403636591363555584,43.767691,388.4021559534647,7.044443583333333,-1.454653083333333,-6.357978083333332,-0.0970403064108847,-0.0279252680319092,0.1263618378443894,13.753983397340901,9.315365910807076,-0.32699626093938505
1403636591613555456,60.528993,310.56946360292443,7.256920999999999,-0.9970094166666666,-6.5704555,-0.2275909344600605,0.4118977034706618,0.1347394182539622,8.599637622978335,6.595023361425014,-0.051096598006089344
1403636591863555584,36.091089,362.8029241112304,8.18855275,0.04903325,-5.483551791666667,-0.1815142422074102,0.3518583772020568,0.1396263401595463,2.6569599573832163,6.614273392541044,0.02816242957277737
1403636592113555456,57.081699,432.52583823069,8.106830666666665,-0.4739880833333333,-5.222041125,-0.1815142422074102,-0.15079644737231,0.2261946710584651,3.6545414256965336,6.169401102693779,-0.21588030934126223
1403636592363555584,49.610138,451.9098552968455,7.853492208333332,-0.9479761666666666,-5.990228708333333,0.0984365698124801,-0.124965574442794,0.1165879940332212,8.629029801532608,5.752776070602652,0.0002721681782560381
1403636592613555456,59.966326,242.54819918149215,7.559292708333333,-1.4464808749999998,-6.014745333333333,0.3197443189653611,0.1514945790731078,-0.1731366617978375,8.430082290662025,5.566116906926015,0.023952819977838047
1403636592863555584,61.14626,208.03481229179707,6.954549291666666,-1.454653083333333,-7.0689602083333325,0.5110324049839398,-0.1193805208364121,-0.1912880860185785,12.88796186359974,6.033921886587657,-0.35223871181849553
1403636593113555456,53.860426,188.1184424501612,6.782932916666666,-1.5363751666666667,-7.322298666666667,0.5305800926062761,-0.0767944870877505,-0.1689478715930511,19.077887381560622,7.758054769641326,0.5169956548375252
1403636593363555584,50.295353,301.35237041451325,6.774760708333333,0.1062387083333333,-6.456044583333333,0.1228711793404008,-0.0886627260013119,-0.0195476876223364,19.65218423569395,10.627238070732552,0.6781462866619652
1403636593613555456,49.930573,381.9249423371964,7.583809333333333,0.1797885833333333,-6.088295208333333,-0.2359685148696333,-0.1172861257340189,0.3106686068549906,13.031327409856672,11.5479831239572,-0.48649858499812204
1403636593863555584,41.407109,226.46490368544283,7.984247541666667,-0.2860272916666666,-6.137328458333333,-0.6695083010650248,0.1919862177193762,0.5082398781807488,13.370463500840115,13.199321980211053,0.12017941408156396
1403636594113555456,39.304256,196.80202328972592,8.351996916666666,-0.8662540833333333,-4.527403416666666,-0.6590363255530588,0.1361356816555577,0.4796164784480418,17.13427542481683,13.51837734699399,0.08674385510522242
1403636594363555584,43.691158,197.76315076582503,8.433719,-1.2176590416666666,-5.140319041666666,-0.3406882699892931,0.0747000919853573,0.0977384381116824,17.857367376946474,9.866638643618025,-0.15710067363778535
1403636594613555456,44.365883,249.95608592235095,7.338643083333332,-2.533384583333333,-6.464216791666666,0.0530580092606276,0.1996656664281513,0.0991347015132779,17.532718448732254,7.721726794033278,-0.03421067485414486
1403636594863555584,39.211035,233.95213571531863,7.1588545,-2.909306166666666,-6.742071875,0.4447098934081551,0.0942477796076938,-0.2282890661608583,13.347617752115665,5.223568296035422,-0.10317357861931864
1403636595113555456,49.934625,181.2862434067848,7.50208725,-0.4821602916666666,-6.5704555,0.7302457590344275,-0.1019272283164688,-0.2820452071222836,24.133692836637948,6.4201287863092675,0.2194350360508448
1403636595363555584,42.762995,239.5373666763288,7.428537374999999,1.6017528333333333,-6.586799916666666,0.3637266161156182,-0.0740019602845595,-0.104021623418862,22.021708546350503,9.568539967573212,0.6225790281610752
1403636595613555456,49.680471,496.8529559920143,7.436709583333332,1.454653083333333,-6.047434166666666,-0.0851720674973232,-0.0781907504893459,0.0872664625997164,7.880722201590386,10.40002815802525,-0.11679938864059736
1403636595863555584,59.607029,235.68365097033623,7.673703624999999,-0.7518431666666666,-5.93302325,-0.6387905062299246,0.0216420827247296,0.374896723328382,15.395402257932316,9.844539349329674,-0.5306302246993422
1403636596113555456,39.410829,264.3136151163572,7.779942333333333,-3.138128,-6.333461458333334,-0.4342379178961891,-0.0600393262686049,0.3637266161156182,17.151144102759545,10.541386913996508,-0.14912259202454337
1403636596363555584,49.242497,364.1367602940621,7.583809333333333,-0.83356525,-6.063778583333333,-0.0328121899374933,0.1354375499547599,0.0132645023151569,5.990077254637213,11.32347767006429,0.42399927462664344
1403636596613555456,50.617933,411.1805374626043,7.886181041666666,0.809048625,-4.184170666666667,0.0195476876223364,-0.0342084533390888,0.0474729556542457,11.916697775985451,13.638381793466674,0.3722693704201774
1403636596863555584,49.96562,473.1290245428854,9.07115125,0.8499096666666667,-3.8164212916666655,-0.0321140582366956,0.1528908424747032,-0.0816814089933346,4.662995413240433,14.447316377114294,0.024807005335972576
1403636597113555456,49.505234,364.5043300787804,8.523613291666665,0.1062387083333333,-5.311935416666666,0.1473057888683213,-0.208043246837724,0.1110029404268393,8.204740975552701,13.336873533970111,-0.4341642608421097
1403636597363555584,57.192564,259.2754003847229,7.273265416666667,-0.9152873333333332,-6.42335575,0.2624975194999471,0.0998328332140756,-0.1731366617978375,13.560251524741041,11.248243157277006,-0.46633412448354505
1403636597613555456,50.012589,362.54417413465467,6.153672874999999,-1.52003075,-7.50208725,0.5012585611727715,0.1968731396249603,-0.0237364778271228,12.786183904154088,8.759411667081544,-0.2110572862439568
1403636597863555584,60.730457,345.7785576715561,7.10982125,0.0326888333333333,-6.586799916666666,0.1500983156715123,0.0537561409614253,-0.1068141502220529,7.6264682796547305,8.958674479962134,0.16603527825659015
1403636598113555456,49.85547,270.30458114010776,7.878008833333333,0.4739880833333333,-5.4998962083333325,0.0342084533390888,-0.2436479635784084,0.0900589894029074,10.088054496204087,10.081016890326547,0.21727198439003104
1403636598363555584,42.971373,367.3427858071734,8.817812791666666,0.5066769166666666,-4.682675375,-0.1668534764906579,-0.0397935069454707,0.0921533845053006,9.772877849192806,10.751025486970022,0.007934167394932246
1403636598613555456,49.716473,325.1334613919664,8.5317855,-0.0653776666666666,-5.352796458333333,0.1389282084587486,0.325329372571743,0.0453785605518525,4.752468965366941,10.413312965002982,-0.1652031790872286
1403636598863555584,39.525032,284.0942667915771,7.461226208333334,-0.44129925,-5.271074375,0.104021623418862,0.5249950389998943,0.1151917306316257,5.088355207869077,9.350990821062766,-0.21812049231096609
1403636599113555456,53.071499,303.76073126987905,9.504278291666663,-0.5883989999999999,-5.009563708333333,0.1514945790731078,0.4593706591249075,0.0998328332140756,4.040090295845385,8.628167145799006,-0.12300403265449233
1403636599363555584,50.90332,432.70267836642535,9.005773583333333,-0.44129925,-3.211677875,-0.0851720674973232,0.3469714552964727,0.046774823953448,1.7663098812845766,8.345322438222436,-0.04509946488479599
1403636599613555456,39.252996,412.30244176279496,9.381695166666669,-0.1552719583333333,-3.18716125,-0.0865683308989187,-0.1137954672300302,0.1200786525372098,2.306366404388913,8.173167580028649,-0.0233228604043898
1403636599863555584,59.617043,480.7781277774819,9.863855458333331,-0.6456044583333332,-1.871435708333333,-0.018151424220741,0.0747000919853573,0.1549852375770964,1.2769841031314517,8.221414577567105,0.012689237431388278
1403636600113555456,47.590733,605.2497718337867,6.733899666666666,-0.2124774166666666,-1.4056198333333334,0.0272271363311115,0.1312487597499735,0.2673844414055313,0.5993896614921164,8.226232915525273,-0.002408619052738814
1403636600363555584,62.081814,635.5850970206319,9.46341725,-0.269682875,-2.6477955,0.0048869219055841,0.0174532925199432,0.0809832772925368,0.10864574246467558,8.287463602018251,0.0036511367971492348
1403636600613555456,51.766634,637.9074354469567,9.814822208333332,-0.5720545833333333,-2.852100708333333,0.0279252680319092,0.028623399732707,0.122173047639603,0.023981535574182367,8.278187864899596,0.0016650154515431836
1403636600863555584,50.263882,642.9933418653533,9.398039583333333,-0.2778550833333333,-2.4680069166666665,-0.0069813170079773,0.0132645023151569,0.0684169066781777,0.013960936909746653,8.269334436764787,0.003835227420090348
1403636601113555456,50.299406,647.3219609081799,9.389867375,-0.661948875,-2.6151066666666667,-0.0090757121103705,0.0202458193231342,0.0684169066781777,0.00870638292134924,8.26518811489825,-0.004027735624619666
1403636601363555584,50.305844,646.053478360667,9.536967125,-0.5230213333333333,-2.606934458333333,0.0,0.0216420827247296,0.1033234917180643,0.02238221596373504,8.259614403619379,-0.005839472432844772
1403636601613555456,39.236308,646.7195873485492,9.299973083333333,-0.416782625,-2.476179125,-0.0069813170079773,0.0167551608191455,0.0663225115757845,0.03994469463282894,8.240659977892747,-0.0036666787228387676
1403636601863555584,50.023317,646.8871149051884,9.438900625,-0.5475379583333333,-2.655967708333333,-0.0041887902047863,0.0209439510239319,0.0781907504893459,0.016439317037431917,8.2473796120965,0.0008800481310764496
1403636602113555456,42.627573,646.1450543024697,9.414383999999998,-0.3840937916666667,-2.6151066666666667,-0.0055850536063818,0.0202458193231342,0.0802851455917391,0.02168650628348238,8.235628756378443,-0.0023937096414936576
1403636602363555584,49.657107,646.1289143504133,9.430728416666666,-0.5557101666666666,-2.50069575,-0.0090757121103705,0.0223402144255274,0.0698131700797731,0.01507927087668327,8.223345126170795,0.0043799501336909685
1403636602613555456,60.03356,647.1498015115906,9.430728416666666,-0.5311935416666667,-2.574245625,-0.0062831853071795,0.0216420827247296,0.0795870138909414,0.012049640246413671,8.2334402821787,2.8435809239724108e-05
1403636602863555584,50.236464,647.5051093574333,9.414383999999998,-0.4494714583333333,-2.582417833333333,-0.0041887902047863,0.0195476876223364,0.0767944870877505,0.012854907553234388,8.235168076527035,0.0021897201333214156
1403636603113555456,49.880505,646.7008756337268,9.373522958333332,-0.5475379583333333,-2.574245625,-0.0062831853071795,0.0216420827247296,0.0760963553869527,0.00846703679512336,8.229016447131594,-0.0020830481719258387
1403636603363555584,50.433636,646.360193502874,9.496106083333332,-0.5230213333333333,-2.582417833333333,-0.0041887902047863,0.0251327412287183,0.0837758040957278,0.009193746856216172,8.229062635382077,-0.004110027745296563
1403636603613555456,57.628632,648.3576150061787,9.455245041666666,-0.5148491249999999,-2.606934458333333,-0.0013962634015954,0.0202458193231342,0.0767944870877505,0.01497450092735789,8.215188532998397,0.001396171829222581
1403636603863555584,50.714492,646.915242894617,9.414383999999998,-0.5883989999999999,-2.623278875,-0.0055850536063818,0.0272271363311115,0.0802851455917391,0.012712098236279465,8.22553101120252,0.004247215608636168
1403636604113555456,59.194803,645.6421814164398,9.496106083333332,-0.5475379583333333,-2.557901208333333,-0.0041887902047863,0.0209439510239319,0.0670206432765822,0.007138697108277687,8.229451613610038,0.0018838171248116709
1403636604363555584,43.461323,645.2598010343859,9.389867375,-0.5230213333333333,-2.533384583333333,-0.0090757121103705,0.0223402144255274,0.0733038285837618,0.007653537268777987,8.226924557500354,-0.0011727379812818128
1403636604613555456,39.871693,644.7173402133016,9.479761666666668,-0.5148491249999999,-2.59876225,-0.0034906585039886,0.0188495559215387,0.0809832772925368,0.009393084484903646,8.217853005316183,-0.003140405515436484
1403636604863555584,53.574324,643.6379015002237,9.389867375,-0.5066769166666666,-2.606934458333333,-0.0041887902047863,0.0153588974175501,0.0781907504893459,0.008128158991194318,8.219336558158341,0.0030873889895719486
1403636605113555456,42.938947,643.5980611290544,9.406211791666664,-0.6047434166666666,-2.606934458333333,-0.0027925268031909,0.0223402144255274,0.0788888821901436,0.01762408121805534,8.228061454352614,-0.003267864243841956
1403636605363555584,57.163954,644.2739064754318,9.471589458333332,-0.5148491249999999,-2.5905900416666663,-0.0013962634015954,0.0230383461263251,0.0816814089933346,0.013546512271811424,8.2180226590298,0.00012788465250679337
1403636605613555456,50.166845,643.7767113034637,9.455245041666666,-0.5475379583333333,-2.5905900416666663,-0.0048869219055841,0.0202458193231342,0.0767944870877505,0.010353718749340626,8.223145688601665,0.002727177965583749
1403636605863555584,49.718619,630.630856471793,9.545139333333331,-0.5883989999999999,-2.623278875,-0.0062831853071795,0.0188495559215387,0.0823795406941323,0.010989986194405105,8.213350357128574,-0.0009397852714894128
1403636606113555456,51.013231,631.429999754613,9.447072833333332,-0.4985047083333333,-2.631451083333333,-0.0055850536063818,0.0237364778271228,0.0726056968829641,0.011159627635468274,8.220274215762215,0.0023017100259359324
1403636606363555584,62.800408,630.2166995329285,9.398039583333333,-0.5557101666666666,-2.582417833333333,-0.0020943951023931,0.0237364778271228,0.075398223686155,0.01759656851682548,8.221268749357609,0.0011444987566626708
1403636606613555456,49.993992,631.3813882886302,9.447072833333332,-0.563882375,-2.5905900416666663,-0.0027925268031909,0.0202458193231342,0.0788888821901436,0.01262117759704504,8.226100872962014,-0.003660084938594821
1403636606863555584,49.761772,631.4892573900339,9.357178541666666,-0.5475379583333333,-2.525212375,0.0,0.0146607657167523,0.0788888821901436,0.006482533842435809,8.226660638341862,0.000543474898304197
1403636607113555456,60.884475,631.1754463011141,9.447072833333332,-0.5148491249999999,-2.606934458333333,-0.0020943951023931,0.0272271363311115,0.0809832772925368,0.008294961123638298,8.224169795114996,-0.0014527250250697676
1403636607363555584,41.246175,630.4896467477278,9.381695166666669,-0.5148491249999999,-2.574245625,-0.0020943951023931,0.0216420827247296,0.0788888821901436,0.03556191475446343,8.202533588384066,-0.0031456314845321742
1403636607613555456,40.314674,631.2472539058264,9.398039583333333,-0.5148491249999999,-2.582417833333333,-0.0069813170079773,0.0230383461263251,0.0823795406941323,0.017021119478646658,8.196187244332375,-0.0034575788445057043
1403636607863555584,50.205707,631.6851546205461,9.455245041666666,-0.5230213333333333,-2.5905900416666663,-0.0055850536063818,0.0195476876223364,0.0809832772925368,0.010218879823090976,8.200444482887763,0.0017582323336000627
1403636608113555456,50.363302,631.5836279574097,9.398039583333333,-0.53936575,-2.606934458333333,-0.0055850536063818,0.0195476876223364,0.0781907504893459,0.02564025155976359,8.213719213571164,0.0007191459727149407
1403636608363555584,40.251017,631.2090435669135,9.36535075,-0.5148491249999999,-2.557901208333333,-0.0020943951023931,0.0209439510239319,0.0802851455917391,0.012474479293402745,8.218799029447856,-0.001939780359993648
1403636608613555456,61.070442,630.0969384635455,9.422556208333331,-0.5148491249999999,-2.606934458333333,-0.0055850536063818,0.0174532925199432,0.0809832772925368,0.015007103852664265,8.222134592927377,-0.00015325432739743405
1403636608863555584,43.076038,629.9793202749647,9.406211791666664,-0.5230213333333333,-2.606934458333333,-0.0006981317007977,0.0216420827247296,0.08307767239493,0.016355572814034148,8.213659024261046,-0.0007369290613610247
1403636609113555456,49.700737,630.5074599825307,9.46341725,-0.4821602916666666,-2.631451083333333,-0.0041887902047863,0.0209439510239319,0.0802851455917391,0.01942155153402614,8.204688258333453,0.0022829226620473264
1403636609363555584,42.189837,630.840469441093,9.373522958333332,-0.5720545833333333,-2.5415567916666664,-0.0020943951023931,0.018151424220741,0.08307767239493,0.006351495750495791,8.208944785539758,4.387735174127272e-05
1403636609613555456,49.926281,631.3104953097562,9.455245041666666,-0.5066769166666666,-2.6151066666666667,-0.0048869219055841,0.0209439510239319,0.0795870138909414,0.010084526454219304,8.218873185361824,-0.0004922757444152381
1403636609863555584,36.423683,629.9418460263295,9.218251,-0.53936575,-2.7131731666666665,-0.0006981317007977,0.0223402144255274,0.0740019602845595,0.013121744916206058,8.223596048753164,0.0023806580683505274
1403636610113555456,49.599171,630.1586900901225,9.357178541666666,-0.4576436666666666,-2.59876225,-0.0013962634015954,0.0216420827247296,0.0767944870877505,0.017966231636783826,8.226980837202369,0.0017207263287790653
1403636610363555584,50.14944,629.6005739901622,9.479761666666668,-0.4985047083333333,-2.508867958333333,-0.0097738438111682,0.025830872929516,0.0816814089933346,0.017766159617065336,8.210832222037915,-0.003687710616242512
1403636610613555456,49.791336,626.4975819558994,9.389867375,-0.5066769166666666,-2.557901208333333,-0.0069813170079773,0.0223402144255274,0.0795870138909414,0.017477751746836995,8.212167720444878,0.005988019428766478
1403636610863555584,59.807539,618.2563995660582,9.316317499999998,-0.7109821249999999,-2.6151066666666667,-0.0097738438111682,0.0314159265358979,0.0635299847725936,0.0666930893071937,8.249111870499368,0.005578437773110068
1403636611113555456,42.265654,631.3669207168392,9.291800875,-0.5148491249999999,-2.7867230416666664,-0.0013962634015954,0.0216420827247296,0.0712094334813686,0.02439078761179702,8.26459238104161,0.008645927472519688
1403636611363555584,46.565056,523.8096379383771,8.057797416666666,-2.214668458333333,-2.0757409166666667,0.0383972435438752,-0.0418879020478639,0.0928515162060983,0.04626667391810605,8.256349897590757,0.0029261964342204294
1403636611613555456,51.045894,605.5225640990408,11.024309041666667,-1.0378704583333334,-3.3015721666666664,-0.0530580092606276,-0.0356047167406843,-0.0523598775598298,0.10352666278902474,8.251118270148307,-0.0009250597596039967
1403636611863555584,49.820423,636.4154638559438,9.937405333333334,-0.7763597916666666,-2.190151833333333,-0.0020943951023931,0.0202458193231342,0.0907571211037051,0.023117735531969587,8.24493236024538,-0.006475502908640962
1403636612113555456,47.050238,635.0306730662369,9.26728425,-0.3595771666666666,-2.525212375,0.0321140582366956,0.0034906585039886,0.1019272283164688,0.05411718052342417,8.24477726122749,0.006892267087117432
1403636612363555584,48.587084,627.6951584736801,9.798477791666668,0.24516625,-2.754034208333333,0.0404916386462684,0.0307177948351002,0.1905899543177807,0.08461653060273996,8.22889610752384,-0.0025015745544862966
1403636612613555456,49.52383,637.0212592068499,9.414383999999998,-0.2043052083333333,-2.5415567916666664,0.0251327412287183,0.0160570291183478,0.1703441349946465,0.04569571226278516,8.231166482208424,-0.008070682083895164
1403636612863555584,49.405813,629.4161549240132,9.643205833333331,-0.4494714583333333,-2.6477955,-0.0335103216382911,0.0237364778271228,0.0104719755119659,0.011332349808430182,8.228017139150795,-0.006371630293143582
1403636613113555456,38.064718,641.1881021722803,9.398039583333333,-0.9970094166666666,-2.508867958333333,0.018151424220741,0.0034906585039886,0.0879645943005142,0.029396530274512663,8.209455110872042,-0.00618105738719521
1403636613363555584,42.916298,640.0149321639336,9.5124505,-0.2043052083333333,-2.5415567916666664,0.007679448708775,0.0237364778271228,0.0942477796076938,0.033841233108922286,8.215549236208162,0.00428960091688424
1403636613613555456,59.841633,641.4843929912951,9.398039583333333,-0.4494714583333333,-2.549729,0.0048869219055841,0.0188495559215387,0.1089085453244461,0.036234207434429594,8.214192193750925,0.0018039995762055838
1403636613863555584,49.978972,638.7341850532198,9.438900625,-0.5311935416666667,-2.574245625,-0.0090757121103705,0.0160570291183478,0.0600393262686049,0.01946576432546385,8.212809289682244,0.0006745477028893276
1403636614113555456,42.956352,638.6450372086888,9.496106083333332,-0.4903325,-2.582417833333333,-0.0069813170079773,0.025830872929516,0.0698131700797731,0.022903134481652095,8.20432132543501,-0.0002040613177349826
1403636614363555584,43.981552,641.2889052065602,9.308145291666667,-0.6946377083333333,-2.6151066666666667,-0.0062831853071795,0.0321140582366956,0.0837758040957278,0.00584948538218227,8.212704940019064,-0.0020860688887633927
1403636614613555456,39.311409,643.504485411457,9.381695166666669,-0.4985047083333333,-2.574245625,0.0055850536063818,0.0202458193231342,0.0963421747100869,0.008045489843371152,8.202410050979033,0.0005829443151199598
1403636614863555584,60.098648,644.157830238325,9.398039583333333,-0.4903325,-2.5415567916666664,-0.0013962634015954,0.0139626340159546,0.0893608577021096,0.004565216187800899,8.206839829846647,0.0043483586758217285
1403636615113555456,49.772739,645.5512353669126,9.406211791666664,-0.563882375,-2.5170401666666664,0.0006981317007977,0.0132645023151569,0.0788888821901436,0.010042808902605244,8.20692066845922,0.004474638794505381
1403636615363555584,49.315691,644.8306982501003,9.398039583333333,-0.44129925,-2.582417833333333,-0.0055850536063818,0.0202458193231342,0.08307767239493,0.016966347915272205,8.205319429179303,-0.00027737612295730685
1403636615613555456,49.407244,644.8563855938929,9.414383999999998,-0.6210878333333334,-2.5660734166666663,-0.0055850536063818,0.0209439510239319,0.0767944870877505,0.008904344207626941,8.200302740606832,0.0008632467860678616
1403636615863555584,59.714079,644.9358482580727,9.406211791666664,-0.6047434166666666,-2.5905900416666663,-0.0020943951023931,0.0195476876223364,0.075398223686155,0.01527927759540204,8.20920078944798,-9.051557505301844e-05
1403636616113555456,47.999382,643.59696953907,9.389867375,-0.6047434166666666,-2.574245625,-0.0048869219055841,0.0223402144255274,0.0774926187885482,0.012450199607677487,8.211124054366717,-0.002535806158453724
1403636616363555584,41.445971,643.8868039187414,9.504278291666663,-0.53936575,-2.59876225,-0.0041887902047863,0.0230383461263251,0.085870199198121,0.018802673174778305,8.194120796847937,0.0013020171255693214
1403636616613555456,48.178196,645.273983991861,9.430728416666666,-0.5230213333333333,-2.533384583333333,-0.0020943951023931,0.0188495559215387,0.0774926187885482,0.00881694484816519,8.197091805070414,0.005868511829891787
1403636616863555584,60.883046,644.7599477210449,9.398039583333333,-0.5557101666666666,-2.574245625,-0.0048869219055841,0.0209439510239319,0.0837758040957278,0.020085116128825443,8.211646564185441,0.007293612616166456
1403636617113555456,49.710512,645.3329509580722,9.553311541666666,-0.5066769166666666,-2.574245625,-0.0062831853071795,0.0237364778271228,0.0795870138909414,0.016130033702118414,8.219538157400715,-0.0010548712642783897
1403636617363555584,49.776554,644.4428051396781,9.536967125,-0.5475379583333333,-2.5905900416666663,-0.0041887902047863,0.0216420827247296,0.0767944870877505,0.02178987737629668,8.205398648182339,-0.005521277193317076
1403636617613555456,56.072712,643.9876718754344,9.36535075,-0.4821602916666666,-2.5660734166666663,-0.0034906585039886,0.025830872929516,0.0844739357965255,0.007093137200442812,8.202124220150464,0.006826957024271607
1403636617863555584,62.027931,645.1378619263805,9.389867375,-0.5066769166666666,-2.5170401666666664,-0.0027925268031909,0.0195476876223364,0.0767944870877505,0.016952369466649086,8.216304964358601,0.0015125919930163434
1403636618113555456,39.214849,645.0218005158035,9.373522958333332,-0.5148491249999999,-2.557901208333333,-0.0013962634015954,0.0223402144255274,0.0802851455917391,0.01655700540183332,8.226363064887968,0.00030434015635982803
1403636618363555584,49.689532,643.8352841669822,9.430728416666666,-0.5557101666666666,-2.582417833333333,-0.0062831853071795,0.0251327412287183,0.08307767239493,0.024378848740300604,8.21418167551983,0.0004989315419550167
1403636618613555456,42.299986,619.2763116616868,9.7085835,0.7927042083333332,-3.015544875,0.0300196631343024,0.0083775804095727,0.0691150383789754,0.020929338795569706,8.194408444320459,0.00095625187974413
1403636618863555584,63.102007,639.5217584165579,9.316317499999998,-1.7243359583333333,-2.288218333333333,0.046774823953448,0.0237364778271228,0.0670206432765822,0.023731720205536135,8.207317553591817,0.005179553944469006
1403636619113555456,42.46211,578.5078870472472,9.651378041666666,1.0215260416666667,-3.015544875,0.0272271363311115,0.0314159265358979,0.0844739357965255,0.010907596905166978,8.211743287411183,0.008705460930757525
1403636619363555584,43.399334,576.9516383814183,10.035471833333334,-2.190151833333333,-2.639623291666666,0.0781907504893459,0.0349065850398865,0.0621337213709981,0.031117222641021878,8.228325467135745,0.009452034896032302
1403636619613555456,39.802552,636.0413037837585,9.56148375,-0.4494714583333333,-2.4516625,-0.0230383461263251,0.0488692190558412,0.0977384381116824,0.03393971124943823,8.198168658973772,-0.0051048988221022995
1403636619863555584,43.351412,640.4492181207603,8.744262916666667,-0.7600153749999999,-2.2718739166666664,-0.0041887902047863,0.0118682389135614,0.1089085453244461,0.014534516533412077,8.20603754262718,0.0005022141473123298
1403636620113555456,50.41337,631.7471997654154,9.504278291666663,-0.9479761666666666,-2.672312125,0.0097738438111682,0.0097738438111682,0.0760963553869527,0.015329820295930944,8.2066582356395,0.00129505069335778
1403636620363555584,46.573162,641.0493182039335,9.398039583333333,-0.6782932916666666,-2.476179125,0.0041887902047863,0.0153588974175501,0.085870199198121,0.008554823645967392,8.198474906206489,-0.004169093340248509
1403636620613555456,42.806148,642.1343715162591,9.430728416666666,-0.5802267916666666,-2.525212375,-0.0090757121103705,0.0006981317007977,0.0893608577021096,0.018701659894911078,8.216510360296883,0.005481514359480855
1403636620863555584,43.04409,643.0241852656654,9.275456458333332,-0.5148491249999999,-2.574245625,0.0069813170079773,0.0356047167406843,0.0879645943005142,0.01669052278928661,8.205241111561353,-0.004039690120237083
1403636621113555456,49.911261,633.0828161053674,10.190743791666666,-1.0215260416666667,-2.9011339583333333,0.0321140582366956,0.0453785605518525,0.0956440430092892,0.02577975856484821,8.195137903213281,0.015102094903987506
1403636621363555584,51.236153,643.1940598780687,9.765788958333331,-0.6701210833333332,-2.8357562916666668,-0.0118682389135614,0.0335103216382911,0.0502654824574366,0.04598781412688851,8.213142182041341,-0.0008683056612142082
1403636621613555456,50.665856,641.6810198802997,9.087495666666666,-0.1879607916666666,-2.4680069166666665,-0.0111701072127637,0.0356047167406843,0.104021623418862,0.014490694365145563,8.21641006878445,0.004584271500267079
1403636621863555584,50.090075,641.9190589579824,9.308145291666667,-0.4576436666666666,-2.5905900416666663,0.0132645023151569,0.0,0.0781907504893459,0.012411146792656662,8.207783828381034,0.004649144996873744
1403636622113555456,50.600767,639.6215365095339,9.430728416666666,-0.809048625,-2.623278875,-0.0125663706143591,0.0174532925199432,0.0586430628670094,0.017185832072087223,8.20301255491354,-0.0005564246122045091
1403636622363555584,50.318956,640.884067386957,9.030290208333332,-0.3350605416666666,-2.3209071666666663,0.0062831853071795,0.0314159265358979,0.0774926187885482,0.024221451481661257,8.19738965030616,0.0037562655558414093
1403636622613555456,50.176144,640.7448613011994,9.692239083333332,-0.563882375,-2.9011339583333333,0.0006981317007977,0.0,0.0893608577021096,0.022447162092008553,8.21232332678896,0.009450579917297475
1403636622863555584,42.340278,634.4882343375398,9.398039583333333,-0.5148491249999999,-2.8766173333333334,-0.0160570291183478,0.0474729556542457,0.1089085453244461,0.029227694555975833,8.241001550848754,-0.004118493105652377
1403636623113555456,56.958675,634.2705595137917,9.022118,-0.83356525,-2.6477955,-0.0230383461263251,0.0,0.0356047167406843,0.07444864385974514,8.189612824396491,-0.00022105646685233182
1403636623363555584,40.985346,636.2328985401293,9.381695166666669,-0.8580818749999999,-2.2555295,-0.0265290046303138,0.0586430628670094,0.0474729556542457,0.09446384682299451,8.17747436898072,0.015507200075123961
1403636623613555456,60.613871,623.9778344037342,9.324489708333331,0.2288218333333333,-1.5527195833333332,0.018151424220741,-0.0132645023151569,0.057246799465414,0.2509791127270468,8.275040451392988,0.01735376395751942
1403636623863555584,50.422907,610.6582956475476,10.525804333333332,-0.4249548333333333,-2.705000958333333,-0.0265290046303138,0.0425860337486616,0.1263618378443894,0.14531170015330003,8.213421316091104,-0.01929886333304509
1403636624113555456,57.145119,617.4485969643156,10.8853815,-0.8499096666666667,-3.612116083333333,-0.0481710873550434,0.0335103216382911,0.0614355896702004,0.03145407537625169,8.211275776075402,0.013068347632509969
1403636624363555584,62.284947,475.3638466846486,7.722736874999999,0.7436709583333333,-1.2585200833333332,-0.1514945790731078,-0.0747000919853573,0.0097738438111682,0.20052128716262574,8.185724868140632,-0.014163170033530292
1403636624613555456,49.815654,486.6496107498798,6.071950791666666,-0.6456044583333332,-1.1604535833333331,-0.0202458193231342,-0.0293215314335047,-0.0174532925199432,1.8303195952970315,8.202859642411381,0.0002962229859289067
1403636624863555584,38.184166,311.1960320818048,7.722736874999999,0.367749375,-2.0593965,-0.0879645943005142,-0.1570796326794896,-0.2778564169174973,3.8992697306349737,8.016389571714578,-0.027643873252721107
1403636625113555456,48.823118,360.4718438486998,9.872027666666666,0.2369940416666666,-4.3721314583333335,0.0593411945678072,-0.2017600615305445,0.1738347934986352,4.6221477188382,7.955929890193866,0.036747681412899524
1403636625363555584,59.944391,735.595203663941,5.066769166666667,1.765197,-1.8796079166666664,0.0383972435438752,-0.0195476876223364,0.0705113017805709,6.780975019059321,8.116714292374072,0.014256144948792127
1403636625613555456,49.372912,670.2264949655944,12.691439541666666,0.3514049583333333,-4.143309625,0.0195476876223364,0.0230383461263251,0.0265290046303138,1.0573107663625074,7.837744035164405,-0.043518644086649516
1403636625863555584,50.215482,294.1739774801472,8.654368624999998,0.0572054583333333,-2.190151833333333,0.0244346095279206,0.2234021442552742,0.1019272283164688,8.476822493475778,7.889302732796214,0.030838189761779766
1403636626113555456,50.770044,463.7159940561133,9.643205833333331,0.0980665,-3.391466458333333,0.0726056968829641,0.028623399732707,0.2918190509334519,16.353825809124327,8.348796825022287,0.07492795665084984
1403636626363555584,39.833308,769.7139327549258,4.290409374999999,0.6292600416666666,-1.12776475,-0.0013962634015954,0.1123992038284348,0.1186823891356144,11.380094786480894,8.813519066495866,0.07628136103867611
1403636626613555456,49.501657,678.3511470267672,9.062979041666669,0.1797885833333333,-2.525212375,-0.0027925268031909,0.1089085453244461,-0.0523598775598298,3.2432448138065686,8.942361578166913,-0.005231700215965418
1403636626863555584,41.410685,571.9561807660058,8.842329416666665,0.1144109166666666,-2.9256505833333333,0.0132645023151569,-0.210835773640915,0.0656243798749867,3.3680342833027677,8.775566477156804,-0.10932766729338717
1403636627113555456,50.709248,564.0921609156683,9.626861416666666,0.0081722083333333,-3.8654545416666655,0.0013962634015954,-0.1389282084587486,0.0321140582366956,5.47519274233269,8.2801355300675,-0.0982920441822408
1403636627363555584,50.361394,800.0732324215986,8.033280791666666,0.3023717083333333,-3.6448049166666654,-0.0174532925199432,0.0509636141582344,0.0886627260013119,3.1883919663094895,8.372822246790005,0.0488583493758572
1403636627613555456,42.405128,736.2474994623083,6.42335575,0.1307553333333333,-1.61809725,-0.200363798128949,-0.0907571211037051,0.1466076571675237,6.472839827263186,8.67047075872467,0.00818245645075244
1403636627863555584,38.449764,436.00419547761805,9.447072833333332,0.5965712083333333,-2.966511625,-0.2904227875318564,-0.2094395102393195,0.132645023151569,5.217845048585604,8.482153730466594,-0.05134098160703182
1403636628113555456,49.648047,313.4818391726227,10.828176041666667,0.7109821249999999,-2.557901208333333,-0.0949459113084915,0.3162536604613725,0.122173047639603,4.270825493886555,8.226121841077651,0.013729191899090054
1403636628363555584,50.034523,620.4341908959675,9.978266375,-0.5148491249999999,-3.072750333333333,0.0013962634015954,0.0383972435438752,0.1808161105066125,8.74411286934182,8.338375009924617,0.036726099260281586
1403636628613555456,39.763928,798.3156933936289,8.458235625,0.0653776666666666,-2.1983240416666665,0.0621337213709981,-0.0167551608191455,0.0991347015132779,8.192022619573414,8.351208990874955,-0.033598132170924444
1403636628863555584,50.12846,596.0260804297471,10.8853815,-0.1634441666666666,-2.231012875,-0.189891822616983,-0.1158898623324234,0.0244346095279206,8.01143873407836,7.922354515795186,-0.19562443514125238
1403636629113555456,50.17066,720.8536912755588,10.991620208333332,-0.5557101666666666,-2.9338227916666666,-0.1242674427419962,-0.0495673507566389,0.1193805208364121,9.749749029329163,7.640997451876872,0.02044626323740939
1403636629363555584,50.206185,754.7669230043763,9.553311541666666,-0.980665,-3.563082833333333,-0.1857030324121966,0.0600393262686049,0.2450442269800038,10.891409976408543,7.3813998628766,-0.056913310368692294
1403636629613555456,49.606085,707.4052190056902,7.706392458333333,0.1389275416666666,-2.01036325,-0.4098033083682685,-0.2024581932313422,0.1263618378443894,10.463223444424235,6.756506266806903,0.07493241832509678
1403636629863555584,61.05566,784.5895944323852,10.133538333333334,1.0133538333333332,-3.6284605,-0.3476695869972704,-0.0006981317007977,0.2275909344600605,12.306642576851727,12.509796445321259,1.0585636914427905
1403636630113555456,50.107479,719.4573010056505,11.42474725,-0.024516625,-4.453853541666667,-0.2094395102393195,0.247138622082397,0.1836086373098034,11.973123174195791,12.241097187421046,-0.018719186469535742
1403636630363555584,39.307117,1145.355490799461,10.051816249999998,0.8499096666666667,-3.4241552916666667,-0.0237364778271228,-0.0174532925199432,0.1333431548523667,13.345735513976578,12.211386608376557,0.20916514422573584
1403636630613555456,53.040743,1190.810967766688,8.948568125,0.0735498749999999,-3.407810875,0.0027925268031909,0.0314159265358979,-0.0335103216382911,14.737044490696094,10.533705557889919,0.27453567284125135
1403636630863555584,39.419651,1142.907086829446,8.891362666666666,0.318716125,-3.710182583333333,0.054454272662223,0.0495673507566389,0.1528908424747032,12.523294132151227,10.74115403279439,-0.07702141460049816
1403636631113555456,46.796561,986.8043231935832,8.245758208333333,1.0378704583333334,-1.642613875,0.0223402144255274,0.1256637061435917,0.0600393262686049,10.106073822305527,10.29177336096558,-0.07234240326226704
1403636631363555584,42.69886,1106.671111362577,9.847511041666666,0.6456044583333332,-2.5170401666666664,0.0111701072127637,0.0586430628670094,0.0663225115757845,9.096792030125144,10.001990847429624,-0.10767909303966228
1403636631613555456,52.259207,1068.145767198552,10.697420708333333,-0.269682875,-4.151481833333333,0.0579449311662117,0.054454272662223,-0.0090757121103705,8.409057821537793,9.302134713795645,-0.08636532732717228
1403636631863555584,49.754858,1130.8683587596984,9.226423208333332,-0.1389275416666666,-3.170816833333333,-0.0390953752446729,0.0069813170079773,0.0446804288510548,8.024546731588327,8.503738150098304,-0.02321635130781985
1403636632113555456,49.580097,991.2939585882376,9.349006333333334,0.122583125,-3.7837324583333327,0.0090757121103705,0.0740019602845595,-0.0328121899374933,7.958486154527083,8.62771515456147,0.10444499745110924
1403636632363555584,49.830675,1112.6368871228435,7.542948291666666,0.2043052083333333,-3.072750333333333,-0.0202458193231342,-0.0390953752446729,0.1186823891356144,5.989618105064599,8.403012030408293,-0.16685040864374834
1403636632613555456,38.937569,756.7030618814563,7.927042083333333,0.3595771666666666,-2.5660734166666663,0.2324778563656447,-0.1745329251994329,0.189891822616983,1.9121526200993226,7.593771169073195,-0.09236720909733442
1403636632863555584,49.195289,728.0263538899884,8.302963666666667,-0.4086104166666666,-3.92266,0.3797836452339661,0.0376991118430775,-0.2694788365079245,1.8944191652551443,7.388782651290914,0.014126238482053743
1403636633113555456,60.08625,714.9793465666539,7.60015375,-0.63743225,-1.7161637499999998,0.1912880860185785,0.0090757121103705,-0.0307177948351002,8.108374119233895,7.64053684248099,-0.062052537731505986
1403636633363555584,58.718205,947.9216958170324,10.395049,0.8989429166666666,-3.898143375,0.0202458193231342,-0.0069813170079773,0.200363798128949,6.570405824487982,8.02416368700678,0.6169918722565972
1403636633613555456,60.612202,909.2091184047772,9.978266375,0.53936575,-3.979865458333333,-0.0656243798749867,-0.0195476876223364,0.093549647906896,5.90775979924918,7.357388253083092,-0.11380019512019324
1403636633863555584,49.96109,908.1022753176504,8.785123958333333,0.171616375,-3.5222217916666665,-0.0223402144255274,0.0551524043630208,0.1640609496874669,8.432534866418779,6.984693068013753,-0.05301740391752574
1403636634113555456,47.504663,940.618655568995,10.460426666666669,-0.3023717083333333,-3.881798958333333,0.0097738438111682,0.0488692190558412,0.0481710873550434,11.272609763957348,6.591881842008293,-0.049604793372856726
1403636634363555584,49.705267,586.8773519531053,9.536967125,0.83356525,-2.4680069166666665,0.0202458193231342,0.2227040125544764,0.0188495559215387,14.821100328077835,6.719339565690764,0.05260539487980509
1403636634613555456,49.558401,848.4753327537802,9.586000375,0.0081722083333333,-4.028898708333333,0.075398223686155,0.0970403064108847,-0.0202458193231342,14.058282249605128,6.894059378651873,0.022845728135919785
1403636634863555584,46.236992,851.7352449081233,7.567464916666665,-0.1389275416666666,-4.641814333333333,0.1103048087260416,-0.0502654824574366,0.0397935069454707,10.957673551877377,7.171272548723253,0.06629932002666106
1403636635113555456,50.290346,829.2911007180883,9.242767625,0.8989429166666666,-2.8602729166666667,0.0774926187885482,-0.007679448708775,-0.0167551608191455,12.649068458316481,7.572763996212394,0.07651557751487381
1403636635363555584,49.663067,756.7597366881697,9.381695166666669,-0.8172208333333333,-2.966511625,0.0356047167406843,-0.0684169066781777,0.2527236756887789,10.496867905975854,7.8265490268776965,0.05982257214276743
1403636635613555456,67.137241,636.261081282132,9.716755708333332,0.1144109166666666,-2.827584083333333,-0.054454272662223,0.0837758040957278,0.0663225115757845,12.311287345821913,8.122848210163989,-0.11215683402199872
1403636635863555584,41.314125,626.7422479899122,7.387676333333332,0.1307553333333333,-3.9144877916666654,-0.0125663706143591,-0.0272271363311115,0.1577777643802873,18.149329045365597,8.147592990814218,0.1194149729294871
1403636636113555456,50.089359,516.443459193399,10.231604833333332,-0.6292600416666666,-4.192342875,-0.08307767239493,-0.0740019602845595,-0.0684169066781777,21.3227011409872,8.932599374553412,0.110784611741499
1403636636363555584,49.963712,291.7217899482803,7.052615791666666,-0.63743225,-2.7867230416666664,-0.0174532925199432,0.3553490357060455,0.0083775804095727,24.656905133795686,9.73783435235233,0.10717364239730642
1403636636613555456,49.947023,445.5661528033942,9.316317499999998,-0.3023717083333333,-3.6202882916666654,-0.0530580092606276,0.0174532925199432,-0.0886627260013119,21.29035919379453,10.85982164772483,0.44454543461604246
1403636636863555584,49.627781,542.1460230604688,9.201906583333331,-0.5066769166666666,-3.268883333333333,0.0795870138909414,-0.1438151303643327,0.2513274122871834,12.783958304675725,11.346140987882096,0.00023227589814922567
1403636637113555456,36.078215,458.06965961555113,8.556302125,-0.2860272916666666,-2.165635208333333,0.0844739357965255,-0.0970403064108847,0.2380629099720265,5.139716002456023,10.913993992405292,-0.14154574669224118
1403636637363555584,53.434848,573.8857649886944,9.275456458333332,0.73549875,-2.4516625,-0.0279252680319092,-0.0237364778271228,0.085870199198121,2.7311049255527906,10.229635632414947,0.05197702638776569
1403636637613555456,60.767889,540.775463744847,9.56148375,1.1767979999999998,-2.7131731666666665,0.0125663706143591,0.0586430628670094,0.0502654824574366,6.862107909596251,11.345793697261698,-0.11327750015355953
1403636637863555584,49.901247,416.5849293837194,10.2969825,-0.4903325,-2.0512242916666668,-0.0293215314335047,0.0439822971502571,0.0502654824574366,12.90690643004031,11.629273417449113,0.0546224134715132
1403636638113555456,49.714804,531.64932564763,8.97308475,0.0817220833333333,-3.955348833333333,0.0090757121103705,0.0733038285837618,0.1075122819228507,11.450455613888767,11.895764995721096,-0.16131985588440223
1403636638363555584,49.791813,305.07407612905894,8.736090708333332,0.0572054583333333,-2.239185083333333,0.0439822971502571,-0.3574434308084387,0.2974041045398337,2.3199545835784248,12.005193824807773,-0.026158948511001867
1403636638613555456,45.525789,423.5227936719618,12.045835083333332,-0.1389275416666666,-3.718354791666666,-0.057246799465414,0.0132645023151569,-0.054454272662223,2.433948658466537,11.655214681910198,-0.191491399252671
1403636638863555584,52.474022,402.9102331872381,7.591981541666666,-0.5066769166666666,-3.4404997083333333,-0.0453785605518525,0.208043246837724,0.0404916386462684,9.632125450910918,11.763097768859007,-0.03202279736126634
1403636639113555456,38.064718,412.6190573718005,6.349805875,-0.1389275416666666,-1.871435708333333,0.0879645943005142,0.028623399732707,0.2722713633111154,14.596955132498326,11.630567638450524,0.03531351423990081
1403636639363555584,46.860933,355.2734105392832,9.896544291666666,0.416782625,-3.6284605,-0.1012290966156711,0.0460766922526503,-0.1780235837034216,11.171992915717128,11.658909329625992,-0.02983983963026482
1403636639613555456,41.358471,346.33542932111567,8.237585999999999,-0.0163444166666666,-3.366949833333333,-0.0684169066781777,0.1033234917180643,-0.1256637061435917,12.611007072448299,11.813821692803915,-0.06935227155397783
1403636639863555584,39.161444,432.0737873817768,8.016936375,-0.3759215833333333,-3.4650163333333333,0.0027925268031909,0.0453785605518525,0.1137954672300302,11.665302046248526,10.879772140526482,-0.13858138212089166
1403636640113555456,57.657719,436.97891154898497,9.144701125,-0.1389275416666666,-3.898143375,0.1570796326794896,0.036302848441482,0.0537561409614253,11.81734278038689,11.131854617719366,0.12201325094625126
1403636640363555584,50.074816,490.9172968806656,9.046634625,-0.44129925,-2.3372515833333334,0.1089085453244461,0.0376991118430775,-0.0293215314335047,13.316860234033994,11.535710654565543,0.02904567732110408
1403636640613555456,50.309658,548.7372832851238,8.997601374999999,-0.0326888333333333,-2.8357562916666668,0.007679448708775,0.0153588974175501,0.0963421747100869,11.012921220851753,11.4878875226839,-0.0064644608254536
1403636640863555584,57.607651,636.4862815471953,11.056997875,0.1470997499999999,-4.053415333333333,0.0474729556542457,0.0516617458590321,0.1179842574348166,9.159981796445422,11.931909608275774,-0.11018294833791309
1403636641113555456,50.159216,634.8133079028396,10.027299625,-0.1144109166666666,-3.726527,-0.0202458193231342,-0.0279252680319092,0.0851720674973232,9.41913973446297,11.638163004313357,-0.08466587541257198
1403636641363555584,39.716244,584.2260118515409,7.804458958333332,-0.4249548333333333,-2.974683833333333,-0.0230383461263251,-0.025830872929516,0.2492330171847902,6.910409842805867,11.319711139165728,-0.07151798757894134
1403636641613555456,51.917553,609.8794724214542,10.190743791666666,0.9724927916666666,-2.827584083333333,-0.0509636141582344,0.0474729556542457,0.054454272662223,7.200718003125957,10.827092330785163,-0.1655507054420866
1403636641863555584,49.567461,597.9238170520282,9.822994416666669,-0.024516625,-3.726527,-0.0083775804095727,0.1165879940332212,0.0383972435438752,7.891469453027969,10.254858305865163,0.03704663768165162
1403636642113555456,50.81892,540.7117871089989,8.139519499999999,0.0081722083333333,-3.3751220416666667,-0.1787217154042193,0.1200786525372098,0.0767944870877505,10.574166753726832,10.435980909070077,0.0629328021299056
1403636642363555584,50.030947,601.205925963063,7.698220249999999,0.122583125,-2.8602729166666667,-0.210835773640915,0.018151424220741,0.1487020522699168,7.886449741361609,10.437656291853575,-0.0758030388020483
1403636642613555456,53.364993,450.39301029476826,8.7279185,-1.2176590416666666,-4.5519200416666665,-0.0691150383789754,-0.2087413785385218,0.1787217154042193,5.567624710387871,10.102672828931631,-0.08048994146168553
1403636642863555584,39.103746,673.3815369821945,11.539158166666668,-0.24516625,-3.8082490833333327,-0.0209439510239319,0.0048869219055841,0.1263618378443894,6.182828871450768,10.029296669595652,-0.034777440529989434
1403636643113555456,40.137291,617.698108364942,5.957539875,-0.4004382083333333,-2.819411875,-0.0132645023151569,0.0698131700797731,0.0984365698124801,5.134581272806268,11.042795012844326,0.00389014326454884
1403636643363555584,42.413235,728.3185513268978,11.727118958333332,0.122583125,-3.849110125,0.0488692190558412,-0.0216420827247296,0.104021623418862,5.652720162683459,10.688443543214953,-0.11605073379849884
1403636643613555456,48.963785,686.9322325440666,10.166227166666664,0.4985047083333333,-3.2361945,-0.0705113017805709,-0.1452113937659282,0.046774823953448,6.943509075783799,11.199778295915568,0.2735731315798553
1403636643863555584,50.122977,719.9048830923635,7.788114541666666,0.2941994999999999,-3.334261,-0.0041887902047863,-0.0942477796076938,0.0425860337486616,11.621968784815333,11.542149185996221,-0.011673015932228026
1403636644113555456,43.157339,758.4880196762718,10.395049,-0.4739880833333333,-3.881798958333333,-0.0356047167406843,-0.075398223686155,0.0928515162060983,10.909793090676278,11.30931735188296,-0.09768640958586339
1403636644363555584,49.801112,448.47329746976806,8.28661925,0.63743225,-3.0564059166666664,0.0446804288510548,0.3169517921621702,0.2799508120198904,10.151156075686863,10.785432725542929,-0.1023624717693341
1403636644613555456,40.523529,630.095204644323,9.455245041666666,0.4249548333333333,-3.1463002083333333,-0.0244346095279206,0.0698131700797731,0.0390953752446729,10.208660986229145,10.195639339712814,-0.12673128858054206
1403636644863555584,37.982941,441.0117029675876,7.869836625,0.1389275416666666,-4.184170666666667,-0.0963421747100869,-0.1291543646475804,-0.1172861257340189,16.642166773387167,10.334175740691707,0.468178134794746
1403636645113555456,38.347245,313.5838428935062,10.820003833333333,-0.1389275416666666,-4.625469916666667,-0.0411897703470661,-0.3469714552964727,0.0984365698124801,16.274452882641132,10.874590452610992,0.12763938578212297
1403636645363555584,49.737692,439.2045243585856,10.149882749999998,0.2941994999999999,-3.334261,0.0111701072127637,0.2757620218151041,0.0795870138909414,14.03244844409788,10.620888830574271,-0.12453508577399575
1403636645613555456,52.955627,591.6682060928233,7.763597916666666,-0.318716125,-2.1411185833333333,-0.0788888821901436,0.1186823891356144,0.0335103216382911,16.449050623294216,9.25870762188907,-0.06241036430310842
1403636645863555584,50.155163,615.1093861367899,11.016136833333332,-0.6782932916666666,-4.257720541666666,0.0097738438111682,-0.0062831853071795,0.1075122819228507,15.821270026340104,9.49934577240388,0.11698191616700981
1403636646113555456,60.75859,388.1286942043624,10.721937333333331,0.196133,-3.170816833333333,-0.4118977034706618,0.2206096174520832,0.3246312408709453,21.827054735126474,8.96597988633941,-0.22243565951107058
1403636646363555584,52.987099,397.8028212219318,8.302963666666667,0.4821602916666666,-4.225031708333333,-0.6066764479932288,0.2345722514680378,0.1668534764906579,21.16864182665916,9.416067097302562,-0.08722928734994184
1403636646613555456,59.855938,510.7995827074168,12.315517958333333,-0.784532,-4.658158749999999,-0.268082573106329,-0.0551524043630208,-0.0160570291183478,18.337085831501398,8.766605864549442,-0.0990891492518049
1403636646863555584,45.845986,523.6141191652526,9.790305583333332,-0.0735498749999999,-2.811239666666667,-0.1801179788058148,-0.0223402144255274,0.1424188669627373,19.326433520906754,9.047973845987237,0.06506865178271504
1403636647113555456,53.795576,543.5257627944789,8.204897166666667,0.6782932916666666,-1.3811032083333332,-0.0300196631343024,-0.0390953752446729,0.0174532925199432,19.1974912527214,8.886036114040754,-0.3343667540233639
1403636647363555584,59.932947,536.6518698607099,9.594172583333334,0.0653776666666666,-3.726527,0.0265290046303138,0.1235693110411985,0.1026253600172665,15.11903699207118,8.86815350685241,-0.02725077550287658
1403636647613555456,45.735836,490.4411934475629,9.880199875,0.5066769166666666,-2.5415567916666664,0.0900589894029074,0.2778564169174973,0.228987197861656,13.39736863777912,8.59886151746071,-0.07382522387260515
1403636647863555584,60.999632,437.9112828423772,8.964912541666667,-0.0898942916666666,-3.391466458333333,-0.1843067690106012,0.0209439510239319,0.1514945790731078,16.014050195394944,8.728421480990258,0.10105458362054343
1403636648113555456,40.136575,330.3896726783824,8.87501825,-0.3840937916666667,-1.96133,-0.4314453910929983,0.0621337213709981,0.2506292805863857,16.084162514332625,8.409135101344194,-0.21371130062597565
1403636648363555584,56.352854,335.1856376542723,10.076332875,0.563882375,-3.87362675,-0.5619960191421741,0.0118682389135614,0.2296853295624537,16.524492235742365,7.502754698002477,-0.06298789107620006
1403636648613555456,40.937662,376.8334609686715,10.926242541666667,-0.1879607916666666,-3.906315583333333,-0.4251622057858186,0.0097738438111682,0.2213077491528809,17.103802395295652,7.343717884421112,0.08937559519340965
1403636648863555584,50.439119,366.4026842279848,8.482752249999999,0.4576436666666666,-2.288218333333333,-0.1452113937659282,-0.200363798128949,0.0809832772925368,14.377739686942858,6.798001918495267,-0.00024273018464260332
1403636649113555456,48.098564,346.23373342076275,10.035471833333334,0.34323275,-2.7376897916666665,0.0230383461263251,0.3022910264454179,0.0216420827247296,16.446618454797434,7.329914766130993,0.07399486842352498
1403636649363555584,50.205946,600.1912701788717,7.363159708333333,-0.4903325,-3.162644625,0.0565486677646162,-0.2429498318776106,0.0446804288510548,19.303720636783247,7.815116875950315,0.028030244131851845
1403636649613555456,39.161205,528.80704342191,10.231604833333332,0.2288218333333333,-3.0400615,0.0069813170079773,0.1312487597499735,0.1368338133563554,22.380656602536593,8.646317455943137,0.18537691154525504
1403636649863555584,49.078226,470.6461050936713,8.891362666666666,0.2043052083333333,-3.195333458333333,-0.15079644737231,0.0314159265358979,0.122173047639603,21.852993757597837,9.111815097195729,0.13512921325655824
1403636650113555456,50.03047,517.0068508599986,7.371331916666667,-0.7927042083333332,-3.3996386666666667,-0.1996656664281513,0.0642281164733913,0.1542871058762987,15.395425401761687,9.058275073314531,-0.016343238379043612
1403636650363555584,59.603214,390.6078278820199,9.210078791666666,-0.5557101666666666,-3.8654545416666655,-0.5124286683855351,-0.0593411945678072,0.2038544566329376,12.400760179994782,8.408244442292533,-0.08038658827729073
1403636650613555456,47.677994,446.8751765576516,10.337843541666668,-0.5883989999999999,-3.211677875,-0.3846705671395502,-0.1487020522699168,0.2164208272472968,14.175104367727071,8.60609821502996,0.075797627414806
1403636650863555584,48.76399,546.8738364250875,9.095667875,-0.0898942916666666,-3.366949833333333,-0.1619665545850737,0.1089085453244461,0.085870199198121,13.818656786846043,9.03449980327738,-0.03915684964708177
1403636651113555456,60.103416,704.2930720415178,8.850501625,0.6782932916666666,-4.2822371666666665,-0.0125663706143591,0.0321140582366956,0.0635299847725936,12.712151921294362,8.632945936262338,-0.07028607578627444
1403636651363555584,61.531305,759.8249476795304,9.046634625,0.0653776666666666,-3.857282333333333,0.0635299847725936,-0.0726056968829641,0.1130973355292325,11.917832973884096,8.312350304058993,-0.08926264617762136
1403636651613555456,51.07975,627.5431315558222,7.828975583333331,-0.392266,-3.554910625,0.0509636141582344,0.104021623418862,0.1172861257340189,10.683493605764381,8.03319364174224,-0.037032513856066984
1403636651863555584,61.061621,588.5895158270569,8.417374583333332,0.2288218333333333,-3.538566208333333,-0.28623399732707,0.0153588974175501,0.2848377339254746,11.063746491599378,7.856047813882566,-0.014013601932272302
1403636652113555456,61.758279,402.5848834181467,9.75761675,0.73549875,-2.9338227916666666,-0.6736970912698113,0.0272271363311115,0.1179842574348166,15.926149898964939,8.113035929500985,0.10534103588798871
1403636652363555584,41.754245,330.9681713126392,7.624670374999999,0.4576436666666666,-2.034879875,-0.6618288523562498,-0.2282890661608583,0.2450442269800038,20.62333441856647,9.124193590248517,0.38046310765047053
1403636652613555456,49.576998,535.1733345338355,9.316317499999998,-0.6701210833333332,-2.30456275,-0.2617993877991494,-0.0928515162060983,0.1996656664281513,21.232766955514656,9.146895435375445,0.08434553323385074
1403636652863555584,49.870014,758.464429648638,9.716755708333332,-1.1604535833333331,-2.50069575,-0.0747000919853573,0.0390953752446729,0.1277581012459849,19.12240817780441,9.638824598644955,0.042037970286473936
1403636653113555456,71.555376,691.3841666681095,8.499096666666667,0.0572054583333333,-2.982856041666666,0.0586430628670094,0.257610597594363,-0.0111701072127637,19.431379648344617,9.184098823592207,-0.041704236718208776
1403636653363555584,50.429582,831.0628636418721,8.809640583333332,-0.4249548333333333,-4.233203916666667,0.0733038285837618,0.1340412865531645,0.0265290046303138,17.464332320909318,8.834978406686195,-0.13992745228047276
1403636653613555456,48.398018,736.07241425041,9.577828166666666,-0.3350605416666666,-1.838746875,0.0551524043630208,0.0677187749773799,0.0977384381116824,16.371271749095744,8.360035023198684,-0.08074514476874839
1403636653863555584,50.514221,850.5088178295811,8.548129916666667,-1.871435708333333,-2.8766173333333334,-0.0237364778271228,0.0111701072127637,0.0970403064108847,14.935428625620856,7.8771721394025755,-0.07135469330294608
1403636654113555456,50.266266,831.9690699888872,8.343824708333333,1.2094868333333333,-2.606934458333333,-0.0439822971502571,0.0370009801422797,0.1054178868204575,13.77153483200552,7.859167986124409,0.025364564344799945
1403636654363555584,50.135136,569.2997356152575,12.626061875,-0.1797885833333333,-3.881798958333333,-0.2806489437206881,0.0188495559215387,0.182212373908208,13.988805155281892,8.52487005367589,0.21712734890232177
1403636654613555456,50.53854,589.3840680809361,6.979065916666666,0.3840937916666667,-2.1983240416666665,-0.2876302607286655,-0.0439822971502571,0.2338741197672401,14.166988923015001,9.274048969535965,0.19945853157028814
1403636654863555584,38.487911,762.7532958280649,10.264293666666664,0.3023717083333333,-4.020726499999999,-0.1521927107739055,-0.0125663706143591,0.1277581012459849,13.038643131110646,9.496427560586266,0.1429292378330249
1403636655113555456,50.589085,740.5482922061116,11.285819708333332,-0.2615106666666666,-4.151481833333333,-0.0642281164733913,0.0349065850398865,0.1151917306316257,12.703467567608945,9.954582641392475,0.0061644513871002005
1403636655363555584,54.875374,835.2563160876105,9.398039583333333,0.0163444166666666,-2.8439285,-0.1480039205691191,0.0516617458590321,0.1110029404268393,13.067393382770879,10.467960574318605,0.13355203551392236
1403636655613555456,38.290024,418.5808204734232,8.458235625,0.9888372083333332,-3.3751220416666667,-0.2904227875318564,-0.2213077491528809,0.2708750999095199,13.589303909945594,11.406649184089543,0.21695256465442547
1403636655863555584,49.824476,490.3646554798599,7.297782041666666,-0.367749375,-2.3699404166666667,-0.3155555287605747,0.0041887902047863,0.2534218073895766,16.774786923705225,12.798467371298228,0.369906513008452
1403636656113555456,53.95031,608.5340118544746,11.334852958333332,0.0408610416666666,-3.669321541666666,-0.2178170906488923,0.0265290046303138,0.0740019602845595,20.56972022915315,13.667560502397432,0.3301307598673944
1403636656363555584,50.167322,741.7969976098308,9.545139333333331,-0.269682875,-3.3751220416666667,-0.025830872929516,-0.0488692190558412,0.0174532925199432,20.005593831072392,14.791220076943338,0.23435764329625997
1403636656613555456,47.663451,709.1169800556154,9.373522958333332,-0.269682875,-3.563082833333333,0.0251327412287183,0.1961750079241626,-0.0132645023151569,20.68576070915454,15.662414664027647,0.13667853447773837
1403636656863555584,41.843414,798.9307694229685,9.136528916666666,0.0408610416666666,-3.4241552916666667,0.0216420827247296,0.1186823891356144,0.0251327412287183,20.456392703356226,17.268024329869284,0.4332243374676139
1403636657113555456,50.724268,955.6157900408,8.38468575,0.1389275416666666,-1.985846625,0.064926248174189,0.0747000919853573,0.0900589894029074,21.022726793556078,18.905211876593764,-0.2596376676250607
1403636657363555584,49.67165,619.3356334318836,10.967103583333332,-0.3268883333333333,-4.0125542916666666,0.0041887902047863,-0.2310815929640492,0.122173047639603,21.351848831754968,20.26094137307407,0.33927223967186393
1403636657613555456,49.279451,793.01407812611,9.80665,-0.7436709583333333,-2.606934458333333,-0.028623399732707,-0.0879645943005142,0.1012290966156711,23.24419203158463,21.795235173770816,0.24518448069752452
1403636657863555584,49.839497,622.1706383940256,8.417374583333332,0.3514049583333333,-2.280046125,-0.0579449311662117,-0.1445132620651305,0.2527236756887789,26.591613201751326,23.188634991057295,0.33670309576514157
1403636658113555456,56.051732,566.9920658002319,8.123175083333333,0.0817220833333333,-2.680484333333333,-0.1242674427419962,0.0020943951023931,-0.0872664625997164,29.60094514002241,24.676334617603423,0.19210303601042256
1403636658363555584,53.387642,488.0433314140693,9.839338833333333,-0.1389275416666666,-3.8245935,-0.0614355896702004,0.0090757121103705,0.0328121899374933,31.40823891684925,25.285098771480158,0.07509238675713092
1403636658613555456,49.771786,546.6607920047793,9.332661916666666,-0.5230213333333333,-4.707191999999999,-0.0474729556542457,0.0397935069454707,-0.0125663706143591,31.970684174019553,26.437912838861184,0.17590988298502808
1403636658863555584,50.168752,466.9634363150933,9.577828166666666,-0.9643205833333331,-3.5222217916666665,-0.0223402144255274,0.1933824811209717,0.075398223686155,28.250393577744216,26.782048400154324,-0.11433715189833649
1403636659113555456,50.253392,433.53362882674855,8.28661925,-0.04903325,-3.4486719166666666,0.0356047167406843,0.1284562329467826,0.1068141502220529,22.0281502642145,47.29501444742631,0.15557230903834807
1403636659363555584,50.305128,318.8437411739789,9.692239083333332,-0.4903325,-3.0564059166666664,-0.0160570291183478,-0.093549647906896,0.1096066770252439,23.038148556279793,47.120688731431706,0.1586612909479399
1403636659613555456,46.218157,537.954267508374,10.395049,-0.2124774166666666,-3.759215833333333,-0.0125663706143591,0.1347394182539622,0.046774823953448,19.152635847461603,48.13882613666511,0.23280125276573926
1403636659863555584,50.186158,513.4063894418615,7.3549875,-0.7518431666666666,-2.40262925,-0.0565486677646162,0.0083775804095727,0.1445132620651305,17.25672427901373,49.3605767587776,0.2001805302547197
1403636660113555456,49.389601,382.92931894355615,7.992419749999999,-0.5557101666666666,-1.3157255416666664,-0.0153588974175501,-0.143116998663535,0.1389282084587486,22.283233213903124,53.040925363476944,0.559712603441433
1403636660363555584,57.344675,450.99119354443,10.24794925,0.0817220833333333,-3.3015721666666664,-0.0090757121103705,-0.1773254520026238,0.1123992038284348,27.565759199758745,56.42003285725183,-0.6495942881758126
1403636660613555456,51.939487,487.2447497077521,9.193734375,-0.0980665,-3.906315583333333,-0.0195476876223364,0.3511602455012591,0.0328121899374933,7.939805705291751,57.17056326411755,-0.16039669684963798
1403636660863555584,59.783221,762.253693818276,8.123175083333333,-0.3514049583333333,-3.170816833333333,-0.0411897703470661,0.1047197551196597,0.0209439510239319,8.066250504474542,55.75165717012506,-0.35641363089934686
1403636661113555456,45.45784,631.6422951844769,8.28661925,-0.2043052083333333,-3.0809225416666663,0.0705113017805709,-0.0174532925199432,0.2415535684760151,12.734859798814787,53.81429615366511,-0.31470247731282086
1403636661363555584,49.917936,685.4787014690535,8.736090708333332,-0.1634441666666666,-4.143309625,0.0139626340159546,0.0048869219055841,0.0823795406941323,14.59076063768543,51.93894955989917,-0.403107483506119
1403636661613555456,49.870729,682.6877244362181,10.092677291666664,1.046042666666667,-2.5905900416666663,0.0216420827247296,-0.0642281164733913,0.1570796326794896,12.377803364740538,50.44495074447509,-0.30763746296887007
1403636661863555584,49.213886,765.5980320219071,9.193734375,0.0817220833333333,-2.2228406666666665,0.0027925268031909,0.0006981317007977,0.1745329251994329,10.696430764911348,49.63841255623313,-0.24207803268684813
1403636662113555456,42.370797,737.7218907661412,8.67888525,-0.1062387083333333,-4.829775124999999,0.0006981317007977,-0.036302848441482,0.0774926187885482,9.567822171481133,49.77152587069277,0.07994174799971177
1403636662363555584,46.874762,678.7048398282817,12.127557166666666,0.1389275416666666,-3.219850083333333,-0.0523598775598298,-0.0837758040957278,-0.0516617458590321,8.427487763989044,50.75666380604489,0.30094424208525794
1403636662613555456,57.306051,457.5454932270518,8.327480291666665,0.4739880833333333,-2.778550833333333,0.0677187749773799,0.0656243798749867,0.4132939668722573,10.275720391643853,51.42753010167625,0.06891669818320878
1403636662863555584,59.968949,572.5047059145516,8.793296166666666,0.4331270416666666,-2.9338227916666666,-0.0495673507566389,-0.182212373908208,0.0509636141582344,11.73275897956326,51.88513829013088,0.2387506838700162
1403636663113555456,49.892664,535.1986449834279,10.256121458333332,-0.7109821249999999,-2.6641399166666666,0.0376991118430775,-0.0942477796076938,0.228987197861656,10.557623367861689,52.20142894094426,0.0860778753740945
1403636663363555584,46.265126,476.6564889738891,10.754626166666666,0.4821602916666666,-2.4189736666666666,-0.1319468914507713,-0.0118682389135614,-0.2527236756887789,6.086928589674303,50.935596538146335,-0.037815805613355735
1403636663613555456,52.176237,469.7638685303287,9.087495666666666,0.9970094166666666,-3.8245935,-0.0383972435438752,0.0502654824574366,-0.0013962634015954,7.594806565266131,50.25355558494255,-0.20671455713900144
1403636663863555584,60.46629,312.8943019928459,11.931424166666664,0.1470997499999999,-4.241376125,-0.0509636141582344,0.2555162024919699,-0.0349065850398865,6.671831999158198,48.4154645465516,-0.4111231558138968
1403636664113555456,58.209657,318.7192090698137,8.687057458333333,0.93163175,-3.293399958333333,0.0921533845053006,0.0956440430092892,0.2492330171847902,14.287299193989822,45.97321024948803,-0.5543570462459684
1403636664363555584,49.933672,303.80248073933416,8.883190458333333,-0.2043052083333333,-3.554910625,0.1137954672300302,0.153588974175501,0.1640609496874669,24.528154305083714,44.20615016232996,-0.2654945242796174
1403636664613555456,32.830238,258.5665069647236,8.883190458333333,0.5311935416666667,-4.16782625,0.1933824811209717,0.0600393262686049,0.3302162944773272,26.205139735215084,43.03837608660881,-0.03701631980739961
1403636664863555584,47.716856,246.10919745003972,9.291800875,0.6537766666666667,-1.6753027083333332,0.1068141502220529,-0.0139626340159546,0.0293215314335047,27.958624090732716,41.48340359926646,-0.1068553194237083
1403636665113555456,50.120353,246.08806987878532,9.520622708333333,-0.3023717083333333,-2.427145875,0.0600393262686049,-0.1270599695451872,0.0921533845053006,28.368335320465548,39.66040882507848,-1.1310928249451706
1403636665363555584,49.687624,239.54484946095155,10.158054958333333,0.0,-3.366949833333333,-0.0600393262686049,-0.0160570291183478,-0.054454272662223,30.116098083639763,39.128813535152986,-0.0626866904578165
1403636665613555456,60.510159,282.0540407437728,10.386876791666666,0.2124774166666666,-5.164835666666666,-0.0474729556542457,0.0628318530717958,0.0760963553869527,27.61608948114251,38.432792263885254,-0.2583386581123719
1403636665863555584,42.906284,197.54619874188924,9.177389958333332,0.7600153749999999,-3.08909475,0.1130973355292325,0.1445132620651305,0.418879020478639,29.562953799141447,38.146262228866924,-0.0364716343980831
1403636666113555456,49.768686,337.35809551008185,9.046634625,0.3595771666666666,-4.037070916666667,-0.046774823953448,0.046774823953448,0.0006981317007977,31.744919414671518,39.07579067265562,0.1315758138887304
1403636666363555584,49.834252,295.3222329375209,10.4931155,-0.1389275416666666,-3.293399958333333,0.1235693110411985,0.132645023151569,0.2485348854839925,26.80853064213164,40.03530781029527,0.24329957812172154
1403636666613555456,49.78323,269.6516491161274,9.782133375,-0.6782932916666666,-3.2443667083333327,-0.0370009801422797,-0.2624975194999471,-0.0635299847725936,24.000010891248923,41.32942740652849,0.2562187887940581
1403636666863555584,57.616949,285.1617211179021,9.790305583333332,-0.907115125,-3.268883333333333,0.1514945790731078,-0.2757620218151041,0.4649557127312894,21.92886975263228,42.33563974969871,0.2097908568091853
1403636667113555456,50.07267,276.83079209479234,9.022118,0.612915625,-3.08909475,-0.0740019602845595,0.418879020478639,-0.1375319450571531,20.247329637555225,44.9727151507986,0.17784719708231478
1403636667363555584,50.175429,456.3459548590235,10.117193916666666,0.1879607916666666,-3.3996386666666667,0.018151424220741,0.0495673507566389,-0.0090757121103705,16.580472910270856,45.48114227814894,0.16278384585530148
1403636667613555456,49.637079,360.3705418013547,12.176590416666668,-0.3595771666666666,-3.334261,0.0509636141582344,-0.1389282084587486,0.2827433388230814,17.692225088452737,46.81747108613189,0.3737511181195927
1403636667863555584,46.832323,483.3480689181978,9.079323458333333,0.9888372083333332,-4.478370166666666,0.0188495559215387,0.1172861257340189,0.1242674427419962,17.505129754772405,47.90967700123918,0.20043210448815785
1403636668113555456,43.416738,578.4685270351679,11.106031125,-0.53936575,-3.407810875,-0.1117010721276371,-0.0600393262686049,-0.0237364778271228,15.454850697961067,48.598774264815795,0.09975955216992105
1403636668363555584,59.791804,618.8915832694446,9.332661916666666,0.5557101666666666,-2.59876225,-0.0495673507566389,0.0509636141582344,0.1773254520026238,15.004203449422596,49.43072823949377,0.2518224132400704
1403636668613555456,60.904026,632.4056873575308,8.376513541666666,0.5965712083333333,-2.631451083333333,-0.0802851455917391,0.1026253600172665,0.0349065850398865,17.04139075666567,50.066686933240824,-0.3019086430055111
1403636668863555584,49.919128,520.0537456250232,9.136528916666666,-0.5965712083333333,-3.2280222916666665,-0.0691150383789754,0.1682497398922533,-0.1668534764906579,19.05032477051965,51.18280652685498,0.21378085758978216
1403636669113555456,30.840635,551.9015412720014,10.632043041666666,0.6537766666666667,-3.979865458333333,0.0516617458590321,0.075398223686155,0.2694788365079245,23.819897061467532,53.03631523839931,0.4720149672196783
1403636669363555584,46.600104,594.011894221784,8.703401874999999,0.392266,-2.3862848333333333,-0.0048869219055841,-0.0614355896702004,0.085870199198121,26.40543517192872,55.89757098362811,0.6699188113995262
1403636669613555456,42.248249,436.2695512458061,7.992419749999999,-0.367749375,-2.672312125,-0.0083775804095727,0.2708750999095199,0.0383972435438752,28.159523796889502,59.315853924683935,0.7170688836724324
1403636669863555584,49.318075,425.7837287158811,11.2776475,1.5363751666666667,-4.159654041666666,0.2387610416728242,-0.0342084533390888,0.7113962031128886,29.077794834859954,63.119973767880246,0.7707070366311939
1403636670113555456,57.015658,531.2109636956284,9.438900625,0.5148491249999999,-1.830574666666667,0.1633628179866692,0.1884955592153876,0.2038544566329376,25.207749228899377,67.68495045530159,0.662688127610167
1403636670363555584,49.30687,480.8224156001077,10.207088208333332,-0.3105439166666667,-3.2443667083333327,0.1989675347273535,-0.124965574442794,0.1773254520026238,14.61209773480129,70.12479596464624,0.3325370657745168
1403636670613555456,39.543391,457.201189790427,11.71894675,-0.2860272916666666,-4.192342875,0.418879020478639,-0.0251327412287183,0.0439822971502571,3.3710487048915336,70.94081029280147,0.014825886592447546
1403636670863555584,60.999393,389.14080901320585,11.318508541666665,0.4249548333333333,-4.788914083333333,0.6590363255530588,0.0237364778271228,0.2059488517353309,17.96695689785842,68.73406412889014,-0.8447685553228581
1403636671113555456,50.164222,417.3288673258967,9.528794916666666,-0.4903325,-4.396648083333333,0.5452408583230285,-0.1968731396249603,-0.3895574890451343,33.49088119134153,64.15779351577311,-1.1272390222172817
1403636671363555584,71.932554,399.2238466230562,7.485742833333332,0.1062387083333333,-2.549729,0.132645023151569,-0.364424747816416,-0.76026542216873,47.00308695286788,58.34140980659507,-1.1863419553369425
1403636671613555456,50.548554,326.41639198761794,7.412192958333333,0.2860272916666666,-2.0920853333333334,0.1312487597499735,-0.3246312408709453,-0.0907571211037051,51.723200186008356,52.51303813790319,-0.8080570523424058
1403636671863555584,49.92652,323.7528503632793,12.127557166666666,0.6047434166666666,-3.9390044166666662,-0.0425860337486616,-0.0998328332140756,0.0530580092606276,48.355418199714606,49.81307716918464,-0.5428704287915735
1403636672113555456,60.065508,313.19616592927594,9.1201845,-0.4576436666666666,-3.652977125,-0.1766273203018261,0.0872664625997164,-0.1256637061435917,75.88915995235531,8.322575246070015,-1.1947786939959144
1403636672363555584,60.755491,341.0815325306668,7.322298666666667,-0.8172208333333333,-1.789713625,-0.1382300767579508,0.2946115777366427,-0.2122320370425104,34.49065671290822,8.461020790667474,-0.22233985425402025
1403636672613555456,49.317598,347.02505016125235,6.014745333333333,0.3350605416666666,-1.3565865833333333,0.0795870138909414,0.4000294645571003,0.3546509040052477,24.160127178704187,10.41425839160945,0.1090900949599245
1403636672863555584,49.620867,497.2863186938542,9.733100125,-0.7109821249999999,-3.734699208333333,0.1396263401595463,-0.0356047167406843,0.0083775804095727,17.695584851684096,10.301744727602314,-0.13480195097091574
1403636673113555456,49.886227,376.3080207425143,10.942586958333331,-0.1144109166666666,-1.7079915416666664,0.3218387140677544,-0.0034906585039886,-0.093549647906896,12.121964106852822,10.319133231113696,0.015253935910203964
1403636673363555584,63.308477,567.068902332764,9.5124505,0.0898942916666666,-3.751043625,0.1096066770252439,-0.0293215314335047,0.0802851455917391,4.314213159478535,10.37107035228361,-0.027577913174249957
1403636673613555456,55.262089,363.802769547165,7.40402075,0.3595771666666666,-2.0021910416666664,0.0188495559215387,0.3790855135331683,0.0132645023151569,6.57067504703987,11.716401539512818,-0.004766692100487191
1403636673863555584,50.000906,683.6120061981092,9.07115125,0.3759215833333333,-3.4731885416666666,0.0111701072127637,0.104021623418862,0.0509636141582344,7.739119206568088,12.547212845543712,-0.17236405874615812
1403636674113555456,49.959898,600.051734915636,9.161045541666669,0.9643205833333331,-3.260711125,0.0349065850398865,0.0551524043630208,0.1075122819228507,10.736509506511663,12.176279186236519,-0.036035513387664864
1403636674363555584,50.43602,461.46299020995457,8.466407833333333,0.0163444166666666,-3.1299557916666663,0.1696460032938488,0.0956440430092892,0.3204424506661589,13.224026222366659,11.918271121902785,0.022932182456049333
1403636674613555456,49.666167,488.2223305227381,8.580818749999999,-0.1634441666666666,-3.563082833333333,0.1808161105066125,0.0048869219055841,0.0370009801422797,14.495890235230336,11.720552697451476,-0.06522000035054631
1403636674863555584,60.328722,307.82550159053505,10.713765125,-0.2288218333333333,-4.126965208333333,0.0900589894029074,-0.2268928027592628,0.093549647906896,13.233939497062133,11.459474756528907,-0.05467124553027425
1403636675113555456,38.834334,498.00783168639407,10.34601575,0.7600153749999999,-3.2280222916666665,-0.1235693110411985,-0.0956440430092892,-0.1843067690106012,6.672449414505778,11.068381367338587,-0.0855893345561487
1403636675363555584,49.726486,340.57636813889286,8.5317855,-0.4331270416666666,-3.726527,-0.0237364778271228,0.2827433388230814,-0.0844739357965255,11.056440929455404,10.221935192507807,-0.11684530647816338
1403636675613555456,39.5298,408.2994642600939,9.291800875,-0.784532,-2.966511625,0.1926843494201739,0.2876302607286655,-0.0942477796076938,16.444235798230455,9.136029327904021,-0.14642386793825501
1403636675863555584,49.991608,294.7023354829154,8.490924458333334,0.1552719583333333,-3.1054391666666663,0.5131268000863328,0.1584758960810851,0.4153883619746504,15.813226597910015,8.841944781969962,-0.07704668834668027
1403636676113555456,50.248623,407.5061648598636,10.076332875,0.1062387083333333,-2.9338227916666666,0.2925171826342496,-0.1179842574348166,-0.3036872898470133,12.778567767691696,7.368415433120903,-1.2374584241021722
1403636676363555584,60.70304,420.82085853012927,9.046634625,1.0215260416666667,-3.587599458333333,0.3811799086355615,0.0537561409614253,-0.3420845333908886,8.82341397172338,6.009212422995852,-0.3547555691042046
1403636676613555456,59.460401,384.3228469432722,8.646196416666667,0.6210878333333334,-3.178989041666666,0.3762929867299774,0.0607374579694026,0.1605702911834783,10.618706290117293,4.929556317252964,0.008943642257635886
1403636676863555584,49.914598,515.5741093898881,9.7085835,-0.0980665,-3.661149333333333,0.2073451151369263,-0.0977384381116824,0.1829105056090057,14.942388811425797,5.138200132160666,-0.0007345006386243469
1403636677113555456,61.081171,633.2171370852557,8.09048625,0.5148491249999999,-4.118792999999999,-0.085870199198121,-0.0062831853071795,-0.1096066770252439,12.448030064569444,5.540847429844168,0.0003369134114583616
1403636677363555584,49.416542,402.9090509811455,9.210078791666666,0.2043052083333333,-3.3506054166666663,0.1696460032938488,0.2373647782712288,-0.0488692190558412,6.932109238483787,5.997750912149938,0.15007505608890792
1403636677613555456,39.525747,429.50203172963,13.230805291666666,-0.4331270416666666,-4.159654041666666,0.4265584691874141,0.0209439510239319,0.1905899543177807,11.633526446922088,6.404575235873534,0.11778480137565861
1403636677863555584,49.861908,343.4648682739617,9.013945791666666,0.6456044583333332,-2.40262925,0.5773549165597242,-0.2157226955464991,0.1633628179866692,12.13252159313491,6.1211822035577255,0.004324838392167685
1403636678113555456,59.946776,509.49248688662846,9.929233125,0.3759215833333333,-3.2443667083333327,0.2617993877991494,0.0628318530717958,-0.2464404903815993,9.540007103385532,3.70246881074425,-0.059162159481171095
1403636678363555584,58.089018,502.8927665778374,11.220442041666669,-0.24516625,-4.053415333333333,0.333008821280518,0.0013962634015954,-0.0251327412287183,8.429984825586686,2.9995263604597135,0.06448104254240494
1403636678613555456,61.008453,452.39715179935337,8.278447041666666,1.5036863333333332,-2.99102825,0.4440117617073574,0.0998328332140756,-0.2750638901143063,8.7816222824111,3.861121375486006,0.01799052902904741
1403636678863555584,59.688806,472.7589558296363,7.632842583333333,0.0980665,-2.606934458333333,0.3288200310757317,0.0390953752446729,-0.4209734155810323,8.601952961567074,4.363662456928349,0.2606145936359505
1403636679113555456,50.132275,390.4326545678032,6.733899666666666,0.0980665,-2.3944570416666666,0.4719370297392667,0.1584758960810851,0.0823795406941323,2.979510291063289,4.995515949085652,0.11340889940143128
1403636679363555584,60.134649,382.7317607716275,9.242767625,0.7763597916666666,-3.1054391666666663,0.5159193268895238,0.0565486677646162,0.0090757121103705,4.877085110036383,5.5135973777422835,0.1249409114172284
1403636679613555456,39.683581,532.57096434282,8.302963666666667,0.7681875833333334,-3.4323274999999995,0.3085742117525974,-0.057246799465414,-0.0411897703470661,6.779167759879686,6.285640174977622,0.19017408732230123
1403636679863555584,40.220975,467.6864943355026,10.386876791666666,-0.5557101666666666,-2.557901208333333,-0.0097738438111682,0.2045525883337354,-0.0823795406941323,10.28994863471924,6.7682024585227,-0.024581832981786178
1403636680113555456,33.180952,501.0240240659648,9.855683249999998,0.1307553333333333,-3.162644625,-0.1151917306316257,0.0719075651821663,-0.2408554367752175,13.339367912924317,6.780285983042466,0.001951266698723586
1403636680363555584,49.645423,498.2183229664748,8.834157208333334,0.2941994999999999,-2.9256505833333333,-0.1410226035611418,-0.1528908424747032,-0.1389282084587486,12.526967853897725,6.598306853493646,-0.030170845263937984
1403636680613555456,36.047936,529.750389199273,8.817812791666666,-0.2124774166666666,-3.4568441249999995,0.007679448708775,-0.0349065850398865,0.2534218073895766,15.427961114260585,6.428367184356171,-0.05169650752527577
1403636680863555584,49.929142,338.7018682143864,7.84532,0.4739880833333333,-2.574245625,0.1494001839707146,-0.0691150383789754,0.5808455750637129,22.656032310482836,6.278904430811351,0.012799962996018266
1403636681113555456,52.437544,472.60383904102457,8.253930416666666,0.8008764166666666,-3.170816833333333,-0.0265290046303138,-0.2213077491528809,0.0195476876223364,25.343114146076314,5.919588953051706,-0.0311833953557894
1403636681363555584,38.778543,382.6681651447987,9.299973083333333,0.5230213333333333,-4.886980583333333,-0.0460766922526503,0.2869321290278678,0.0523598775598298,24.634155943632464,5.5876432850161155,-0.02896730275690551
1403636681613555456,50.221205,531.8175146211681,9.259112041666668,0.220649625,-3.407810875,-0.0111701072127637,0.0579449311662117,-0.0279252680319092,24.809080948257115,5.010276946039736,-0.08643527564219866
1403636681863555584,50.089836,517.4265867791042,10.321499125,-0.2369940416666666,-3.415983083333333,0.0446804288510548,-0.0132645023151569,0.1103048087260416,25.502027930165827,4.656472021392938,-0.12806594229151003
1403636682113555456,49.329996,494.0334332406405,8.041452999999999,0.1389275416666666,-3.2525389166666665,-0.0048869219055841,0.0823795406941323,0.0153588974175501,25.665750637919555,4.09461505914621,-0.23109018250815705
1403636682363555584,50.217628,459.7461273223676,8.891362666666666,-0.1307553333333333,-1.5527195833333332,0.0083775804095727,-0.132645023151569,0.1556833692778942,26.292249027435926,3.408029668992061,-0.0659646471475126
1403636682613555456,38.608789,433.24072935599503,9.447072833333332,0.5475379583333333,-2.9256505833333333,-0.0349065850398865,0.2562143341927675,-0.0425860337486616,25.967547587094774,3.0451191853075503,-0.09731029003993319
1403636682863555584,47.264576,590.3975833474802,9.9047165,0.3268883333333333,-2.827584083333333,0.0111701072127637,0.0656243798749867,-0.0041887902047863,25.63778120233674,2.531463550029699,-0.05910994383382695
1403636683113555456,49.72291,509.3949920643476,9.643205833333331,0.465815875,-3.726527,0.018151424220741,0.0600393262686049,0.1033234917180643,26.441772041850232,2.3111902397938664,-0.05618208421870108
1403636683363555584,34.204483,457.18781345194543,8.302963666666667,0.196133,-2.312734958333333,0.0705113017805709,-0.0628318530717958,0.179419847105017,27.602421603837403,2.6830253118941045,-0.0166240565283009
1403636683613555456,49.9444,443.03100195994506,7.477570624999999,0.2369940416666666,-2.30456275,-0.0160570291183478,0.0097738438111682,0.0209439510239319,28.69781764325328,3.398292654929553,0.011520784213840507
1403636683863555584,49.67618,528.7957390957397,12.715956166666665,1.005181625,-4.184170666666667,0.1012290966156711,0.0097738438111682,0.140324471860344,28.93549094661064,3.0018094950052068,-0.1026952758261035
1403636684113555456,49.702883,515.6814691776345,8.597163166666666,0.4576436666666666,-3.587599458333333,0.018151424220741,0.054454272662223,0.0307177948351002,26.850835870428018,2.676702527989921,0.10448014085052781
1403636684363555584,39.800882,479.14759388177015,7.322298666666667,0.024516625,-2.672312125,0.0216420827247296,0.1082104136236484,0.0663225115757845,26.042678563038802,2.5331416482887494,-0.02106433677205688
1403636684613555456,60.432196,470.018068537269,9.275456458333332,-0.392266,-3.571255041666667,0.0062831853071795,0.0111701072127637,0.0879645943005142,36.96316899194162,15.047708673838509,-0.12036870739660976
1403636684863555584,51.115274,474.77050231463113,8.319308083333333,0.73549875,-3.391466458333333,0.025830872929516,0.0425860337486616,0.0370009801422797,23.147737791255153,14.341745222898266,-0.3158737803322662
1403636685113555456,44.511795,461.2741189643502,10.460426666666669,0.024516625,-2.533384583333333,-0.0397935069454707,-0.0118682389135614,0.0579449311662117,22.45120362867287,13.933473213484355,-0.13732205504763328
1403636685363555584,50.287008,595.3161610112579,8.556302125,0.1634441666666666,-2.8602729166666667,-0.075398223686155,0.0006981317007977,0.0174532925199432,21.285138019198687,14.528065465861395,-0.009228094805408205
1403636685613555456,49.961566,559.6500270186636,8.703401874999999,0.1797885833333333,-3.0400615,0.0551524043630208,0.0698131700797731,0.1905899543177807,22.19718140720072,14.716787250559843,0.11966268551253734
1403636685863555584,46.932221,543.0717111576992,8.172208333333334,0.8499096666666667,-1.9695022083333331,-0.0495673507566389,0.054454272662223,-0.0041887902047863,25.064635385314837,15.562933895453366,0.07189812566489984
1403636686113555456,49.587726,530.9396196744332,11.955940791666666,0.3759215833333333,-3.8899711666666654,0.0397935069454707,-0.025830872929516,0.2101376419401172,26.111658405262876,15.729167436447081,0.016204726040029982
1403636686363555584,60.975551,584.9012654962477,7.044443583333333,0.7028099166666667,-2.1166019583333333,-0.0328121899374933,-0.0425860337486616,0.064926248174189,24.15950781450038,16.125037418828434,0.16200588528179694
1403636686613555456,49.2208,547.8679945396714,8.556302125,-1.3075533333333331,-2.0593965,0.0293215314335047,-0.143116998663535,0.054454272662223,22.431713828390716,16.316247934723688,0.023341415527958986
1403636686863555584,50.230265,587.0650448928143,10.019127416666668,0.0,-4.110620791666666,0.0516617458590321,0.093549647906896,0.1445132620651305,21.731962653795033,16.36770931744942,0.08302638782918947
1403636687113555456,49.579144,605.6278476189923,10.166227166666664,-0.6701210833333332,-2.0512242916666668,0.0209439510239319,0.0579449311662117,0.1151917306316257,20.68470388314831,17.74699562340078,0.13355673885606123
1403636687363555584,43.719291,625.5362400508413,8.311135875,0.0572054583333333,-3.113611375,-0.0397935069454707,0.0558505360638185,0.0432841654494593,18.531090532378585,19.012766748070973,0.1863215245947849
1403636687613555456,35.336972,577.8772568344148,9.741272333333333,-0.5475379583333333,-3.979865458333333,0.0083775804095727,0.0111701072127637,0.1186823891356144,17.79864537467184,19.379733023809408,-0.07571994290937667
1403636687863555584,50.698519,587.7392236733291,7.935214291666666,0.392266,-1.985846625,-0.0314159265358979,0.0663225115757845,0.0321140582366956,18.98508929260571,19.76888214044883,0.09848555696999739
1403636688113555456,49.692869,584.3446540822849,9.218251,0.7763597916666666,-3.2443667083333327,-0.0439822971502571,-0.0118682389135614,-0.0013962634015954,20.68275376063983,20.289982122597763,0.07939533975382318
1403636688363555584,49.589396,589.9209882687488,8.539957708333333,-0.661948875,-4.184170666666667,0.0027925268031909,0.0565486677646162,0.1696460032938488,18.49003884407667,20.823620718941253,0.14281398733408324
1403636688613555456,38.206816,602.1255895841978,7.869836625,-0.4821602916666666,-2.40262925,-0.0579449311662117,-0.0390953752446729,-0.1075122819228507,19.693384359681197,21.366431684224167,-0.1412521040533754
1403636688863555584,49.992323,445.7108399117128,10.1008495,0.0572054583333333,-4.274064958333334,0.0893608577021096,-0.0879645943005142,0.0509636141582344,22.832858224710094,18.959521077618525,-0.04189990995676851
1403636689113555456,49.648046,508.39802215755,10.697420708333333,0.318716125,-3.358777625,0.171740398396242,-0.0684169066781777,0.1256637061435917,20.816079451201194,19.410663231190156,0.21424643685173805
1403636689363555584,49.702406,610.2300549393696,9.716755708333332,0.465815875,-2.7376897916666665,0.0509636141582344,-0.0237364778271228,0.0111701072127637,19.697322242207218,20.034491485708752,0.07840786131400179
1403636689613555456,48.603534,639.4260709200394,8.196724958333332,0.6782932916666666,-1.6834749166666665,0.0055850536063818,-0.0265290046303138,0.0949459113084915,19.711650310825597,20.568418993014998,0.007678525272044823
1403636689863555584,49.228192,585.1262427792948,9.667722458333332,0.4903325,-2.59876225,0.0097738438111682,0.1473057888683213,0.1801179788058148,18.148869531891375,20.76036473478142,0.01432685651883503
1403636690113555456,39.770842,704.9770666759869,10.092677291666664,-0.0653776666666666,-3.57942725,-0.104021623418862,-0.0300196631343024,-0.1801179788058148,12.848072845534258,20.752535767888666,-0.010599527078085202
1403636690363555584,46.675682,670.31706828699,8.989429166666666,0.8008764166666666,-3.5222217916666665,-0.046774823953448,0.0251327412287183,-0.0390953752446729,9.844808725428944,20.560716672075106,-0.03383422377840617
1403636690613555456,41.704416,577.4008685716188,8.180380541666665,0.3268883333333333,-3.530394,0.0907571211037051,-0.0600393262686049,0.3783873818323706,11.831091542351443,20.35451269533172,-0.023997846174637516
1403636690863555584,59.356212,537.1393716554461,11.163236583333331,-0.5965712083333333,-3.505877375,0.0760963553869527,0.361632221013225,0.2247984076568696,5.705460142575313,20.10122923619507,-0.07219110050334976
1403636691113555456,49.579143,394.97954344855015,8.981256958333333,0.5066769166666666,-3.358777625,-0.064926248174189,0.3036872898470133,-0.2038544566329376,10.426617343607369,19.76778946641564,-0.12274829929781461
1403636691363555584,53.122759,469.1170378311193,10.844520458333331,-0.8989429166666666,-3.293399958333333,-0.0656243798749867,-0.1759291886010284,-0.2422517001768129,21.87125324744312,18.435114875775287,-0.5608696987635433
1403636691613555456,49.953937,507.7178332690531,10.607526416666667,-0.4249548333333333,-3.18716125,0.0432841654494593,-0.1829105056090057,0.0034906585039886,26.668741094460174,17.889517291448637,-0.07695290348908657
1403636691863555584,52.13356,556.2175734624847,7.134337875,-0.63743225,-3.530394,0.0432841654494593,-0.0998328332140756,0.1542871058762987,27.090000393990348,17.521969787650367,-0.11042609616617227
1403636692113555456,49.873114,513.0884605723083,10.378704583333333,0.367749375,-3.4568441249999995,-0.0370009801422797,-0.1033234917180643,0.0300196631343024,25.393196929635405,17.292032476550126,-0.053671364294416435
1403636692363555584,49.330235,600.6038790957565,10.166227166666664,0.2533384583333333,-3.661149333333333,0.0356047167406843,0.0244346095279206,0.1891936909161853,25.147517528809736,17.207469034840212,-0.09093270953313848
1403636692613555456,49.04294,677.6815498001607,10.934414749999998,-0.465815875,-4.437509125,0.0370009801422797,0.0383972435438752,0.2017600615305445,25.165469447728565,17.06127746355992,0.0053577419228574286
1403636692863555584,42.664289,660.9951351635983,7.886181041666666,0.2941994999999999,-2.476179125,-0.1082104136236484,-0.1438151303643327,-0.1270599695451872,24.239283294823455,16.9635717751149,-0.010059133506633344
1403636693113555456,50.246954,712.8621003073758,8.172208333333334,-0.809048625,-3.334261,0.0705113017805709,0.0963421747100869,0.2617993877991494,17.992773711173896,17.107660975407185,0.030088512205523443
1403636693363555584,50.509453,766.900937502694,8.703401874999999,0.1552719583333333,-3.211677875,0.0537561409614253,-0.1780235837034216,0.2178170906488923,11.376086935427224,17.29662149302256,0.01787266920168662
1403636693613555456,49.855232,702.221184592446,9.1201845,0.6456044583333332,-3.178989041666666,0.057246799465414,-0.1284562329467826,0.0740019602845595,7.985272233152589,17.33249153648928,-0.012852476010099423
1403636693863555584,59.872866,486.3056082291931,7.183371125,1.1686257916666667,-3.2361945,0.0593411945678072,0.4202752838802345,0.0747000919853573,8.420579751574882,16.97159554179725,-0.09126665726544658
1403636694113555456,71.469307,580.5651048368838,11.514641541666665,0.4004382083333333,-4.004382083333333,0.018151424220741,0.1368338133563554,0.0663225115757845,7.967703928080172,16.52242655560254,-0.07690846621621006
1403636694363555584,49.930811,767.4796491722108,8.5317855,0.3023717083333333,-3.930832208333333,-0.0614355896702004,-0.0558505360638185,0.0879645943005142,7.904725017499267,16.181157548179044,-0.05562144267616631
1403636694613555456,39.906025,799.4253784201102,8.041452999999999,-0.6864655000000001,-4.151481833333333,-0.0188495559215387,-0.0090757121103705,0.0795870138909414,7.865829782136209,15.978286390560411,-0.05048508156688847
1403636694863555584,50.332785,662.5726967656576,7.9433865,0.0980665,-1.7161637499999998,0.1110029404268393,-0.0146607657167523,0.3113667385557884,5.463001966264671,15.712556678026814,-0.053666924728435816
1403636695113555456,49.981355,754.6692075379561,10.533976541666666,-0.2941994999999999,-3.219850083333333,-0.0851720674973232,-0.064926248174189,-0.0034906585039886,6.718803035129965,15.448427073548702,-0.09195235086376918
1403636695363555584,60.176373,702.2123546745901,11.048825666666666,-0.1634441666666666,-3.546738416666667,-0.0048869219055841,0.028623399732707,0.0642281164733913,8.499095370195956,15.077538208855076,-0.06346408865235809
1403636695613555456,48.084021,657.7868650294201,9.136528916666666,0.1797885833333333,-3.2770555416666665,-0.0691150383789754,0.0034906585039886,-0.0041887902047863,9.492000597219432,14.6930450346833,-0.07519471517690235
1403636695863555584,52.81353,756.0086733182108,8.621679791666667,1.201314625,-1.9449855833333327,0.0090757121103705,0.0502654824574366,0.122173047639603,5.592030873136456,14.349352561039682,-0.05791294900689259
1403636696113555456,38.526058,602.9525484626002,9.56148375,0.04903325,-3.358777625,-0.0663225115757845,-0.1207767842380075,-0.0048869219055841,5.099365133933991,14.192804586296875,0.02079442092785122
1403636696363555584,58.771372,421.5437007214946,10.656559666666666,0.0735498749999999,-3.2443667083333327,0.0307177948351002,0.478918346747244,0.2227040125544764,4.834663170977365,13.972413820040616,-0.06149105872147409
1403636696613555456,49.888134,742.8392415299421,9.087495666666666,0.3595771666666666,-2.868445125,0.0509636141582344,0.0774926187885482,0.1165879940332212,2.1899437976262384,14.004688325000009,-0.05741349753972891
1403636696863555584,49.761534,734.6644402117404,9.553311541666666,0.5066769166666666,-3.366949833333333,-0.0474729556542457,0.0851720674973232,-0.0223402144255274,0.7542615639225106,13.859945938342966,-0.017422731175653183
1403636697113555456,55.981159,553.3263457851236,10.811831625,-0.9152873333333332,-4.086104166666667,-0.0747000919853573,-0.1556833692778942,-0.0328121899374933,3.68246063178539,13.919344762826835,0.042436298667503536
1403636697363555584,52.202701,540.589703318209,9.80665,0.93163175,-3.652977125,0.0670206432765822,-0.1354375499547599,0.3651228795172137,6.063649624370713,14.05389677574233,0.03317581550065185
1403636697613555456,50.862312,687.7837918761084,10.419565625,-0.4494714583333333,-3.800076875,-0.3001966313430246,0.0118682389135614,0.2261946710584651,13.529656799712939,14.364933186210285,0.027330888501285955
1403636697863555584,50.055027,596.1041982175459,9.716755708333332,0.0326888333333333,-3.195333458333333,-0.3735004599267865,-0.0118682389135614,0.2192133540504878,14.21410424974866,14.16910803169783,-0.05456468684866245
1403636698113555456,50.001622,724.5444528432639,8.638024208333333,0.2615106666666666,-2.9338227916666666,-0.1682497398922533,-0.1193805208364121,0.1996656664281513,14.882038421594576,14.096976296260856,-0.001710060289264348
1403636698363555584,39.03985,637.4104713936518,9.896544291666666,-0.1552719583333333,-2.5660734166666663,-0.2932153143350474,0.0677187749773799,0.2527236756887789,16.498280706048313,14.245681449143424,0.011819017514213215
1403636698613555456,60.234309,562.2450447122047,8.09048625,0.612915625,-3.9880376666666666,-0.4796164784480418,0.0062831853071795,0.314857397059777,17.29837872585914,14.092068566114907,-0.013241426437899051
1403636698863555584,50.225735,565.8227629443713,9.847511041666666,-0.3023717083333333,-3.260711125,-0.4642575810304917,0.1759291886010284,0.5054473513775578,18.941573012960617,13.565641438766479,-0.1395976728721493
1403636699113555456,49.958229,587.8866904728566,8.948568125,0.3759215833333333,-3.334261,-0.5445427266222308,0.0823795406941323,0.2911209192326541,17.54457519338926,12.953751582827469,-0.14189984244453413
1403636699363555584,57.80363,544.6303371807171,9.332661916666666,0.0653776666666666,-4.241376125,-0.546637121724624,0.0837758040957278,0.4167846253762458,14.455095568936196,12.41233714619703,-0.09171185091891232
1403636699613555456,50.240517,607.0517696784822,8.425546791666665,0.0163444166666666,-3.77556025,-0.468446371235278,0.0439822971502571,0.3497639820996636,6.15012934469785,11.035125662044186,-0.11177612090095224
1403636699863555584,39.250612,648.5793492778306,7.216059958333333,0.269682875,-3.669321541666666,-0.3413864016900908,0.2687807048071267,0.0642281164733913,4.720218425920672,10.536262469314027,-0.1386590700820154
1403636700113555456,56.687593,932.9698547636516,7.657359208333333,0.3595771666666666,-1.9776744166666664,-0.0893608577021096,0.007679448708775,0.0670206432765822,6.4045447597625955,10.680157025273893,-0.05866217252253847
1403636700363555584,49.866677,804.798909285387,9.1201845,-0.3514049583333333,-4.069759749999999,-0.1019272283164688,-0.0523598775598298,0.2673844414055313,10.490144909273997,10.501119800866016,-0.020886089760066895
1403636700613555456,39.286375,637.7225365896567,8.474580041666666,0.8253930416666666,-3.391466458333333,-0.249931148885588,0.2366666465704311,0.0712094334813686,15.704677701884567,10.840632565648447,-0.025614810402126764
1403636700863555584,60.08172,795.4379021123484,9.471589458333332,-0.0572054583333333,-3.268883333333333,-0.0907571211037051,-0.1954768762233649,0.1703441349946465,16.7781084468883,10.467046285537567,-0.19825380576442697
1403636701113555456,57.26409,904.527879547584,10.8853815,0.0,-4.8052585,-0.0530580092606276,-0.0760963553869527,-0.0670206432765822,12.810744655229325,10.064896295728241,-0.04153531962631263
1403636701363555584,49.302101,1014.5951920594948,8.229413791666666,0.3514049583333333,-2.6477955,0.0027925268031909,0.0411897703470661,0.036302848441482,10.628589289576636,10.838352494683619,0.8257008865892779
1403636701613555456,61.205387,924.8479485053992,8.490924458333334,0.9724927916666666,-3.358777625,0.0342084533390888,0.1640609496874669,-0.0390953752446729,11.057947872531747,10.612066633484003,0.0009333919480134512
1403636701863555584,53.556681,746.311938699784,7.289609833333333,-0.2941994999999999,-3.1054391666666663,-0.2666863097047335,-0.0621337213709981,0.1368338133563554,10.726842980810353,11.55938096914205,-0.29820787391371084
1403636702113555456,37.325859,616.1761613160809,9.095667875,-0.5230213333333333,-2.525212375,-0.4412192349041665,0.0816814089933346,0.2017600615305445,10.994862172128544,10.342409544440459,-0.14960413296490316
1403636702363555584,49.442053,545.5296651916597,8.793296166666666,-0.0081722083333333,-2.2963905416666663,-0.260403124397554,0.0139626340159546,0.0998328332140756,12.694902729513347,9.557104013391568,-0.15526036984874736
1403636702613555456,61.04064,566.8418379766025,8.123175083333333,-0.73549875,-2.50069575,-0.1033234917180643,-0.0879645943005142,0.0425860337486616,13.560670245149673,10.006494657792537,-0.001225686125540193
1403636702863555584,50.741672,626.7847395142504,9.618689208333333,0.6782932916666666,-4.045243125,-0.0418879020478639,-0.0349065850398865,0.036302848441482,15.125041520852086,11.232189476828877,0.07279787403597737
1403636703113555456,60.047388,482.40620043995017,11.710774541666666,-0.7273265416666667,-4.919669416666666,0.08307767239493,0.2492330171847902,0.2988003679414292,10.190194339465682,11.26453109279035,-0.005470041957824634
1403636703363555584,46.865941,739.2718514471945,8.221241583333333,0.612915625,-2.280046125,-0.007679448708775,0.0495673507566389,-0.0055850536063818,5.944624379679282,10.890874724295669,0.08981827021363031
1403636703613555456,49.559116,651.8046251661543,10.190743791666666,0.024516625,-4.46202575,-0.0174532925199432,-0.122173047639603,-0.0230383461263251,9.640804011996678,11.39700406779335,0.049074678378513426
1403636703863555584,40.296077,585.2768293848321,9.684066875,-0.8825985,-3.391466458333333,0.0418879020478639,0.0705113017805709,0.1864011641129944,9.372548171098627,11.466857076931767,0.033630454579585134
1403636704113555456,43.914318,609.42960672517,10.305154708333331,-0.7763597916666666,-3.1217835833333334,0.0195476876223364,-0.1319468914507713,0.0774926187885482,7.264071721484615,12.815233529441624,0.010836755708361068
1403636704363555584,49.718141,628.9417086656375,10.256121458333332,0.4004382083333333,-3.0073726666666665,0.0160570291183478,-0.0886627260013119,0.0607374579694026,10.209752341304961,14.405016895052885,0.03474684714196563
1403636704613555456,40.057897,635.0831546855325,8.302963666666667,-0.1062387083333333,-4.151481833333333,0.0293215314335047,-0.0272271363311115,0.0132645023151569,9.407529567613556,14.383021011788097,0.025781797482595792
1403636704863555584,42.705774,561.8788409837285,8.074141833333334,0.0163444166666666,-2.59876225,0.0132645023151569,-0.0607374579694026,0.0446804288510548,8.346613851832025,14.452754147597647,0.012479566324024916
1403636705113555456,49.034834,377.50329622140407,8.490924458333334,0.0653776666666666,-3.881798958333333,-0.0069813170079773,0.249931148885588,0.0684169066781777,6.2909305510054425,13.807238269253583,-0.6652027072547728
1403636705363555584,40.180445,550.482332702141,8.638024208333333,0.1307553333333333,-2.50069575,-0.0146607657167523,0.2038544566329376,0.0628318530717958,8.298171709976812,13.422358661200922,-0.07518060715170982
1403636705613555456,50.04406,577.714477675364,8.997601374999999,0.0980665,-3.963521041666666,0.0321140582366956,-0.0712094334813686,0.1975712713257581,7.832838551053946,13.313939169002676,0.0018805326373261266
1403636705863555584,48.123837,378.1693767289072,9.504278291666663,0.4821602916666666,-3.734699208333333,0.064926248174189,0.1850049007113989,0.2527236756887789,8.172319944542759,12.169227129676335,-0.12268195985746111
1403636706113555456,49.609184,570.0006343761542,10.656559666666666,0.220649625,-4.396648083333333,0.0244346095279206,0.0370009801422797,0.2317797246648469,10.729216022400118,11.839898108568466,-0.02228836842253301
1403636706363555584,50.373078,546.3682640441016,9.013945791666666,-0.0081722083333333,-2.582417833333333,-0.0558505360638185,-0.0118682389135614,-0.1319468914507713,7.473520472563874,12.041364912090211,0.32848001677194105
1403636706613555456,39.138079,619.8691875580298,10.525804333333332,-0.1552719583333333,-4.633642125,0.0460766922526503,0.0062831853071795,0.1228711793404008,5.473532998415441,11.779432711346395,-0.5143222636333373
1403636706863555584,50.40288,598.2537127268256,10.215260416666666,0.24516625,-5.418174124999999,-0.0586430628670094,-0.0565486677646162,0.1165879940332212,10.10207001111632,11.931836300916029,-0.022557548019676688
1403636707113555456,49.377679,580.371603328593,7.583809333333333,-0.0081722083333333,-4.290409374999999,-0.0747000919853573,0.1577777643802873,0.1026253600172665,15.370133317566012,11.405871643918458,-0.028179204428770532
1403636707363555584,50.037384,648.8710640810073,11.03248125,0.0898942916666666,-3.178989041666666,-0.0446804288510548,0.036302848441482,0.0907571211037051,17.324738380323463,11.92973085335839,0.08614054537630267
1403636707613555456,39.664983,560.3310904133054,9.210078791666666,-0.6047434166666666,-2.8766173333333334,-0.0027925268031909,-0.1054178868204575,0.1891936909161853,23.14347148825885,12.608770031723356,0.07585713126698757
1403636707863555584,48.700333,576.1263211212841,6.505077833333333,0.9234595416666666,-2.3372515833333334,0.0425860337486616,0.1054178868204575,0.0774926187885482,21.521702921257866,12.748818262957629,0.060738694365383594
1403636708113555456,49.721479,559.7483240488117,8.409202375,0.4576436666666666,-2.2473572916666664,0.0321140582366956,0.171740398396242,-0.1019272283164688,14.129085378489004,13.440966001019047,0.2305659118067691
1403636708363555584,38.658142,478.5983021818489,8.7279185,0.024516625,-3.2035056666666666,0.1333431548523667,0.0740019602845595,0.3860668305411457,9.797361417360191,14.376133439305258,0.2588435651428309
1403636708613555456,49.413681,480.5971270899543,10.019127416666668,0.4004382083333333,-2.4108014583333333,-0.1305506280491758,-0.0223402144255274,-0.1843067690106012,9.433503054252995,12.225570168850911,-2.444996306552257
1403636708863555584,49.993992,543.3273084090756,9.7085835,-0.0817220833333333,-3.2035056666666666,-0.122173047639603,0.1277581012459849,-0.0062831853071795,5.50171689355709,12.819648010218057,0.021540935291366026
1403636709113555456,60.371161,609.7308976535306,9.921060916666669,1.184970208333333,-4.404820291666666,-0.0740019602845595,-0.0013962634015954,0.0635299847725936,5.84836585089051,12.37893914960012,0.006955977964274496
1403636709363555584,59.625626,585.9303130403244,7.681875833333333,0.1062387083333333,-2.9583394166666666,-0.0146607657167523,-0.0349065850398865,0.0356047167406843,10.290263626192834,12.413559081289915,-0.03310002427245351
1403636709613555456,39.951563,612.952545818081,9.357178541666666,0.7681875833333334,-2.7622064166666664,-0.0139626340159546,0.0118682389135614,0.0411897703470661,12.249129194872797,11.779399461546697,-0.09265025096498292
1403636709863555584,39.623499,582.8178432617601,9.741272333333333,0.7191543333333333,-3.92266,0.0558505360638185,-0.0055850536063818,0.1061160185212552,13.968823199396956,11.765582514696499,-0.08132678665948312
1403636710113555456,48.78211,573.8160987182742,9.340834125,0.3023717083333333,-3.2443667083333327,0.0816814089933346,0.0872664625997164,0.0418879020478639,18.289878712963507,11.412937127480424,-0.0399116735179863
1403636710363555584,38.726568,385.6458592276389,9.487933875,0.4576436666666666,-3.857282333333333,0.2213077491528809,0.0949459113084915,0.3602359576116296,20.660114715441516,10.937481150948402,-0.09531163170182211
1403636710613555456,40.163517,437.1700862274623,9.128356708333332,0.5066769166666666,-3.064578125,0.2729694950119131,0.0027925268031909,0.1130973355292325,20.754092670101286,10.425446108120088,-0.1707831095787533
1403636710863555584,50.106287,408.9962821346752,9.308145291666667,-0.3023717083333333,-3.08909475,0.257610597594363,-0.0223402144255274,-0.2520255439879811,17.29050278802825,12.357143600826708,-0.17460776166378444
1403636711113555456,38.923979,534.4888980244758,9.438900625,-0.5230213333333333,-2.9174783749999995,0.1500983156715123,0.0837758040957278,-0.1158898623324234,13.764666115440031,12.648826203235423,0.029803112220733396
1403636711363555584,60.403824,500.48070232332446,9.65955025,0.3595771666666666,-4.56009225,0.0411897703470661,0.1773254520026238,0.210835773640915,14.53398085559423,12.528571413788608,-0.10934037792086038
1403636711613555456,50.005913,677.8558616023336,8.613507583333332,0.5311935416666667,-2.50069575,-0.0565486677646162,0.1396263401595463,-0.0083775804095727,16.89374054933505,12.308635225673656,-0.024646591002641216
1403636711863555584,60.862303,530.8254159622495,10.313326916666666,0.73549875,-4.404820291666666,0.046774823953448,-0.1305506280491758,0.3022910264454179,19.45280700689741,10.979925962710038,-0.1485802269940102
1403636712113555456,50.139666,577.4700066488133,9.242767625,-0.24516625,-3.317916583333333,0.0167551608191455,-0.0202458193231342,0.2017600615305445,19.604052991186453,9.880902692916832,-0.14682209453727424
1403636712363555584,54.803371,497.5528753640006,8.760607333333333,0.1552719583333333,-2.01036325,0.2666863097047335,0.0509636141582344,-0.1996656664281513,18.936622068445004,9.404505078361803,-0.013917223902266684
1403636712613555456,61.300755,381.2551417825404,8.5317855,1.201314625,-2.950167208333333,0.2254965393576673,0.1570796326794896,0.1473057888683213,20.30348408536033,8.939233810281511,-0.07488657669104626
1403636712863555584,60.984135,615.249711704779,8.703401874999999,0.171616375,-3.685665958333333,0.0223402144255274,-0.0719075651821663,0.1110029404268393,19.521095345931904,8.269378585326145,-0.16403775680071675
1403636713113555456,42.231321,586.5584542903016,9.218251,-0.1552719583333333,-3.342433208333333,0.0139626340159546,-0.0069813170079773,0.1110029404268393,18.57460087684032,7.80174056427496,-0.13255250997131096
1403636713363555584,50.762653,662.2559956429399,11.007964625,0.34323275,-2.745862,-0.0195476876223364,-0.1061160185212552,0.2017600615305445,18.46535719310666,7.920014140973974,-0.06706024375454689
1403636713613555456,38.558006,660.2765404163855,6.872827208333333,0.2043052083333333,-2.190151833333333,-0.007679448708775,-0.0726056968829641,0.1710422666954443,18.69124587895167,7.568388810620151,-0.103317881022857
1403636713863555584,49.746513,687.813389561376,9.716755708333332,0.220649625,-2.982856041666666,-0.0691150383789754,0.0069813170079773,0.0460766922526503,14.94239661966289,7.203052226612508,-0.061289284335792615
1403636714113555456,61.430931,662.6713165858528,9.218251,-0.24516625,-3.097266958333333,-0.0495673507566389,-0.0537561409614253,0.0006981317007977,10.259666328991381,7.832957338452591,-0.05311814100772594
1403636714363555584,46.763182,673.8614608677536,10.599354208333333,0.6047434166666666,-3.849110125,-0.0216420827247296,-0.0516617458590321,0.1410226035611418,9.454611480788959,7.544842673281274,-0.13679279611965978
1403636714613555456,49.368381,533.3335141513575,7.910697666666666,0.83356525,-2.20649625,0.2129301687433081,-0.1584758960810851,-0.046774823953448,10.789797073234778,7.493731242483522,0.003797829515378659
1403636714863555584,39.78467,482.6709641470448,10.828176041666667,0.4903325,-4.519231208333333,0.4565781323217166,0.0530580092606276,-0.1947787445225671,8.642184105522164,8.05641585503031,0.053798216676360866
1403636715113555456,48.162461,586.2038924827132,10.019127416666668,0.367749375,-3.195333458333333,0.3036872898470133,0.0167551608191455,-0.1284562329467826,6.078968278848727,8.423889650884025,0.04894962736596753
1403636715363555584,42.808294,599.2095148862477,7.976075333333333,-0.1879607916666666,-2.3209071666666663,0.1103048087260416,0.0991347015132779,0.0607374579694026,8.088318631061501,8.661716834664276,-0.01442662853816934
1403636715613555456,49.411535,719.6542468595122,9.586000375,0.24516625,-2.909306166666666,0.0167551608191455,0.0628318530717958,0.15079644737231,6.525901817670715,8.558395890754067,-0.0007880769463000092
1403636715863555584,47.240257,624.8083910392016,11.898735333333333,-0.9152873333333332,-4.429336916666666,-0.064926248174189,0.1877974275145898,0.0432841654494593,4.717825954858776,8.541271224714738,0.08405735859514607
1403636716113555456,50.199509,627.1634618840301,8.67888525,0.04903325,-3.1299557916666663,-0.0530580092606276,-0.1082104136236484,0.182212373908208,2.0249640259239623,8.678742696998908,0.017142158004249453
1403636716363555584,49.71075,697.3468991622515,9.283628666666663,0.5720545833333333,-4.26589275,-0.0747000919853573,-0.036302848441482,0.0949459113084915,1.1659656967815286,8.77813044478479,-0.00784036668404653
1403636716613555456,50.078392,784.9244620386856,8.196724958333332,0.2288218333333333,-2.680484333333333,0.0432841654494593,0.0209439510239319,0.0069813170079773,5.255825918560654,9.039594332732664,0.13524221399470804
1403636716863555584,49.962759,613.2573137590538,9.724927916666667,1.3075533333333331,-3.18716125,0.289026524130261,-0.0307177948351002,-0.0551524043630208,9.58394729391379,9.481369359797213,0.09180951447173236
1403636717113555456,50.532103,578.3174632133014,10.002783,0.2615106666666666,-3.113611375,0.4677482395344803,0.0125663706143591,-0.1061160185212552,7.58047600175612,10.200319840858482,0.13843113381055971
1403636717363555584,39.561987,649.2770692621758,9.831166624999998,-0.44129925,-4.233203916666667,0.0488692190558412,0.0006981317007977,-0.293913446035845,6.282346809774053,11.947227274853212,0.15651224976032374
1403636717613555456,60.015917,724.7376124655568,6.006573125,-0.6946377083333333,-3.1299557916666663,0.0279252680319092,0.0795870138909414,0.1996656664281513,7.492870184782949,12.317157577263652,0.062101728337784934
1403636717863555584,49.927712,617.7515791222177,11.351197375,-1.1195925416666666,-4.0125542916666666,0.1305506280491758,0.0139626340159546,-0.0733038285837618,13.122395759513294,12.14948656615795,0.021178103456300335
1403636718113555456,49.467564,437.67160015936827,9.308145291666667,0.4331270416666666,-3.268883333333333,0.4342379178961891,0.0886627260013119,0.0781907504893459,16.40404195541374,12.535202381167505,0.13151538078476044
1403636718363555584,41.59069,468.2346079939724,9.978266375,-0.5802267916666666,-3.7837324583333327,0.3344050846821135,0.0293215314335047,0.0747000919853573,20.563160249550492,11.415552638962282,0.017986889119919525
1403636718613555456,50.302744,448.7058197816236,9.373522958333332,-0.63743225,-2.181979625,0.2562143341927675,0.0342084533390888,0.1277581012459849,24.658764795423576,11.532732069951043,0.02648861612145126
1403636718863555584,47.11175,687.3807990230392,10.501287708333331,0.8825985,-2.8847895416666667,0.0335103216382911,0.0760963553869527,-0.124965574442794,24.5059005359438,11.807658543834325,0.07414732797032997
1403636719113555456,59.927701,711.6486264155205,11.343025166666669,0.0898942916666666,-2.353596,-0.025830872929516,0.1298524963483781,0.0593411945678072,20.23976745139879,12.44258872985677,-0.026838038246983942
1403636719363555584,57.379007,707.5581656642853,9.430728416666666,0.0980665,-4.143309625,-0.0265290046303138,0.0733038285837618,0.1110029404268393,19.088997861434784,12.631445598779791,0.006485352387480603
1403636719613555456,62.409877,423.533444322078,8.556302125,0.2288218333333333,-2.459834708333333,-0.1165879940332212,-0.0328121899374933,0.0474729556542457,19.756188395325925,12.993939505236938,0.4154065917969909
1403636719863555584,49.106359,729.799865442601,8.28661925,0.83356525,-2.8602729166666667,-0.0642281164733913,0.0705113017805709,0.0851720674973232,17.30186156345607,13.329994136405476,0.05379453077738461
1403636720113555456,49.290895,742.5955761338605,8.572646541666666,1.0215260416666667,-3.1299557916666663,-0.0272271363311115,0.0767944870877505,0.0342084533390888,14.645652534321805,13.87025716419389,0.1354655587211795
1403636720363555584,50.646782,721.2108013901509,9.594172583333334,0.0653776666666666,-3.57942725,0.0272271363311115,0.0251327412287183,0.1165879940332212,14.594419114413833,13.518038606328398,0.2903127128393077
1403636720613555456,49.274921,649.6851495656665,8.515441083333332,0.3023717083333333,-3.5957716666666664,-0.0453785605518525,-0.08307767239493,0.018151424220741,13.611509191689407,14.049623663452387,0.028990006723514483
