stamp,img_delta,blur,lin_acc.x,lin_acc.y,lin_acc.z,ang_vel.x,ang_vel.y,ang_vel.z,rpe,ate,drift
1403636581113555456,44.092179,317.62326531878347,8.213069375,0.0898942916666666,-2.827584083333333,-0.0397935069454707,0.2981022362406315,0.2038544566329376,2.6090703688190198,2.609070368819009,0.404298742403983
1403636581363555584,60.877085,706.9276681740287,5.810440125,-0.0653776666666666,-1.6834749166666665,-0.0928515162060983,0.0293215314335047,-0.0209439510239319,1.186053276720054,3.699448471412651,-0.10394146219148759
1403636581613555456,44.479609,403.1741312812884,7.9433865,0.0408610416666666,-2.378112625,0.0747000919853573,-0.2268928027592628,0.093549647906896,0.9870700629977129,3.103335801720706,-0.010689471045167043
1403636581863555584,50.074101,373.80182120812896,9.128356708333332,-0.392266,-3.415983083333333,-0.028623399732707,-0.0837758040957278,0.0823795406941323,0.48359253801861574,3.0958284618349636,0.04422429061435551
1403636582113555456,50.046444,256.7156031591092,11.024309041666667,-0.44129925,-4.95235825,0.0139626340159546,-0.3204424506661589,0.0111701072127637,1.0875916727612482,2.326260978599666,-0.15481502525547342
1403636582363555584,53.645372,279.69500766314184,10.419565625,0.0735498749999999,-4.748053041666666,-0.0097738438111682,0.3134611336581816,0.0600393262686049,0.8647410936487332,2.3743834574843325,0.07975126635648966
1403636582613555456,55.294037,370.36355367321767,9.381695166666669,-0.1552719583333333,-3.7919046666666665,-0.132645023151569,0.1270599695451872,-0.0020943951023931,0.5437036412726322,2.3578910349359736,-0.05207695251390998
1403636582863555584,50.086022,291.991663156984,7.878008833333333,-0.3268883333333333,-3.554910625,-0.1591740277818828,0.3169517921621702,0.200363798128949,0.19669884567706242,2.4857151204175096,0.11886865084386677
1403636583113555456,44.164896,860.8256963254792,6.1209840416666665,0.04903325,-1.5608917916666667,-0.0851720674973232,0.0760963553869527,-0.0069813170079773,0.3414846576307734,2.7981646254751134,0.07155956944541808
1403636583363555584,44.081211,437.2350852445632,7.861664416666666,-0.0653776666666666,-2.6477955,-0.0111701072127637,-0.0802851455917391,0.0104719755119659,0.4590625943892687,2.6931315100462685,-0.033229738687890364
1403636583613555456,39.632797,319.8223207004329,9.161045541666669,0.196133,-3.563082833333333,-0.1584758960810851,-0.228987197861656,-0.0719075651821663,0.653453360593219,2.774037722542325,0.021710676447793897
1403636583863555584,45.168638,257.31447149648693,9.880199875,0.1307553333333333,-4.731708625,-0.0251327412287183,-0.2478367537831947,0.0733038285837618,1.148473883242041,2.230572003781378,-0.10606789797096594
1403636584113555456,43.682337,528.9564609990666,11.596363625,0.0980665,-4.895152791666666,0.0963421747100869,0.0195476876223364,0.0998328332140756,0.3826453620247183,1.9063755608378887,-0.08270464236831554
1403636584363555584,39.397478,338.7114125333576,10.476771083333333,0.4494714583333333,-4.225031708333333,-0.08307767239493,0.0809832772925368,-0.0677187749773799,1.0390844269716835,2.0683831990090864,0.08052359916533791
1403636584613555456,55.080652,257.7938147700252,8.401030166666667,0.024516625,-3.8409379166666655,-0.1417207352619395,0.3923500158483253,0.1584758960810851,0.6646916870363858,2.366668837252735,0.09516787405472193
1403636584863555584,44.300556,460.5136350139532,7.346815291666666,0.220649625,-2.557901208333333,-0.0272271363311115,0.2715732316103177,0.1850049007113989,0.8950294628981568,2.767759931678374,0.08111497771756282
1403636585113555456,49.656153,810.3935523761095,6.652177583333333,0.2288218333333333,-2.0267076666666664,0.0153588974175501,-0.0760963553869527,0.1110029404268393,0.6688875704711786,2.8871089167818185,0.019630647281513536
1403636585363555584,49.831629,439.73543734926784,9.586000375,0.0163444166666666,-3.4486719166666666,-0.0027925268031909,-0.132645023151569,-0.0383972435438752,0.10683064098154782,2.8239089326972744,0.0012953021657362562
1403636585613555456,61.181545,322.8867570930013,10.419565625,-0.122583125,-4.797086291666667,0.2638937829015426,-0.2429498318776106,0.1459095254667259,0.7594946401860665,2.0437332877498697,-0.18489937264255385
1403636585863555584,50.305605,369.899934685107,10.043644041666663,-0.269682875,-4.404820291666666,0.143116998663535,-0.3581415625092364,0.1850049007113989,0.9755966084440124,1.5844384669544145,0.014860984244757347
1403636586113555456,54.945707,405.4361015348146,8.294791458333332,-0.4086104166666666,-5.410001916666666,-0.2017600615305445,-0.3455751918948772,0.1891936909161853,0.9932405154062702,1.8640695828360507,0.07977486630207564
1403636586363555584,59.718609,312.6568976799208,7.126165666666666,-0.0817220833333333,-6.145500666666667,-0.018151424220741,-0.3937462792499207,0.2247984076568696,1.0085617409657541,2.476691750057352,0.11092422479018849
1403636586613555456,50.062179,870.1512930487958,7.820803375,-0.0326888333333333,-5.93302325,0.0509636141582344,-0.0984365698124801,0.1054178868204575,0.7589287634008752,2.7940563967970005,0.031196983088316532
1403636586863555584,39.34598,767.0270325810396,7.142510083333334,-1.12776475,-6.129156249999999,0.0530580092606276,0.1570796326794896,0.0230383461263251,1.1586191368037668,2.8425998556363896,-0.008720835606626398
1403636587113555456,55.088043,890.1768316164939,7.240576583333333,0.1389275416666666,-6.080123,0.0237364778271228,-0.0774926187885482,0.0188495559215387,0.33839101990675086,2.801786921575011,0.0016751692029615128
1403636587363555584,49.941301,526.9613084370557,7.469398416666666,0.2043052083333333,-6.366150291666666,-0.0370009801422797,-0.0020943951023931,0.1445132620651305,0.44026856255019625,2.8818930377242054,0.01936942819080345
1403636587613555456,39.260149,344.7407769547826,7.649186999999999,0.04903325,-6.71755525,-0.0795870138909414,0.0516617458590321,0.143116998663535,0.4108240480967442,2.843904354351797,-0.006665148575414559
1403636587863555584,49.581289,338.7355826577008,6.938204874999999,-0.6456044583333332,-6.03108975,-0.1158898623324234,0.0404916386462684,0.200363798128949,0.3663902364458067,2.781910668798382,-0.005027279791927963
1403636588113555456,38.34939,350.96324183898315,7.216059958333333,-0.7927042083333332,-6.725727458333332,-0.0265290046303138,-0.0970403064108847,0.1005309649148733,0.543674394400338,2.8207151987318086,0.03438234035413146
1403636588363555584,50.017357,589.3927631649217,7.175198916666666,-1.3157255416666664,-6.856482791666667,0.0677187749773799,0.0977384381116824,0.1172861257340189,0.4571000636258064,2.823281482386029,-0.03713185133169805
1403636588613555456,54.361344,396.8798993264992,7.346815291666666,-1.22583125,-6.799277333333333,0.018151424220741,0.0342084533390888,0.0991347015132779,0.8343110463838436,2.2739508250916662,-0.04705348709015755
1403636588863555584,60.079575,285.3374380638223,7.093476833333334,-0.83356525,-6.791105125,0.0907571211037051,0.0307177948351002,0.0244346095279206,0.9708403739360095,2.1711029930069845,-0.00525461547078665
1403636589113555456,45.055628,305.4602198458944,7.461226208333334,-0.83356525,-6.390666916666666,0.1186823891356144,0.124965574442794,0.0048869219055841,1.017141745553645,2.4928120551070707,0.03910537120808488
1403636589363555584,50.179005,308.9838426426469,7.657359208333333,-0.2533384583333333,-6.145500666666667,0.0851720674973232,-0.075398223686155,0.0125663706143591,0.9048080254317722,2.985059452266643,0.07840672199149656
1403636589613555456,60.462713,370.2648209594816,7.232404375,-0.2941994999999999,-6.382494708333334,0.0439822971502571,0.0691150383789754,0.0418879020478639,0.6342434062191775,3.26060302555269,0.013169827588031868
1403636589863555584,50.134182,332.82971180457787,7.542948291666666,0.1879607916666666,-6.22722275,0.1382300767579508,-0.1277581012459849,-0.0013962634015954,0.37018915230871946,3.482987648941121,0.016604517393991713
1403636590113555456,49.853087,564.3401527308923,7.878008833333333,0.2778550833333333,-6.472389,0.1179842574348166,0.1661553447898601,0.0579449311662117,0.7972824191711464,2.967290808531373,-0.1679607950980242
1403636590363555584,49.32189,659.4345540438189,7.428537374999999,0.465815875,-6.415183541666666,-0.1193805208364121,0.0048869219055841,0.0872664625997164,0.28855021975442413,2.738661290935479,-0.04559105804635122
1403636590613555456,40.327549,390.7587933510095,7.338643083333332,0.0980665,-5.93302325,-0.1235693110411985,0.0809832772925368,0.1130973355292325,0.6803389336247625,2.2756511328042137,-0.10489204322890178
1403636590863555584,60.407876,388.8183998998678,7.444881791666666,-0.1144109166666666,-6.300772625,-0.0677187749773799,-0.0656243798749867,0.1284562329467826,0.6326874753067816,1.946426803553642,-0.06385391172440968
1403636591113555456,50.297499,388.62695387359486,7.305954249999999,-0.8172208333333333,-6.333461458333334,0.0390953752446729,0.0376991118430775,0.114493598930828,0.741199757785248,1.6224711431932899,-0.018170110363245895
1403636591363555584,43.767691,388.4021559534647,7.044443583333333,-1.454653083333333,-6.357978083333332,-0.0970403064108847,-0.0279252680319092,0.1263618378443894,0.5366360986512854,1.5091176111985487,-0.026238992816728146
1403636591613555456,60.528993,310.56946360292443,7.256920999999999,-0.9970094166666666,-6.5704555,-0.2275909344600605,0.4118977034706618,0.1347394182539622,0.8141010654225154,1.521997878377689,0.03518205688580389
1403636591863555584,36.091089,362.8029241112304,8.18855275,0.04903325,-5.483551791666667,-0.1815142422074102,0.3518583772020568,0.1396263401595463,1.058964741954002,2.1571391894641803,0.17589943568308097
1403636592113555456,57.081699,432.52583823069,8.106830666666665,-0.4739880833333333,-5.222041125,-0.1815142422074102,-0.15079644737231,0.2261946710584651,0.6783334998857227,2.7962392977013577,0.0905058334391402
1403636592363555584,49.610138,451.9098552968455,7.853492208333332,-0.9479761666666666,-5.990228708333333,0.0984365698124801,-0.124965574442794,0.1165879940332212,0.229114296284643,2.7999726894819625,-0.03414668561906753
1403636592613555456,59.966326,242.54819918149215,7.559292708333333,-1.4464808749999998,-6.014745333333333,0.3197443189653611,0.1514945790731078,-0.1731366617978375,0.3560618298972063,2.573897213231079,-0.04619197815315301
1403636592863555584,61.14626,208.03481229179707,6.954549291666666,-1.454653083333333,-7.0689602083333325,0.5110324049839398,-0.1193805208364121,-0.1912880860185785,0.24445292098066376,2.3907125805087666,-0.12082296735310738
1403636593113555456,53.860426,188.1184424501612,6.782932916666666,-1.5363751666666667,-7.322298666666667,0.5305800926062761,-0.0767944870877505,-0.1689478715930511,1.283636338537269,1.436309133482859,-0.20044150487486045
1403636593363555584,50.295353,301.35237041451325,6.774760708333333,0.1062387083333333,-6.456044583333333,0.1228711793404008,-0.0886627260013119,-0.0195476876223364,0.76920073208323,1.2154199153537428,-0.021772704056866266
1403636593613555456,49.930573,381.9249423371964,7.583809333333333,0.1797885833333333,-6.088295208333333,-0.2359685148696333,-0.1172861257340189,0.3106686068549906,0.13328999457711588,1.1008352010224711,-0.0020023590985582818
1403636593863555584,41.407109,226.46490368544283,7.984247541666667,-0.2860272916666666,-6.137328458333333,-0.6695083010650248,0.1919862177193762,0.5082398781807488,0.8450610170737701,1.5046755753252687,0.12384921810928229
1403636594113555456,39.304256,196.80202328972592,8.351996916666666,-0.8662540833333333,-4.527403416666666,-0.6590363255530588,0.1361356816555577,0.4796164784480418,1.1064979193798625,2.281940874232476,0.2523769614906528
1403636594363555584,43.691158,197.76315076582503,8.433719,-1.2176590416666666,-5.140319041666666,-0.3406882699892931,0.0747000919853573,0.0977384381116824,0.7774536711491211,2.5817423884534665,-0.03193076744378187
1403636594613555456,44.365883,249.95608592235095,7.338643083333332,-2.533384583333333,-6.464216791666666,0.0530580092606276,0.1996656664281513,0.0991347015132779,1.133784775307028,3.4800859395150785,0.22718001686996692
1403636594863555584,39.211035,233.95213571531863,7.1588545,-2.909306166666666,-6.742071875,0.4447098934081551,0.0942477796076938,-0.2282890661608583,0.5798250569276453,3.8567463863403164,0.09363517663303211
1403636595113555456,49.934625,181.2862434067848,7.50208725,-0.4821602916666666,-6.5704555,0.7302457590344275,-0.1019272283164688,-0.2820452071222836,0.4961799960940016,4.098260674231099,0.029337699047435883
1403636595363555584,42.762995,239.5373666763288,7.428537374999999,1.6017528333333333,-6.586799916666666,0.3637266161156182,-0.0740019602845595,-0.104021623418862,1.1569754308322986,4.788950603197922,0.20007614003636398
1403636595613555456,49.680471,496.8529559920143,7.436709583333332,1.454653083333333,-6.047434166666666,-0.0851720674973232,-0.0781907504893459,0.0872664625997164,0.23705742303927915,4.977883581571463,-0.08362894945188604
1403636595863555584,59.607029,235.68365097033623,7.673703624999999,-0.7518431666666666,-5.93302325,-0.6387905062299246,0.0216420827247296,0.374896723328382,0.4258818442635635,4.578167795756022,0.10476370899563214
1403636596113555456,39.410829,264.3136151163572,7.779942333333333,-3.138128,-6.333461458333334,-0.4342379178961891,-0.0600393262686049,0.3637266161156182,0.3307583859489852,4.198714612234928,-0.1231592818019589
1403636596363555584,49.242497,364.1367602940621,7.583809333333333,-0.83356525,-6.063778583333333,-0.0328121899374933,0.1354375499547599,0.0132645023151569,0.19286795031164145,4.238044616205261,0.1353212502483343
1403636596613555456,50.617933,411.1805374626043,7.886181041666666,0.809048625,-4.184170666666667,0.0195476876223364,-0.0342084533390888,0.0474729556542457,0.5559335645307606,4.762811093033965,0.1422526211614885
1403636596863555584,49.96562,473.1290245428854,9.07115125,0.8499096666666667,-3.8164212916666655,-0.0321140582366956,0.1528908424747032,-0.0816814089933346,0.37944387016547393,5.10540928516941,0.03746131552883192
1403636597113555456,49.505234,364.5043300787804,8.523613291666665,0.1062387083333333,-5.311935416666666,0.1473057888683213,-0.208043246837724,0.1110029404268393,0.6739444849528848,5.677457032107895,0.08534764242212045
1403636597363555584,57.192564,259.2754003847229,7.273265416666667,-0.9152873333333332,-6.42335575,0.2624975194999471,0.0998328332140756,-0.1731366617978375,0.32365373316336005,5.522974584123525,-0.15173767336533572
1403636597613555456,50.012589,362.54417413465467,6.153672874999999,-1.52003075,-7.50208725,0.5012585611727715,0.1968731396249603,-0.0237364778271228,0.9055781946692117,4.655589344525173,-0.14055986685738997
1403636597863555584,60.730457,345.7785576715561,7.10982125,0.0326888333333333,-6.586799916666666,0.1500983156715123,0.0537561409614253,-0.1068141502220529,0.5544018631685012,4.1736387452896375,0.007486728456406411
1403636598113555456,49.85547,270.30458114010776,7.878008833333333,0.4739880833333333,-5.4998962083333325,0.0342084533390888,-0.2436479635784084,0.0900589894029074,0.6262281440882372,4.347853113762943,0.11818390257834288
1403636598363555584,42.971373,367.3427858071734,8.817812791666666,0.5066769166666666,-4.682675375,-0.1668534764906579,-0.0397935069454707,0.0921533845053006,0.5035680431103005,4.6825017667149345,0.05005745090546032
1403636598613555456,49.716473,325.1334613919664,8.5317855,-0.0653776666666666,-5.352796458333333,0.1389282084587486,0.325329372571743,0.0453785605518525,0.46190956165727715,5.16528120403133,0.10467819229637243
1403636598863555584,39.525032,284.0942667915771,7.461226208333334,-0.44129925,-5.271074375,0.104021623418862,0.5249950389998943,0.1151917306316257,0.5258409009318931,5.54662234074179,0.02116164015951849
1403636599113555456,53.071499,303.76073126987905,9.504278291666663,-0.5883989999999999,-5.009563708333333,0.1514945790731078,0.4593706591249075,0.0998328332140756,0.3309612164839221,5.853031080474609,0.025660325673678486
1403636599363555584,50.90332,432.70267836642535,9.005773583333333,-0.44129925,-3.211677875,-0.0851720674973232,0.3469714552964727,0.046774823953448,0.19639081356229515,5.962506090119386,0.03270851980250189
1403636599613555456,39.252996,412.30244176279496,9.381695166666669,-0.1552719583333333,-3.18716125,-0.0865683308989187,-0.1137954672300302,0.1200786525372098,0.13037651888223287,6.1077919334641155,-0.0009053418419382453
1403636599863555584,59.617043,480.7781277774819,9.863855458333331,-0.6456044583333332,-1.871435708333333,-0.018151424220741,0.0747000919853573,0.1549852375770964,0.15095543687568017,6.23542618420826,0.04374080432453642
1403636600113555456,47.590733,605.2497718337867,6.733899666666666,-0.2124774166666666,-1.4056198333333334,0.0272271363311115,0.1312487597499735,0.2673844414055313,0.09487583258986174,6.292252626788154,-0.007615348559668611
1403636600363555584,62.081814,635.5850970206319,9.46341725,-0.269682875,-2.6477955,0.0048869219055841,0.0174532925199432,0.0809832772925368,0.08856485166498593,6.311820586913211,-0.0050789620666575885
1403636600613555456,51.766634,637.9074354469567,9.814822208333332,-0.5720545833333333,-2.852100708333333,0.0279252680319092,0.028623399732707,0.122173047639603,0.040523173421670264,6.296147923935287,0.00046174024278489156
1403636600863555584,50.263882,642.9933418653533,9.398039583333333,-0.2778550833333333,-2.4680069166666665,-0.0069813170079773,0.0132645023151569,0.0684169066781777,0.03041371260744708,6.273252727507485,-0.001650159778805893
1403636601113555456,50.299406,647.3219609081799,9.389867375,-0.661948875,-2.6151066666666667,-0.0090757121103705,0.0202458193231342,0.0684169066781777,0.02392833611411858,6.2562518736482815,-0.007289149387168514
1403636601363555584,50.305844,646.053478360667,9.536967125,-0.5230213333333333,-2.606934458333333,0.0,0.0216420827247296,0.1033234917180643,0.02156022150467582,6.239250075434445,-0.007820701266177288
1403636601613555456,39.236308,646.7195873485492,9.299973083333333,-0.416782625,-2.476179125,-0.0069813170079773,0.0167551608191455,0.0663225115757845,0.0634637121156519,6.195070881140427,-0.0069296992795244705
1403636601863555584,50.023317,646.8871149051884,9.438900625,-0.5475379583333333,-2.655967708333333,-0.0041887902047863,0.0209439510239319,0.0781907504893459,0.028828503933848504,6.1861852696186626,-0.002050953013590373
1403636602113555456,42.627573,646.1450543024697,9.414383999999998,-0.3840937916666667,-2.6151066666666667,-0.0055850536063818,0.0202458193231342,0.0802851455917391,0.025304391381535687,6.164431805692117,-0.003700833399080672
1403636602363555584,49.657107,646.1289143504133,9.430728416666666,-0.5557101666666666,-2.50069575,-0.0090757121103705,0.0223402144255274,0.0698131700797731,0.017938397768732413,6.147605059519852,0.001862374103473563
1403636602613555456,60.03356,647.1498015115906,9.430728416666666,-0.5311935416666667,-2.574245625,-0.0062831853071795,0.0216420827247296,0.0795870138909414,0.014114494685847037,6.151614327112777,-0.0001479623024263077
1403636602863555584,50.236464,647.5051093574333,9.414383999999998,-0.4494714583333333,-2.582417833333333,-0.0041887902047863,0.0195476876223364,0.0767944870877505,0.013142555785617297,6.151326032382576,0.0028997585010834825
1403636603113555456,49.880505,646.7008756337268,9.373522958333332,-0.5475379583333333,-2.574245625,-0.0062831853071795,0.0216420827247296,0.0760963553869527,0.010907880729201045,6.141582557378496,-0.005563873579214729
1403636603363555584,50.433636,646.360193502874,9.496106083333332,-0.5230213333333333,-2.582417833333333,-0.0041887902047863,0.0251327412287183,0.0837758040957278,0.013122219877894685,6.135032275271288,-0.005085819256134272
1403636603613555456,57.628632,648.3576150061787,9.455245041666666,-0.5148491249999999,-2.606934458333333,-0.0013962634015954,0.0202458193231342,0.0767944870877505,0.017910098817970305,6.117196182232507,0.0004665101718019926
1403636603863555584,50.714492,646.915242894617,9.414383999999998,-0.5883989999999999,-2.623278875,-0.0055850536063818,0.0272271363311115,0.0802851455917391,0.014237752251880505,6.125191533429995,0.0021421616326326998
1403636604113555456,59.194803,645.6421814164398,9.496106083333332,-0.5475379583333333,-2.557901208333333,-0.0041887902047863,0.0209439510239319,0.0670206432765822,0.012150397869502703,6.122648307746048,-0.0015790175969661036
1403636604363555584,43.461323,645.2598010343859,9.389867375,-0.5230213333333333,-2.533384583333333,-0.0090757121103705,0.0223402144255274,0.0733038285837618,0.01479659413954363,6.112214791086585,-0.0017547490879108452
1403636604613555456,39.871693,644.7173402133016,9.479761666666668,-0.5148491249999999,-2.59876225,-0.0034906585039886,0.0188495559215387,0.0809832772925368,0.012413973669730237,6.099885486540522,-0.004481809018883176
1403636604863555584,53.574324,643.6379015002237,9.389867375,-0.5066769166666666,-2.606934458333333,-0.0041887902047863,0.0153588974175501,0.0781907504893459,0.011091291042362042,6.094963901783591,0.00017941263486598302
1403636605113555456,42.938947,643.5980611290544,9.406211791666664,-0.6047434166666666,-2.606934458333333,-0.0027925268031909,0.0223402144255274,0.0788888821901436,0.015808510647603045,6.106579393730943,-0.001610927571680243
1403636605363555584,57.163954,644.2739064754318,9.471589458333332,-0.5148491249999999,-2.5905900416666663,-0.0013962634015954,0.0230383461263251,0.0816814089933346,0.01818670481448808,6.0898472011373395,-0.004032459332038663
1403636605613555456,50.166845,643.7767113034637,9.455245041666666,-0.5475379583333333,-2.5905900416666663,-0.0048869219055841,0.0202458193231342,0.0767944870877505,0.01637638854615223,6.0869963312099316,0.0005575499465102496
1403636605863555584,49.718619,630.630856471793,9.545139333333331,-0.5883989999999999,-2.623278875,-0.0062831853071795,0.0188495559215387,0.0823795406941323,0.01426671175020005,6.092866976033414,0.00017424181091829638
1403636606113555456,51.013231,631.429999754613,9.447072833333332,-0.4985047083333333,-2.631451083333333,-0.0055850536063818,0.0237364778271228,0.0726056968829641,0.006051617506870579,6.097894010729865,0.0007874758386812175
1403636606363555584,62.800408,630.2166995329285,9.398039583333333,-0.5557101666666666,-2.582417833333333,-0.0020943951023931,0.0237364778271228,0.075398223686155,0.014489054644245786,6.098771082206637,-0.0018683866373967462
1403636606613555456,49.993992,631.3813882886302,9.447072833333332,-0.563882375,-2.5905900416666663,-0.0027925268031909,0.0202458193231342,0.0788888821901436,0.004561810083593139,6.1027068825491115,-0.004403257670380967
1403636606863555584,49.761772,631.4892573900339,9.357178541666666,-0.5475379583333333,-2.525212375,0.0,0.0146607657167523,0.0788888821901436,0.013257120180426213,6.096933489469024,-2.7828905428961548e-06
1403636607113555456,60.884475,631.1754463011141,9.447072833333332,-0.5148491249999999,-2.606934458333333,-0.0020943951023931,0.0272271363311115,0.0809832772925368,0.020323455775215986,6.082745644229597,-0.006556820623647042
1403636607363555584,41.246175,630.4896467477278,9.381695166666669,-0.5148491249999999,-2.574245625,-0.0020943951023931,0.0216420827247296,0.0788888821901436,0.03560457204699311,6.051365850790049,-0.007074796434330288
1403636607613555456,40.314674,631.2472539058264,9.398039583333333,-0.5148491249999999,-2.582417833333333,-0.0069813170079773,0.0230383461263251,0.0823795406941323,0.024705290359138838,6.033215927398485,-0.0039471025608586174
1403636607863555584,50.205707,631.6851546205461,9.455245041666666,-0.5230213333333333,-2.5905900416666663,-0.0055850536063818,0.0195476876223364,0.0809832772925368,0.011827865412033586,6.041402412150131,0.0030040483912632254
1403636608113555456,50.363302,631.5836279574097,9.398039583333333,-0.53936575,-2.606934458333333,-0.0055850536063818,0.0195476876223364,0.0781907504893459,0.021691263711846948,6.0582785348666315,0.0016711324441684994
1403636608363555584,40.251017,631.2090435669135,9.36535075,-0.5148491249999999,-2.557901208333333,-0.0020943951023931,0.0209439510239319,0.0802851455917391,0.012707967636316512,6.067705536541301,-0.002001696164631639
1403636608613555456,61.070442,630.0969384635455,9.422556208333331,-0.5148491249999999,-2.606934458333333,-0.0055850536063818,0.0174532925199432,0.0809832772925368,0.021691116466961667,6.058660163251677,-0.0033088243573509146
1403636608863555584,43.076038,629.9793202749647,9.406211791666664,-0.5230213333333333,-2.606934458333333,-0.0006981317007977,0.0216420827247296,0.08307767239493,0.015788972432487752,6.044686050579553,-0.003837126941780511
1403636609113555456,49.700737,630.5074599825307,9.46341725,-0.4821602916666666,-2.631451083333333,-0.0041887902047863,0.0209439510239319,0.0802851455917391,0.019163685791295813,6.038644674648531,0.00027170276021504236
1403636609363555584,42.189837,630.840469441093,9.373522958333332,-0.5720545833333333,-2.5415567916666664,-0.0020943951023931,0.018151424220741,0.08307767239493,0.00879391612924259,6.04703964706256,0.0005595998164276139
1403636609613555456,49.926281,631.3104953097562,9.455245041666666,-0.5066769166666666,-2.6151066666666667,-0.0048869219055841,0.0209439510239319,0.0795870138909414,0.00912664445887911,6.054954569308345,-0.001212866613613528
1403636609863555584,36.423683,629.9418460263295,9.218251,-0.53936575,-2.7131731666666665,-0.0006981317007977,0.0223402144255274,0.0740019602845595,0.013589878069166148,6.062825713027804,0.0034843191559765785
1403636610113555456,49.599171,630.1586900901225,9.357178541666666,-0.4576436666666666,-2.59876225,-0.0013962634015954,0.0216420827247296,0.0767944870877505,0.016347431306213012,6.058392324018431,-0.0011861439236549032
1403636610363555584,50.14944,629.6005739901622,9.479761666666668,-0.4985047083333333,-2.508867958333333,-0.0097738438111682,0.025830872929516,0.0816814089933346,0.01931227385007108,6.04382699875489,-0.0004374738982866333
1403636610613555456,49.791336,626.4975819558994,9.389867375,-0.5066769166666666,-2.557901208333333,-0.0069813170079773,0.0223402144255274,0.0795870138909414,0.013566794887595207,6.041898370407035,0.003577812107385725
1403636610863555584,59.807539,618.2563995660582,9.316317499999998,-0.7109821249999999,-2.6151066666666667,-0.0097738438111682,0.0314159265358979,0.0635299847725936,0.06768949487087639,6.083920747209448,0.01072243161409947
1403636611113555456,42.265654,631.3669207168392,9.291800875,-0.5148491249999999,-2.7867230416666664,-0.0013962634015954,0.0216420827247296,0.0712094334813686,0.005543936963746317,6.088946891821487,-0.0046942823059321626
1403636611363555584,46.565056,523.8096379383771,8.057797416666666,-2.214668458333333,-2.0757409166666667,0.0383972435438752,-0.0418879020478639,0.0928515162060983,0.024586201328706047,6.09041080935428,0.00598391142455057
1403636611613555456,51.045894,605.5225640990408,11.024309041666667,-1.0378704583333334,-3.3015721666666664,-0.0530580092606276,-0.0356047167406843,-0.0523598775598298,0.06154497273134689,6.107313061993142,-0.0028905584990743804
1403636611863555584,49.820423,636.4154638559438,9.937405333333334,-0.7763597916666666,-2.190151833333333,-0.0020943951023931,0.0202458193231342,0.0907571211037051,0.03358375770089434,6.1030115862934,-0.0013202495148565419
1403636612113555456,47.050238,635.0306730662369,9.26728425,-0.3595771666666666,-2.525212375,0.0321140582366956,0.0034906585039886,0.1019272283164688,0.02791066743754357,6.097229343467131,-0.003119514166102455
1403636612363555584,48.587084,627.6951584736801,9.798477791666668,0.24516625,-2.754034208333333,0.0404916386462684,0.0307177948351002,0.1905899543177807,0.08574393097064031,6.075285579550822,0.002948454644345233
1403636612613555456,49.52383,637.0212592068499,9.414383999999998,-0.2043052083333333,-2.5415567916666664,0.0251327412287183,0.0160570291183478,0.1703441349946465,0.08340435578485944,6.076241035780235,-0.006878112314509188
1403636612863555584,49.405813,629.4161549240132,9.643205833333331,-0.4494714583333333,-2.6477955,-0.0335103216382911,0.0237364778271228,0.0104719755119659,0.026170174089168528,6.099765699086799,-0.0019231809847592984
1403636613113555456,38.064718,641.1881021722803,9.398039583333333,-0.9970094166666666,-2.508867958333333,0.018151424220741,0.0034906585039886,0.0879645943005142,0.04280766414846738,6.085284477396153,-0.004431350966840775
1403636613363555584,42.916298,640.0149321639336,9.5124505,-0.2043052083333333,-2.5415567916666664,0.007679448708775,0.0237364778271228,0.0942477796076938,0.01722359279116353,6.079088428416747,-0.0009813883254032874
1403636613613555456,59.841633,641.4843929912951,9.398039583333333,-0.4494714583333333,-2.549729,0.0048869219055841,0.0188495559215387,0.1089085453244461,0.025219461742178303,6.078902792556101,0.0033467810730645198
1403636613863555584,49.978972,638.7341850532198,9.438900625,-0.5311935416666667,-2.574245625,-0.0090757121103705,0.0160570291183478,0.0600393262686049,0.01356437352439722,6.069914568018351,-0.003784406726341061
1403636614113555456,42.956352,638.6450372086888,9.496106083333332,-0.4903325,-2.582417833333333,-0.0069813170079773,0.025830872929516,0.0698131700797731,0.03095239691603594,6.044594001214668,-0.007408852654519293
1403636614363555584,43.981552,641.2889052065602,9.308145291666667,-0.6946377083333333,-2.6151066666666667,-0.0062831853071795,0.0321140582366956,0.0837758040957278,0.009018598800348266,6.052459597735725,0.00025823496920285294
1403636614613555456,39.311409,643.504485411457,9.381695166666669,-0.4985047083333333,-2.574245625,0.0055850536063818,0.0202458193231342,0.0963421747100869,0.024246940724389467,6.028474524060245,-0.010235300839238626
1403636614863555584,60.098648,644.157830238325,9.398039583333333,-0.4903325,-2.5415567916666664,-0.0013962634015954,0.0139626340159546,0.0893608577021096,0.006154102276629693,6.033877499082742,0.004433490968938081
1403636615113555456,49.772739,645.5512353669126,9.406211791666664,-0.563882375,-2.5170401666666664,0.0006981317007977,0.0132645023151569,0.0788888821901436,0.00929646082684834,6.031437787734721,0.001038087182045011
1403636615363555584,49.315691,644.8306982501003,9.398039583333333,-0.44129925,-2.582417833333333,-0.0055850536063818,0.0202458193231342,0.08307767239493,0.01968547628686466,6.016877824470391,-0.003944677327877066
1403636615613555456,49.407244,644.8563855938929,9.414383999999998,-0.6210878333333334,-2.5660734166666663,-0.0055850536063818,0.0209439510239319,0.0767944870877505,0.011330486440463554,6.007891490891713,-0.0007184617947464389
1403636615863555584,59.714079,644.9358482580727,9.406211791666664,-0.6047434166666666,-2.5905900416666663,-0.0020943951023931,0.0195476876223364,0.075398223686155,0.015008051167309468,6.019140541540039,-0.0014668336138141669
1403636616113555456,47.999382,643.59696953907,9.389867375,-0.6047434166666666,-2.574245625,-0.0048869219055841,0.0223402144255274,0.0774926187885482,0.01802417881756543,6.013287975045274,-0.003827832083974414
1403636616363555584,41.445971,643.8868039187414,9.504278291666663,-0.53936575,-2.59876225,-0.0041887902047863,0.0230383461263251,0.085870199198121,0.025158593480055513,5.989054475444815,-0.0004984824940770238
1403636616613555456,48.178196,645.273983991861,9.430728416666666,-0.5230213333333333,-2.533384583333333,-0.0020943951023931,0.0188495559215387,0.0774926187885482,0.007331587921458059,5.988205072106793,0.004139138985481239
1403636616863555584,60.883046,644.7599477210449,9.398039583333333,-0.5557101666666666,-2.574245625,-0.0048869219055841,0.0209439510239319,0.0837758040957278,0.025141808255275646,6.012155896291825,0.00849620815444041
1403636617113555456,49.710512,645.3329509580722,9.553311541666666,-0.5066769166666666,-2.574245625,-0.0062831853071795,0.0237364778271228,0.0795870138909414,0.015227353121792585,6.0237008362659195,-0.001782603744316269
1403636617363555584,49.776554,644.4428051396781,9.536967125,-0.5475379583333333,-2.5905900416666663,-0.0041887902047863,0.0216420827247296,0.0767944870877505,0.026450741062518764,6.000913507961859,-0.0043819066468877566
1403636617613555456,56.072712,643.9876718754344,9.36535075,-0.4821602916666666,-2.5660734166666663,-0.0034906585039886,0.025830872929516,0.0844739357965255,0.01181294571698649,5.993130627730292,0.0060484419868895856
1403636617863555584,62.027931,645.1378619263805,9.389867375,-0.5066769166666666,-2.5170401666666664,-0.0027925268031909,0.0195476876223364,0.0767944870877505,0.019834248889050842,6.012757613720532,0.002269401501891366
1403636618113555456,39.214849,645.0218005158035,9.373522958333332,-0.5148491249999999,-2.557901208333333,-0.0013962634015954,0.0223402144255274,0.0802851455917391,0.01385452300283796,6.024980131309981,-0.00027985263065399835
1403636618363555584,49.689532,643.8352841669822,9.430728416666666,-0.5557101666666666,-2.582417833333333,-0.0062831853071795,0.0251327412287183,0.08307767239493,0.027620579317967152,6.001263428245411,-0.001997618724408845
1403636618613555456,42.299986,619.2763116616868,9.7085835,0.7927042083333332,-3.015544875,0.0300196631343024,0.0083775804095727,0.0691150383789754,0.03174829321871368,5.986950531984999,0.004617219310978804
1403636618863555584,63.102007,639.5217584165579,9.316317499999998,-1.7243359583333333,-2.288218333333333,0.046774823953448,0.0237364778271228,0.0670206432765822,0.02855435469967676,6.001079635075393,0.0058764903394941115
1403636619113555456,42.46211,578.5078870472472,9.651378041666666,1.0215260416666667,-3.015544875,0.0272271363311115,0.0314159265358979,0.0844739357965255,0.01342765316253335,6.011546910899809,0.006697208071151373
1403636619363555584,43.399334,576.9516383814183,10.035471833333334,-2.190151833333333,-2.639623291666666,0.0781907504893459,0.0349065850398865,0.0621337213709981,0.03100083265484276,6.0182106713717,0.0013958282726385107
1403636619613555456,39.802552,636.0413037837585,9.56148375,-0.4494714583333333,-2.4516625,-0.0230383461263251,0.0488692190558412,0.0977384381116824,0.03416640780941231,5.9891040614686855,-0.00011637011915155426
1403636619863555584,43.351412,640.4492181207603,8.744262916666667,-0.7600153749999999,-2.2718739166666664,-0.0041887902047863,0.0118682389135614,0.1089085453244461,0.02324012468585206,6.011631386252942,0.0015355633245226485
1403636620113555456,50.41337,631.7471997654154,9.504278291666663,-0.9479761666666666,-2.672312125,0.0097738438111682,0.0097738438111682,0.0760963553869527,0.01893993064706506,6.000514834433016,-0.004620522390351489
1403636620363555584,46.573162,641.0493182039335,9.398039583333333,-0.6782932916666666,-2.476179125,0.0041887902047863,0.0153588974175501,0.085870199198121,0.008454775792601232,5.995857757580864,-0.004205134458747928
1403636620613555456,42.806148,642.1343715162591,9.430728416666666,-0.5802267916666666,-2.525212375,-0.0090757121103705,0.0006981317007977,0.0893608577021096,0.018493128705617683,6.013481216677274,0.0070086106187732256
1403636620863555584,43.04409,643.0241852656654,9.275456458333332,-0.5148491249999999,-2.574245625,0.0069813170079773,0.0356047167406843,0.0879645943005142,0.017052781046523816,6.008199769435234,-0.0023672877775275936
1403636621113555456,49.911261,633.0828161053674,10.190743791666666,-1.0215260416666667,-2.9011339583333333,0.0321140582366956,0.0453785605518525,0.0956440430092892,0.026244643335504275,6.005949125304717,0.009123562922451534
1403636621363555584,51.236153,643.1940598780687,9.765788958333331,-0.6701210833333332,-2.8357562916666668,-0.0118682389135614,0.0335103216382911,0.0502654824574366,0.04806865189399353,6.007561215975058,-0.007886218125281452
1403636621613555456,50.665856,641.6810198802997,9.087495666666666,-0.1879607916666666,-2.4680069166666665,-0.0111701072127637,0.0356047167406843,0.104021623418862,0.02755033438968915,6.00417533865442,0.0058690979958209155
1403636621863555584,50.090075,641.9190589579824,9.308145291666667,-0.4576436666666666,-2.5905900416666663,0.0132645023151569,0.0,0.0781907504893459,0.016596239635630197,5.999435801677009,0.002445633788646262
1403636622113555456,50.600767,639.6215365095339,9.430728416666666,-0.809048625,-2.623278875,-0.0125663706143591,0.0174532925199432,0.0586430628670094,0.01965650279376836,5.99261236493596,0.004304835303345023
1403636622363555584,50.318956,640.884067386957,9.030290208333332,-0.3350605416666666,-2.3209071666666663,0.0062831853071795,0.0314159265358979,0.0774926187885482,0.02350202933745186,5.989504233173298,0.005425326367248573
1403636622613555456,50.176144,640.7448613011994,9.692239083333332,-0.563882375,-2.9011339583333333,0.0006981317007977,0.0,0.0893608577021096,0.02459617862197443,6.007516482384241,0.00705933274455095
1403636622863555584,42.340278,634.4882343375398,9.398039583333333,-0.5148491249999999,-2.8766173333333334,-0.0160570291183478,0.0474729556542457,0.1089085453244461,0.03180663603509033,6.0384141287868935,-0.00021924093932046418
1403636623113555456,56.958675,634.2705595137917,9.022118,-0.83356525,-2.6477955,-0.0230383461263251,0.0,0.0356047167406843,0.05492493203362628,5.999946776925261,0.00105641306242088
1403636623363555584,40.985346,636.2328985401293,9.381695166666669,-0.8580818749999999,-2.2555295,-0.0265290046303138,0.0586430628670094,0.0474729556542457,0.1057628180349732,5.936547171075799,-0.005784703853713324
1403636623613555456,60.613871,623.9778344037342,9.324489708333331,0.2288218333333333,-1.5527195833333332,0.018151424220741,-0.0132645023151569,0.057246799465414,0.23297130739837044,6.082414754903369,0.0525952841199695
1403636623863555584,50.422907,610.6582956475476,10.525804333333332,-0.4249548333333333,-2.705000958333333,-0.0265290046303138,0.0425860337486616,0.1263618378443894,0.17188740951922554,5.97989867419988,-0.035878593368035894
1403636624113555456,57.145119,617.4485969643156,10.8853815,-0.8499096666666667,-3.612116083333333,-0.0481710873550434,0.0335103216382911,0.0614355896702004,0.12177776565620838,5.8918215407541785,0.008254092452411044
1403636624363555584,62.284947,475.3638466846486,7.722736874999999,0.7436709583333333,-1.2585200833333332,-0.1514945790731078,-0.0747000919853573,0.0097738438111682,0.08559076957277063,5.848111602216206,-0.029932594654618505
1403636624613555456,49.815654,486.6496107498798,6.071950791666666,-0.6456044583333332,-1.1604535833333331,-0.0202458193231342,-0.0293215314335047,-0.0174532925199432,0.299756051033256,5.8301032219055795,0.045396125660374764
1403636624863555584,38.184166,311.1960320818048,7.722736874999999,0.367749375,-2.0593965,-0.0879645943005142,-0.1570796326794896,-0.2778564169174973,0.2511075567030877,6.0143029444999865,0.029151714544807028
1403636625113555456,48.823118,360.4718438486998,9.872027666666666,0.2369940416666666,-4.3721314583333335,0.0593411945678072,-0.2017600615305445,0.1738347934986352,0.17200514402705652,5.858901463527739,-0.024842371215381576
1403636625363555584,59.944391,735.595203663941,5.066769166666667,1.765197,-1.8796079166666664,0.0383972435438752,-0.0195476876223364,0.0705113017805709,0.6688810808340603,5.902044921808114,0.026720543972257538
1403636625613555456,49.372912,670.2264949655944,12.691439541666666,0.3514049583333333,-4.143309625,0.0195476876223364,0.0230383461263251,0.0265290046303138,0.3500528886482052,5.886358202433191,-0.046670963269798804
1403636625863555584,50.215482,294.1739774801472,8.654368624999998,0.0572054583333333,-2.190151833333333,0.0244346095279206,0.2234021442552742,0.1019272283164688,0.1520870300973938,5.716748416274652,-0.054920445277592655
1403636626113555456,50.770044,463.7159940561133,9.643205833333331,0.0980665,-3.391466458333333,0.0726056968829641,0.028623399732707,0.2918190509334519,0.3276045606831048,5.874610221528529,0.08462796868378408
1403636626363555584,39.833308,769.7139327549258,4.290409374999999,0.6292600416666666,-1.12776475,-0.0013962634015954,0.1123992038284348,0.1186823891356144,0.5190925625731725,6.089434220211343,0.0754946267124037
1403636626613555456,49.501657,678.3511470267672,9.062979041666669,0.1797885833333333,-2.525212375,-0.0027925268031909,0.1089085453244461,-0.0523598775598298,0.46983613687868214,6.467802668137512,0.10396687950394057
1403636626863555584,41.410685,571.9561807660058,8.842329416666665,0.1144109166666666,-2.9256505833333333,0.0132645023151569,-0.210835773640915,0.0656243798749867,0.41314487360499635,6.635489273194441,-0.031934641913032635
1403636627113555456,50.709248,564.0921609156683,9.626861416666666,0.0081722083333333,-3.8654545416666655,0.0013962634015954,-0.1389282084587486,0.0321140582366956,0.5475560845790751,6.376786241741213,-0.15152410942097916
1403636627363555584,50.361394,800.0732324215986,8.033280791666666,0.3023717083333333,-3.6448049166666654,-0.0174532925199432,0.0509636141582344,0.0886627260013119,0.2118906095593332,6.316343458758252,-0.019560281687427405
1403636627613555456,42.405128,736.2474994623083,6.42335575,0.1307553333333333,-1.61809725,-0.200363798128949,-0.0907571211037051,0.1466076571675237,0.3175528565347586,6.204747710087321,-0.07510860869546754
1403636627863555584,38.449764,436.00419547761805,9.447072833333332,0.5965712083333333,-2.966511625,-0.2904227875318564,-0.2094395102393195,0.132645023151569,0.33294072712511696,5.959413604942811,-0.0390298918395251
1403636628113555456,49.648047,313.4818391726227,10.828176041666667,0.7109821249999999,-2.557901208333333,-0.0949459113084915,0.3162536604613725,0.122173047639603,0.21413203799236155,5.898379531562904,-0.03085821973992342
1403636628363555584,50.034523,620.4341908959675,9.978266375,-0.5148491249999999,-3.072750333333333,0.0013962634015954,0.0383972435438752,0.1808161105066125,0.8221992620260505,6.33978629485582,0.06119616254559812
1403636628613555456,39.763928,798.3156933936289,8.458235625,0.0653776666666666,-2.1983240416666665,0.0621337213709981,-0.0167551608191455,0.0991347015132779,0.48818853764662357,6.495627866419623,-0.010139332630901166
1403636628863555584,50.12846,596.0260804297471,10.8853815,-0.1634441666666666,-2.231012875,-0.189891822616983,-0.1158898623324234,0.0244346095279206,0.515339606333479,6.074821948041779,-0.18625593077444957
1403636629113555456,50.17066,720.8536912755588,10.991620208333332,-0.5557101666666666,-2.9338227916666666,-0.1242674427419962,-0.0495673507566389,0.1193805208364121,0.3976704785353608,5.807264975891537,0.10293046967728436
1403636629363555584,50.206185,754.7669230043763,9.553311541666666,-0.980665,-3.563082833333333,-0.1857030324121966,0.0600393262686049,0.2450442269800038,0.4315110580362917,5.868159419205721,0.044413846811210966
1403636629613555456,49.606085,707.4052190056902,7.706392458333333,0.1389275416666666,-2.01036325,-0.4098033083682685,-0.2024581932313422,0.1263618378443894,0.7204387411826487,5.285208422978915,-0.033386410135683775
1403636629863555584,61.05566,784.5895944323852,10.133538333333334,1.0133538333333332,-3.6284605,-0.3476695869972704,-0.0006981317007977,0.2275909344600605,1.187358433720578,4.978465622413526,-0.1990858517352585
1403636630113555456,50.107479,719.4573010056505,11.42474725,-0.024516625,-4.453853541666667,-0.2094395102393195,0.247138622082397,0.1836086373098034,1.1091915261694145,4.538345465377082,-0.019935164570140884
1403636630363555584,39.307117,1145.355490799461,10.051816249999998,0.8499096666666667,-3.4241552916666667,-0.0237364778271228,-0.0174532925199432,0.1333431548523667,1.5093367356156935,3.954745610817368,-0.15169402977990032
1403636630613555456,53.040743,1190.810967766688,8.948568125,0.0735498749999999,-3.407810875,0.0027925268031909,0.0314159265358979,-0.0335103216382911,0.7531413447282013,3.683529729318064,-0.05865409653805864
1403636630863555584,39.419651,1142.907086829446,8.891362666666666,0.318716125,-3.710182583333333,0.054454272662223,0.0495673507566389,0.1528908424747032,1.5357857210222066,3.049596722715233,0.08813476132813003
1403636631113555456,46.796561,986.8043231935832,8.245758208333333,1.0378704583333334,-1.642613875,0.0223402144255274,0.1256637061435917,0.0600393262686049,1.0401705992921915,3.8932297453658267,0.17423625223056893
1403636631363555584,42.69886,1106.671111362577,9.847511041666666,0.6456044583333332,-2.5170401666666664,0.0111701072127637,0.0586430628670094,0.0663225115757845,0.31194823539609234,4.170178166721932,0.13469577019144907
1403636631613555456,52.259207,1068.145767198552,10.697420708333333,-0.269682875,-4.151481833333333,0.0579449311662117,0.054454272662223,-0.0090757121103705,0.3868354829801332,4.39598059798201,-0.07528421145702158
1403636631863555584,49.754858,1130.8683587596984,9.226423208333332,-0.1389275416666666,-3.170816833333333,-0.0390953752446729,0.0069813170079773,0.0446804288510548,0.46305804860924243,4.316046501887582,-0.01981937944656398
1403636632113555456,49.580097,991.2939585882376,9.349006333333334,0.122583125,-3.7837324583333327,0.0090757121103705,0.0740019602845595,-0.0328121899374933,2.1982069862478664,4.994667953699173,0.28802619110964933
1403636632363555584,49.830675,1112.6368871228435,7.542948291666666,0.2043052083333333,-3.072750333333333,-0.0202458193231342,-0.0390953752446729,0.1186823891356144,1.4553365621694856,5.611353070730709,-0.14735409174739722
1403636632613555456,38.937569,756.7030618814563,7.927042083333333,0.3595771666666666,-2.5660734166666663,0.2324778563656447,-0.1745329251994329,0.189891822616983,2.229319547017114,3.9770831079480993,-0.18031341370360687
1403636632863555584,49.195289,728.0263538899884,8.302963666666667,-0.4086104166666666,-3.92266,0.3797836452339661,0.0376991118430775,-0.2694788365079245,1.7147094286499533,3.657349978341258,-0.11592882630906942
1403636633113555456,60.08625,714.9793465666539,7.60015375,-0.63743225,-1.7161637499999998,0.1912880860185785,0.0090757121103705,-0.0307177948351002,0.7754305712572709,2.9108106046067355,-0.08916039863052916
1403636633363555584,58.718205,947.9216958170324,10.395049,0.8989429166666666,-3.898143375,0.0202458193231342,-0.0069813170079773,0.200363798128949,1.571157416341334,2.787563348907533,0.14221874408191582
1403636633613555456,60.612202,909.2091184047772,9.978266375,0.53936575,-3.979865458333333,-0.0656243798749867,-0.0195476876223364,0.093549647906896,3.776580874091853,5.776980692093317,0.35087088309001224
1403636633863555584,49.96109,908.1022753176504,8.785123958333333,0.171616375,-3.5222217916666665,-0.0223402144255274,0.0551524043630208,0.1640609496874669,2.5246108328384973,8.13757271534454,0.30237048306965875
1403636634113555456,47.504663,940.618655568995,10.460426666666669,-0.3023717083333333,-3.881798958333333,0.0097738438111682,0.0488692190558412,0.0481710873550434,0.803536279517604,8.525832182911927,0.16866198120816556
1403636634363555584,49.705267,586.8773519531053,9.536967125,0.83356525,-2.4680069166666665,0.0202458193231342,0.2227040125544764,0.0188495559215387,0.8147176217532951,7.969629557925756,-0.4509725870363921
1403636634613555456,49.558401,848.4753327537802,9.586000375,0.0081722083333333,-4.028898708333333,0.075398223686155,0.0970403064108847,-0.0202458193231342,1.1041551252529218,8.987909064515518,0.5104206714423203
1403636634863555584,46.236992,851.7352449081233,7.567464916666665,-0.1389275416666666,-4.641814333333333,0.1103048087260416,-0.0502654824574366,0.0397935069454707,2.1338598856995628,11.114095579110687,0.26981893694127734
1403636635113555456,50.290346,829.2911007180883,9.242767625,0.8989429166666666,-2.8602729166666667,0.0774926187885482,-0.007679448708775,-0.0167551608191455,2.5300015700980447,13.63899678011197,0.1945491465891429
1403636635363555584,49.663067,756.7597366881697,9.381695166666669,-0.8172208333333333,-2.966511625,0.0356047167406843,-0.0684169066781777,0.2527236756887789,0.8288956619595704,14.362316899562774,0.24075556956449873
1403636635613555456,67.137241,636.261081282132,9.716755708333332,0.1144109166666666,-2.827584083333333,-0.054454272662223,0.0837758040957278,0.0663225115757845,1.919191159552986,16.156320717647592,-0.26342020620691997
1403636635863555584,41.314125,626.7422479899122,7.387676333333332,0.1307553333333333,-3.9144877916666654,-0.0125663706143591,-0.0272271363311115,0.1577777643802873,7.668037747195405,10.607305266291224,-2.352733305865696
1403636636113555456,50.089359,516.443459193399,10.231604833333332,-0.6292600416666666,-4.192342875,-0.08307767239493,-0.0740019602845595,-0.0684169066781777,6.276171592621798,6.409354771402446,-0.519106758249241
1403636636363555584,49.963712,291.7217899482803,7.052615791666666,-0.63743225,-2.7867230416666664,-0.0174532925199432,0.3553490357060455,0.0083775804095727,2.1743220600475675,8.068450410578041,0.8149316816103669
1403636636613555456,49.947023,445.5661528033942,9.316317499999998,-0.3023717083333333,-3.6202882916666654,-0.0530580092606276,0.0174532925199432,-0.0886627260013119,2.4239201603809923,10.111483754723851,0.27316158341449537
1403636636863555584,49.627781,542.1460230604688,9.201906583333331,-0.5066769166666666,-3.268883333333333,0.0795870138909414,-0.1438151303643327,0.2513274122871834,1.9901024695208163,11.661384361766087,0.39561173871510036
1403636637113555456,36.078215,458.06965961555113,8.556302125,-0.2860272916666666,-2.165635208333333,0.0844739357965255,-0.0970403064108847,0.2380629099720265,3.9517405957186122,14.818494173260083,0.9471114457670744
1403636637363555584,53.434848,573.8857649886944,9.275456458333332,0.73549875,-2.4516625,-0.0279252680319092,-0.0237364778271228,0.085870199198121,2.3660169783754013,16.990757522706936,0.3061294867528268
1403636637613555456,60.767889,540.775463744847,9.56148375,1.1767979999999998,-2.7131731666666665,0.0125663706143591,0.0586430628670094,0.0502654824574366,5.646951133620192,21.965665942698543,1.3530333316013028
1403636637863555584,49.901247,416.5849293837194,10.2969825,-0.4903325,-2.0512242916666668,-0.0293215314335047,0.0439822971502571,0.0502654824574366,0.8342537931034048,22.285179632156403,0.2625701117148793
1403636638113555456,49.714804,531.64932564763,8.97308475,0.0817220833333333,-3.955348833333333,0.0090757121103705,0.0733038285837618,0.1075122819228507,3.893357837739179,25.84417581257135,0.31846127422578263
1403636638363555584,49.791813,305.07407612905894,8.736090708333332,0.0572054583333333,-2.239185083333333,0.0439822971502571,-0.3574434308084387,0.2974041045398337,1.04549856445014,26.64333713908233,0.2608164284749037
1403636638613555456,45.525789,423.5227936719618,12.045835083333332,-0.1389275416666666,-3.718354791666666,-0.057246799465414,0.0132645023151569,-0.054454272662223,0.9789670894000932,25.758662577145902,-0.27304553684109933
1403636638863555584,52.474022,402.9102331872381,7.591981541666666,-0.5066769166666666,-3.4404997083333333,-0.0453785605518525,0.208043246837724,0.0404916386462684,3.957640740441193,22.048498943473593,-0.7666876548759838
1403636639113555456,38.064718,412.6190573718005,6.349805875,-0.1389275416666666,-1.871435708333333,0.0879645943005142,0.028623399732707,0.2722713633111154,3.2676410381838785,18.995275117835178,-0.4265100894368956
1403636639363555584,46.860933,355.2734105392832,9.896544291666666,0.416782625,-3.6284605,-0.1012290966156711,0.0460766922526503,-0.1780235837034216,1.1813651140520223,18.303205792739988,0.02312493807225735
1403636639613555456,41.358471,346.33542932111567,8.237585999999999,-0.0163444166666666,-3.366949833333333,-0.0684169066781777,0.1033234917180643,-0.1256637061435917,0.8297955225003149,17.723478139467282,-0.15371441192194268
1403636639863555584,39.161444,432.0737873817768,8.016936375,-0.3759215833333333,-3.4650163333333333,0.0027925268031909,0.0453785605518525,0.1137954672300302,1.000522283745751,17.56179293274201,-0.08177500382872793
1403636640113555456,57.657719,436.97891154898497,9.144701125,-0.1389275416666666,-3.898143375,0.1570796326794896,0.036302848441482,0.0537561409614253,0.9410960692462176,17.897257804548115,0.22587432638797367
1403636640363555584,50.074816,490.9172968806656,9.046634625,-0.44129925,-2.3372515833333334,0.1089085453244461,0.0376991118430775,-0.0293215314335047,3.39935085730713,20.875291156600436,0.593689730649583
1403636640613555456,50.309658,548.7372832851238,8.997601374999999,-0.0326888333333333,-2.8357562916666668,0.007679448708775,0.0153588974175501,0.0963421747100869,2.799623705567667,23.35085768898785,0.16822896398407394
1403636640863555584,57.607651,636.4862815471953,11.056997875,0.1470997499999999,-4.053415333333333,0.0474729556542457,0.0516617458590321,0.1179842574348166,1.6130699579676677,24.338429696468815,-0.09512078862604056
1403636641113555456,50.159216,634.8133079028396,10.027299625,-0.1144109166666666,-3.726527,-0.0202458193231342,-0.0279252680319092,0.0851720674973232,1.286792853871656,25.471863142634454,0.24390628086622357
1403636641363555584,39.716244,584.2260118515409,7.804458958333332,-0.4249548333333333,-2.974683833333333,-0.0230383461263251,-0.025830872929516,0.2492330171847902,0.560003997365843,25.55670088821814,0.16718110170939582
1403636641613555456,51.917553,609.8794724214542,10.190743791666666,0.9724927916666666,-2.827584083333333,-0.0509636141582344,0.0474729556542457,0.054454272662223,0.39285626533710744,25.93865540045704,0.32318082138014503
1403636641863555584,49.567461,597.9238170520282,9.822994416666669,-0.024516625,-3.726527,-0.0083775804095727,0.1165879940332212,0.0383972435438752,1.6362745136442571,27.368586377258282,0.15464385909884726
1403636642113555456,50.81892,540.7117871089989,8.139519499999999,0.0081722083333333,-3.3751220416666667,-0.1787217154042193,0.1200786525372098,0.0767944870877505,2.164980399927247,25.93255450357957,-0.5118557990338033
1403636642363555584,50.030947,601.205925963063,7.698220249999999,0.122583125,-2.8602729166666667,-0.210835773640915,0.018151424220741,0.1487020522699168,1.1561363715174373,25.14734053614362,-0.10316863062759296
1403636642613555456,53.364993,450.39301029476826,8.7279185,-1.2176590416666666,-4.5519200416666665,-0.0691150383789754,-0.2087413785385218,0.1787217154042193,0.47611193158515286,25.18184357641192,-0.08899601070168828
1403636642863555584,39.103746,673.3815369821945,11.539158166666668,-0.24516625,-3.8082490833333327,-0.0209439510239319,0.0048869219055841,0.1263618378443894,1.0898259031348618,24.36616188434561,-0.28777405544935064
1403636643113555456,40.137291,617.698108364942,5.957539875,-0.4004382083333333,-2.819411875,-0.0132645023151569,0.0698131700797731,0.0984365698124801,0.42426342034246184,24.16551945047053,-0.153186316766039
1403636643363555584,42.413235,728.3185513268978,11.727118958333332,0.122583125,-3.849110125,0.0488692190558412,-0.0216420827247296,0.104021623418862,0.5973000060524756,24.71511444296785,0.24135776751548832
1403636643613555456,48.963785,686.9322325440666,10.166227166666664,0.4985047083333333,-3.2361945,-0.0705113017805709,-0.1452113937659282,0.046774823953448,0.5441680632002194,24.890960631199103,-0.0589939094255314
1403636643863555584,50.122977,719.9048830923635,7.788114541666666,0.2941994999999999,-3.334261,-0.0041887902047863,-0.0942477796076938,0.0425860337486616,1.72802235962996,23.880073800738348,-0.2172094655135126
1403636644113555456,43.157339,758.4880196762718,10.395049,-0.4739880833333333,-3.881798958333333,-0.0356047167406843,-0.075398223686155,0.0928515162060983,0.2964593176286007,23.70769689180198,0.005193100812899587
1403636644363555584,49.801112,448.47329746976806,8.28661925,0.63743225,-3.0564059166666664,0.0446804288510548,0.3169517921621702,0.2799508120198904,0.8025215584069816,23.331264664292366,-0.009110316231414117
1403636644613555456,40.523529,630.095204644323,9.455245041666666,0.4249548333333333,-3.1463002083333333,-0.0244346095279206,0.0698131700797731,0.0390953752446729,1.1060314342805022,24.337446736553822,0.7653250190374159
1403636644863555584,37.982941,441.0117029675876,7.869836625,0.1389275416666666,-4.184170666666667,-0.0963421747100869,-0.1291543646475804,-0.1172861257340189,0.776078733120479,24.843462020441688,0.0943632506524601
1403636645113555456,38.347245,313.5838428935062,10.820003833333333,-0.1389275416666666,-4.625469916666667,-0.0411897703470661,-0.3469714552964727,0.0984365698124801,0.9391743254911005,24.66707154066776,-0.2381439059843906
1403636645363555584,49.737692,439.2045243585856,10.149882749999998,0.2941994999999999,-3.334261,0.0111701072127637,0.2757620218151041,0.0795870138909414,1.180838294006568,25.764338664151502,0.16141039357274423
1403636645613555456,52.955627,591.6682060928233,7.763597916666666,-0.318716125,-2.1411185833333333,-0.0788888821901436,0.1186823891356144,0.0335103216382911,2.812479595523028,26.63496204809121,0.19189915521833
1403636645863555584,50.155163,615.1093861367899,11.016136833333332,-0.6782932916666666,-4.257720541666666,0.0097738438111682,-0.0062831853071795,0.1075122819228507,1.8869753355133432,27.59766380854682,0.27047877628862693
1403636646113555456,60.75859,388.1286942043624,10.721937333333331,0.196133,-3.170816833333333,-0.4118977034706618,0.2206096174520832,0.3246312408709453,7.106555111391427,33.39653579106543,0.9798182260096553
1403636646363555584,52.987099,397.8028212219318,8.302963666666667,0.4821602916666666,-4.225031708333333,-0.6066764479932288,0.2345722514680378,0.1668534764906579,3.5522273505938173,36.52634864985582,0.25261902760205146
1403636646613555456,59.855938,510.7995827074168,12.315517958333333,-0.784532,-4.658158749999999,-0.268082573106329,-0.0551524043630208,-0.0160570291183478,1.5347567639407624,37.50879862982447,-0.1437999176157092
1403636646863555584,45.845986,523.6141191652526,9.790305583333332,-0.0735498749999999,-2.811239666666667,-0.1801179788058148,-0.0223402144255274,0.1424188669627373,3.0803841620449934,34.40508355406201,-0.743419680888465
1403636647113555456,53.795576,543.5257627944789,8.204897166666667,0.6782932916666666,-1.3811032083333332,-0.0300196631343024,-0.0390953752446729,0.0174532925199432,4.815830040953735,29.990528097002194,-0.520036473636253
1403636647363555584,59.932947,536.6518698607099,9.594172583333334,0.0653776666666666,-3.726527,0.0265290046303138,0.1235693110411985,0.1026253600172665,3.5283799726709018,26.56074475636114,-0.4822379930249845
1403636647613555456,45.735836,490.4411934475629,9.880199875,0.5066769166666666,-2.5415567916666664,0.0900589894029074,0.2778564169174973,0.228987197861656,1.1862890522065013,25.506782839480817,0.01710459527108199
1403636647863555584,60.999632,437.9112828423772,8.964912541666667,-0.0898942916666666,-3.391466458333333,-0.1843067690106012,0.0209439510239319,0.1514945790731078,0.6169020418277618,25.24184720513809,-0.2866810719452957
1403636648113555456,40.136575,330.3896726783824,8.87501825,-0.3840937916666667,-1.96133,-0.4314453910929983,0.0621337213709981,0.2506292805863857,1.3756988950473847,24.27346490642228,-0.3851085377141459
1403636648363555584,56.352854,335.1856376542723,10.076332875,0.563882375,-3.87362675,-0.5619960191421741,0.0118682389135614,0.2296853295624537,0.6806620284761554,24.706157817981207,-0.27480643337675303
1403636648613555456,40.937662,376.8334609686715,10.926242541666667,-0.1879607916666666,-3.906315583333333,-0.4251622057858186,0.0097738438111682,0.2213077491528809,2.2455634829538846,26.05085059926368,0.1527986087204667
1403636648863555584,50.439119,366.4026842279848,8.482752249999999,0.4576436666666666,-2.288218333333333,-0.1452113937659282,-0.200363798128949,0.0809832772925368,2.5477091635482827,27.206637329983884,-0.06036304680603877
1403636649113555456,48.098564,346.23373342076275,10.035471833333334,0.34323275,-2.7376897916666665,0.0230383461263251,0.3022910264454179,0.0216420827247296,1.3547969178841477,25.765682436410792,-0.29882603020822174
1403636649363555584,50.205946,600.1912701788717,7.363159708333333,-0.4903325,-3.162644625,0.0565486677646162,-0.2429498318776106,0.0446804288510548,2.388037801106525,24.245470807898535,-0.260567682991212
1403636649613555456,39.161205,528.80704342191,10.231604833333332,0.2288218333333333,-3.0400615,0.0069813170079773,0.1312487597499735,0.1368338133563554,1.1960174084022062,23.70140452601988,-0.01717297272258378
1403636649863555584,49.078226,470.6461050936713,8.891362666666666,0.2043052083333333,-3.195333458333333,-0.15079644737231,0.0314159265358979,0.122173047639603,1.5797395376214904,24.337645963834564,0.20745812459033885
1403636650113555456,50.03047,517.0068508599986,7.371331916666667,-0.7927042083333332,-3.3996386666666667,-0.1996656664281513,0.0642281164733913,0.1542871058762987,1.4310332005509563,24.617164901652142,0.1566957569420282
1403636650363555584,59.603214,390.6078278820199,9.210078791666666,-0.5557101666666666,-3.8654545416666655,-0.5124286683855351,-0.0593411945678072,0.2038544566329376,1.350350062714512,25.4343886185878,0.018203583238136645
1403636650613555456,47.677994,446.8751765576516,10.337843541666668,-0.5883989999999999,-3.211677875,-0.3846705671395502,-0.1487020522699168,0.2164208272472968,0.571302491817102,24.839924531903996,-0.20199176161685983
1403636650863555584,48.76399,546.8738364250875,9.095667875,-0.0898942916666666,-3.366949833333333,-0.1619665545850737,0.1089085453244461,0.085870199198121,1.3786481860156508,23.97893646183301,-0.09627802875274583
1403636651113555456,60.103416,704.2930720415178,8.850501625,0.6782932916666666,-4.2822371666666665,-0.0125663706143591,0.0321140582366956,0.0635299847725936,1.1916293271039855,23.897060109481618,-0.025978091218551214
1403636651363555584,61.531305,759.8249476795304,9.046634625,0.0653776666666666,-3.857282333333333,0.0635299847725936,-0.0726056968829641,0.1130973355292325,0.8346429246574791,24.354995750091753,0.08393862856886969
1403636651613555456,51.07975,627.5431315558222,7.828975583333331,-0.392266,-3.554910625,0.0509636141582344,0.104021623418862,0.1172861257340189,0.7880552501022757,23.779362053074042,-0.18668937475668557
1403636651863555584,61.061621,588.5895158270569,8.417374583333332,0.2288218333333333,-3.538566208333333,-0.28623399732707,0.0153588974175501,0.2848377339254746,1.3322333078177824,24.66526683784033,0.316092705330167
1403636652113555456,61.758279,402.5848834181467,9.75761675,0.73549875,-2.9338227916666666,-0.6736970912698113,0.0272271363311115,0.1179842574348166,1.3833514189199136,23.41707541848033,-0.7451882892504642
1403636652363555584,41.754245,330.9681713126392,7.624670374999999,0.4576436666666666,-2.034879875,-0.6618288523562498,-0.2282890661608583,0.2450442269800038,4.75928053308344,18.855963656215142,-1.4134644045608908
1403636652613555456,49.576998,535.1733345338355,9.316317499999998,-0.6701210833333332,-2.30456275,-0.2617993877991494,-0.0928515162060983,0.1996656664281513,5.68444191759717,13.829282339093812,-0.7678887669193948
1403636652863555584,49.870014,758.464429648638,9.716755708333332,-1.1604535833333331,-2.50069575,-0.0747000919853573,0.0390953752446729,0.1277581012459849,1.8476847606002464,12.411001233746486,-0.057700558061142715
1403636653113555456,71.555376,691.3841666681095,8.499096666666667,0.0572054583333333,-2.982856041666666,0.0586430628670094,0.257610597594363,-0.0111701072127637,4.312841101701171,14.591292081565621,0.17835774387181758
1403636653363555584,50.429582,831.0628636418721,8.809640583333332,-0.4249548333333333,-4.233203916666667,0.0733038285837618,0.1340412865531645,0.0265290046303138,1.1463302133545894,14.885949720519658,0.2027090576884074
1403636653613555456,48.398018,736.07241425041,9.577828166666666,-0.3350605416666666,-1.838746875,0.0551524043630208,0.0677187749773799,0.0977384381116824,2.734993996237466,17.525001843051808,0.605626059439345
1403636653863555584,50.514221,850.5088178295811,8.548129916666667,-1.871435708333333,-2.8766173333333334,-0.0237364778271228,0.0111701072127637,0.0970403064108847,2.1629402704115046,19.295901550034024,0.4579286001778904
1403636654113555456,50.266266,831.9690699888872,8.343824708333333,1.2094868333333333,-2.606934458333333,-0.0439822971502571,0.0370009801422797,0.1054178868204575,0.628448491441326,19.904926373029383,0.25921692248681083
1403636654363555584,50.135136,569.2997356152575,12.626061875,-0.1797885833333333,-3.881798958333333,-0.2806489437206881,0.0188495559215387,0.182212373908208,1.061904753178893,20.50291111315792,-0.09662084491823109
1403636654613555456,50.53854,589.3840680809361,6.979065916666666,0.3840937916666667,-2.1983240416666665,-0.2876302607286655,-0.0439822971502571,0.2338741197672401,1.3147005988779972,19.610951957983758,-0.5761687043227113
1403636654863555584,38.487911,762.7532958280649,10.264293666666664,0.3023717083333333,-4.020726499999999,-0.1521927107739055,-0.0125663706143591,0.1277581012459849,1.4360434789833687,18.24728105624765,-0.0826870587390438
1403636655113555456,50.589085,740.5482922061116,11.285819708333332,-0.2615106666666666,-4.151481833333333,-0.0642281164733913,0.0349065850398865,0.1151917306316257,2.5853364093919495,17.067648026962797,-0.40134607650822574
1403636655363555584,54.875374,835.2563160876105,9.398039583333333,0.0163444166666666,-2.8439285,-0.1480039205691191,0.0516617458590321,0.1110029404268393,4.140163306370653,15.003296102236774,-0.47745862607404455
1403636655613555456,38.290024,418.5808204734232,8.458235625,0.9888372083333332,-3.3751220416666667,-0.2904227875318564,-0.2213077491528809,0.2708750999095199,6.188362741286412,12.738376583272784,-0.3902001176507497
1403636655863555584,49.824476,490.3646554798599,7.297782041666666,-0.367749375,-2.3699404166666667,-0.3155555287605747,0.0041887902047863,0.2534218073895766,1.3100265716166417,12.236851774298483,-0.2308751790251904
1403636656113555456,53.95031,608.5340118544746,11.334852958333332,0.0408610416666666,-3.669321541666666,-0.2178170906488923,0.0265290046303138,0.0740019602845595,3.0891519059929093,11.1370621652415,0.18870197618329243
1403636656363555584,50.167322,741.7969976098308,9.545139333333331,-0.269682875,-3.3751220416666667,-0.025830872929516,-0.0488692190558412,0.0174532925199432,4.372340867915021,12.709672264597934,0.04563851264423313
1403636656613555456,47.663451,709.1169800556154,9.373522958333332,-0.269682875,-3.563082833333333,0.0251327412287183,0.1961750079241626,-0.0132645023151569,5.940517708733543,11.634233615179465,0.05873677259091892
1403636656863555584,41.843414,798.9307694229685,9.136528916666666,0.0408610416666666,-3.4241552916666667,0.0216420827247296,0.1186823891356144,0.0251327412287183,3.46127691078784,13.068602941790791,0.2943544378384786
1403636657113555456,50.724268,955.6157900408,8.38468575,0.1389275416666666,-1.985846625,0.064926248174189,0.0747000919853573,0.0900589894029074,4.873280586791036,13.83772983270485,-0.004057819348599168
1403636657363555584,49.67165,619.3356334318836,10.967103583333332,-0.3268883333333333,-4.0125542916666666,0.0041887902047863,-0.2310815929640492,0.122173047639603,2.6068644407591295,14.714237662968394,0.5269961396025096
1403636657613555456,49.279451,793.01407812611,9.80665,-0.7436709583333333,-2.606934458333333,-0.028623399732707,-0.0879645943005142,0.1012290966156711,3.863721622611648,15.58410098576812,0.2294232582678415
1403636657863555584,49.839497,622.1706383940256,8.417374583333332,0.3514049583333333,-2.280046125,-0.0579449311662117,-0.1445132620651305,0.2527236756887789,3.3338865667489337,17.25643002679977,0.10360480331766198
1403636658113555456,56.051732,566.9920658002319,8.123175083333333,0.0817220833333333,-2.680484333333333,-0.1242674427419962,0.0020943951023931,-0.0872664625997164,3.712645313271686,19.80730998640297,0.6963200543843087
1403636658363555584,53.387642,488.0433314140693,9.839338833333333,-0.1389275416666666,-3.8245935,-0.0614355896702004,0.0090757121103705,0.0328121899374933,1.5302315117629943,20.2844450700576,0.50412821516991
1403636658613555456,49.771786,546.6607920047793,9.332661916666666,-0.5230213333333333,-4.707191999999999,-0.0474729556542457,0.0397935069454707,-0.0125663706143591,4.631654474500354,23.838774874455034,0.49047566210091986
1403636658863555584,50.168752,466.9634363150933,9.577828166666666,-0.9643205833333331,-3.5222217916666665,-0.0223402144255274,0.1933824811209717,0.075398223686155,2.4685669323309067,21.872681696059626,-0.6454892742970593
1403636659113555456,50.253392,433.53362882674855,8.28661925,-0.04903325,-3.4486719166666666,0.0356047167406843,0.1284562329467826,0.1068141502220529,6.275745707105145,16.53171125964018,-1.1472794203091219
1403636659363555584,50.305128,318.8437411739789,9.692239083333332,-0.4903325,-3.0564059166666664,-0.0160570291183478,-0.093549647906896,0.1096066770252439,5.375095189393615,12.66424025883642,-0.5315552050641337
1403636659613555456,46.218157,537.954267508374,10.395049,-0.2124774166666666,-3.759215833333333,-0.0125663706143591,0.1347394182539622,0.046774823953448,1.6916411106771267,11.123466829175149,-0.2709690163998282
1403636659863555584,50.186158,513.4063894418615,7.3549875,-0.7518431666666666,-2.40262925,-0.0565486677646162,0.0083775804095727,0.1445132620651305,1.3541961060062961,10.328253898296811,-0.06223651792989493
1403636660113555456,49.389601,382.92931894355615,7.992419749999999,-0.5557101666666666,-1.3157255416666664,-0.0153588974175501,-0.143116998663535,0.1389282084587486,1.3215398165573713,9.731277038441677,-0.3950247259792139
1403636660363555584,57.344675,450.99119354443,10.24794925,0.0817220833333333,-3.3015721666666664,-0.0090757121103705,-0.1773254520026238,0.1123992038284348,2.023406196402172,9.315227795578446,0.15413069324967488
1403636660613555456,51.939487,487.2447497077521,9.193734375,-0.0980665,-3.906315583333333,-0.0195476876223364,0.3511602455012591,0.0328121899374933,2.033195739486965,8.652902724104674,-0.2419498629696104
1403636660863555584,59.783221,762.253693818276,8.123175083333333,-0.3514049583333333,-3.170816833333333,-0.0411897703470661,0.1047197551196597,0.0209439510239319,3.7144627372611336,8.9619951832935,0.19132113876375278
1403636661113555456,45.45784,631.6422951844769,8.28661925,-0.2043052083333333,-3.0809225416666663,0.0705113017805709,-0.0174532925199432,0.2415535684760151,1.2256137421109106,9.282452842277586,0.19663112391190296
1403636661363555584,49.917936,685.4787014690535,8.736090708333332,-0.1634441666666666,-4.143309625,0.0139626340159546,0.0048869219055841,0.0823795406941323,0.9797643065841278,8.883442395443453,-0.151147910950435
1403636661613555456,49.870729,682.6877244362181,10.092677291666664,1.046042666666667,-2.5905900416666663,0.0216420827247296,-0.0642281164733913,0.1570796326794896,1.1284795877161407,8.536977832631377,-0.08187979563883907
1403636661863555584,49.213886,765.5980320219071,9.193734375,0.0817220833333333,-2.2228406666666665,0.0027925268031909,0.0006981317007977,0.1745329251994329,0.8301508236984025,9.05476062115532,-0.023795346787643723
1403636662113555456,42.370797,737.7218907661412,8.67888525,-0.1062387083333333,-4.829775124999999,0.0006981317007977,-0.036302848441482,0.0774926187885482,1.6175336476710533,8.569229085182394,-0.0806815378762451
1403636662363555584,46.874762,678.7048398282817,12.127557166666666,0.1389275416666666,-3.219850083333333,-0.0523598775598298,-0.0837758040957278,-0.0516617458590321,1.421554397249541,8.568155584751304,-0.06297189883392029
1403636662613555456,57.306051,457.5454932270518,8.327480291666665,0.4739880833333333,-2.778550833333333,0.0677187749773799,0.0656243798749867,0.4132939668722573,0.5552015862889664,8.475120888958793,-0.12007015308710578
1403636662863555584,59.968949,572.5047059145516,8.793296166666666,0.4331270416666666,-2.9338227916666666,-0.0495673507566389,-0.182212373908208,0.0509636141582344,0.4281849966837392,8.153667075359014,0.03200479766461761
1403636663113555456,49.892664,535.1986449834279,10.256121458333332,-0.7109821249999999,-2.6641399166666666,0.0376991118430775,-0.0942477796076938,0.228987197861656,0.40116522416010597,8.440723245945195,0.11200922189203588
1403636663363555584,46.265126,476.6564889738891,10.754626166666666,0.4821602916666666,-2.4189736666666666,-0.1319468914507713,-0.0118682389135614,-0.2527236756887789,0.3204834157978976,8.313396464250273,-0.23172632534958026
1403636663613555456,52.176237,469.7638685303287,9.087495666666666,0.9970094166666666,-3.8245935,-0.0383972435438752,0.0502654824574366,-0.0013962634015954,1.5445149491088734,8.837836169343854,0.004761815742133635
1403636663863555584,60.46629,312.8943019928459,11.931424166666664,0.1470997499999999,-4.241376125,-0.0509636141582344,0.2555162024919699,-0.0349065850398865,1.3375002847878843,9.475015960099222,0.1533387770784671
1403636664113555456,58.209657,318.7192090698137,8.687057458333333,0.93163175,-3.293399958333333,0.0921533845053006,0.0956440430092892,0.2492330171847902,2.005259124121546,10.887733287507421,0.21977407092231083
1403636664363555584,49.933672,303.80248073933416,8.883190458333333,-0.2043052083333333,-3.554910625,0.1137954672300302,0.153588974175501,0.1640609496874669,1.2948057196080638,9.972958683610225,-0.17929882223207017
1403636664613555456,32.830238,258.5665069647236,8.883190458333333,0.5311935416666667,-4.16782625,0.1933824811209717,0.0600393262686049,0.3302162944773272,1.8152855668932821,10.519222499662071,0.10113537701346331
1403636664863555584,47.716856,246.10919745003972,9.291800875,0.6537766666666667,-1.6753027083333332,0.1068141502220529,-0.0139626340159546,0.0293215314335047,0.4192899729534721,10.466576808906956,-0.14208501598463918
1403636665113555456,50.120353,246.08806987878532,9.520622708333333,-0.3023717083333333,-2.427145875,0.0600393262686049,-0.1270599695451872,0.0921533845053006,0.298516301528233,10.445041581996751,-0.04957443559790242
1403636665363555584,49.687624,239.54484946095155,10.158054958333333,0.0,-3.366949833333333,-0.0600393262686049,-0.0160570291183478,-0.054454272662223,1.8301885284437065,11.501281411092386,0.3692146177830722
1403636665613555456,60.510159,282.0540407437728,10.386876791666666,0.2124774166666666,-5.164835666666666,-0.0474729556542457,0.0628318530717958,0.0760963553869527,0.7309235675155871,11.24498155965357,0.04692043936012169
1403636665863555584,42.906284,197.54619874188924,9.177389958333332,0.7600153749999999,-3.08909475,0.1130973355292325,0.1445132620651305,0.418879020478639,1.0511677131926342,11.57598424287017,0.028879063128545823
1403636666113555456,49.768686,337.35809551008185,9.046634625,0.3595771666666666,-4.037070916666667,-0.046774823953448,0.046774823953448,0.0006981317007977,0.9427608571320368,11.96652395190762,-0.020713349385260926
1403636666363555584,49.834252,295.3222329375209,10.4931155,-0.1389275416666666,-3.293399958333333,0.1235693110411985,0.132645023151569,0.2485348854839925,0.5415203981164235,11.803537397798907,-0.03660421954866244
1403636666613555456,49.78323,269.6516491161274,9.782133375,-0.6782932916666666,-3.2443667083333327,-0.0370009801422797,-0.2624975194999471,-0.0635299847725936,1.3828057782987238,12.326966044311712,0.1185000947869419
1403636666863555584,57.616949,285.1617211179021,9.790305583333332,-0.907115125,-3.268883333333333,0.1514945790731078,-0.2757620218151041,0.4649557127312894,0.9227305687835455,12.867843046562196,0.11503718193904433
1403636667113555456,50.07267,276.83079209479234,9.022118,0.612915625,-3.08909475,-0.0740019602845595,0.418879020478639,-0.1375319450571531,0.37666062886954593,13.072610644986826,-0.008363910496777649
1403636667363555584,50.175429,456.3459548590235,10.117193916666666,0.1879607916666666,-3.3996386666666667,0.018151424220741,0.0495673507566389,-0.0090757121103705,1.3549752254659164,12.765711172468464,0.009749233988276984
1403636667613555456,49.637079,360.3705418013547,12.176590416666668,-0.3595771666666666,-3.334261,0.0509636141582344,-0.1389282084587486,0.2827433388230814,1.1222722060099297,12.685400171797975,-0.017926611806693415
1403636667863555584,46.832323,483.3480689181978,9.079323458333333,0.9888372083333332,-4.478370166666666,0.0188495559215387,0.1172861257340189,0.1242674427419962,2.4934470312497377,13.092396764957323,0.14738910993182586
1403636668113555456,43.416738,578.4685270351679,11.106031125,-0.53936575,-3.407810875,-0.1117010721276371,-0.0600393262686049,-0.0237364778271228,3.891294322094195,14.83018702280498,0.35733376707894493
1403636668363555584,59.791804,618.8915832694446,9.332661916666666,0.5557101666666666,-2.59876225,-0.0495673507566389,0.0509636141582344,0.1773254520026238,2.6110040092963764,16.50938076183185,0.22936163100701634
1403636668613555456,60.904026,632.4056873575308,8.376513541666666,0.5965712083333333,-2.631451083333333,-0.0802851455917391,0.1026253600172665,0.0349065850398865,3.9002158408665673,19.65370955770993,0.9456778828422543
1403636668863555584,49.919128,520.0537456250232,9.136528916666666,-0.5965712083333333,-3.2280222916666665,-0.0691150383789754,0.1682497398922533,-0.1668534764906579,3.5697096287091536,22.64767500904376,0.5317907874658019
1403636669113555456,30.840635,551.9015412720014,10.632043041666666,0.6537766666666667,-3.979865458333333,0.0516617458590321,0.075398223686155,0.2694788365079245,2.4198410672789312,24.857462082129842,0.33916888127518874
1403636669363555584,46.600104,594.011894221784,8.703401874999999,0.392266,-2.3862848333333333,-0.0048869219055841,-0.0614355896702004,0.085870199198121,3.530227582715152,27.684094352923122,0.7937645630937276
1403636669613555456,42.248249,436.2695512458061,7.992419749999999,-0.367749375,-2.672312125,-0.0083775804095727,0.2708750999095199,0.0383972435438752,2.904025716568355,29.64976111913142,0.340329063046763
1403636669863555584,49.318075,425.7837287158811,11.2776475,1.5363751666666667,-4.159654041666666,0.2387610416728242,-0.0342084533390888,0.7113962031128886,2.611438347735689,31.71499752505551,0.2069273693389313
1403636670113555456,57.015658,531.2109636956284,9.438900625,0.5148491249999999,-1.830574666666667,0.1633628179866692,0.1884955592153876,0.2038544566329376,3.4376073880186966,28.911040489738145,-1.6038565023363631
1403636670363555584,49.30687,480.8224156001077,10.207088208333332,-0.3105439166666667,-3.2443667083333327,0.1989675347273535,-0.124965574442794,0.1773254520026238,8.729298327060278,22.483706883876764,-0.8024099842235373
1403636670613555456,39.543391,457.201189790427,11.71894675,-0.2860272916666666,-4.192342875,0.418879020478639,-0.0251327412287183,0.0439822971502571,6.555781721232114,18.287495632412313,-0.6193369194873242
1403636670863555584,60.999393,389.14080901320585,11.318508541666665,0.4249548333333333,-4.788914083333333,0.6590363255530588,0.0237364778271228,0.2059488517353309,3.1507173883706376,16.86787536272726,-0.08961718529204177
1403636671113555456,50.164222,417.3288673258967,9.528794916666666,-0.4903325,-4.396648083333333,0.5452408583230285,-0.1968731396249603,-0.3895574890451343,0.8335756389555342,16.971532091175153,0.10567630993372035
1403636671363555584,71.932554,399.2238466230562,7.485742833333332,0.1062387083333333,-2.549729,0.132645023151569,-0.364424747816416,-0.76026542216873,2.5553127051531037,16.775249804391095,0.19075387778204345
1403636671613555456,50.548554,326.41639198761794,7.412192958333333,0.2860272916666666,-2.0920853333333334,0.1312487597499735,-0.3246312408709453,-0.0907571211037051,0.6768991647930384,16.44048854913742,-0.22341425699238115
1403636671863555584,49.92652,323.7528503632793,12.127557166666666,0.6047434166666666,-3.9390044166666662,-0.0425860337486616,-0.0998328332140756,0.0530580092606276,1.453768083339497,15.414943809481327,-0.11062385354665416
1403636672113555456,60.065508,313.19616592927594,9.1201845,-0.4576436666666666,-3.652977125,-0.1766273203018261,0.0872664625997164,-0.1256637061435917,0.6162928275550231,14.685251042395823,-0.11947372007617929
1403636672363555584,60.755491,341.0815325306668,7.322298666666667,-0.8172208333333333,-1.789713625,-0.1382300767579508,0.2946115777366427,-0.2122320370425104,1.7863539609714836,14.803405652481553,-0.10909417564742263
1403636672613555456,49.317598,347.02505016125235,6.014745333333333,0.3350605416666666,-1.3565865833333333,0.0795870138909414,0.4000294645571003,0.3546509040052477,0.5534268346125937,14.918938219066085,0.3660659806388633
1403636672863555584,49.620867,497.2863186938542,9.733100125,-0.7109821249999999,-3.734699208333333,0.1396263401595463,-0.0356047167406843,0.0083775804095727,0.6749234147544232,14.871256633949786,-0.13257173160787517
1403636673113555456,49.886227,376.3080207425143,10.942586958333331,-0.1144109166666666,-1.7079915416666664,0.3218387140677544,-0.0034906585039886,-0.093549647906896,1.2590016824244774,14.826177757805054,-0.06887488231420136
1403636673363555584,63.308477,567.068902332764,9.5124505,0.0898942916666666,-3.751043625,0.1096066770252439,-0.0293215314335047,0.0802851455917391,1.6360327302947648,15.410828409856128,0.045441380434594336
1403636673613555456,55.262089,363.802769547165,7.40402075,0.3595771666666666,-2.0021910416666664,0.0188495559215387,0.3790855135331683,0.0132645023151569,1.160879042486149,15.828647539696238,0.214037565670262
1403636673863555584,50.000906,683.6120061981092,9.07115125,0.3759215833333333,-3.4731885416666666,0.0111701072127637,0.104021623418862,0.0509636141582344,1.4140449370438393,16.781273191026422,0.19784791425143666
1403636674113555456,49.959898,600.051734915636,9.161045541666669,0.9643205833333331,-3.260711125,0.0349065850398865,0.0551524043630208,0.1075122819228507,0.6471805651874173,17.39668020293148,-0.030378349110097957
1403636674363555584,50.43602,461.46299020995457,8.466407833333333,0.0163444166666666,-3.1299557916666663,0.1696460032938488,0.0956440430092892,0.3204424506661589,0.400941929774292,17.27252846389722,-0.04741872982475215
1403636674613555456,49.666167,488.2223305227381,8.580818749999999,-0.1634441666666666,-3.563082833333333,0.1808161105066125,0.0048869219055841,0.0370009801422797,0.4340318102071895,17.555265073618656,-0.03642186777659617
1403636674863555584,60.328722,307.82550159053505,10.713765125,-0.2288218333333333,-4.126965208333333,0.0900589894029074,-0.2268928027592628,0.093549647906896,2.1689320308964657,16.627145544867396,-0.29777471401979483
1403636675113555456,38.834334,498.00783168639407,10.34601575,0.7600153749999999,-3.2280222916666665,-0.1235693110411985,-0.0956440430092892,-0.1843067690106012,0.8916263964082554,15.941163866309566,0.05175396058488069
1403636675363555584,49.726486,340.57636813889286,8.5317855,-0.4331270416666666,-3.726527,-0.0237364778271228,0.2827433388230814,-0.0844739357965255,0.37245852013621306,16.18870087576452,0.042020995476605094
1403636675613555456,39.5298,408.2994642600939,9.291800875,-0.784532,-2.966511625,0.1926843494201739,0.2876302607286655,-0.0942477796076938,1.7864454334972328,16.236238689003457,0.014598281011259928
1403636675863555584,49.991608,294.7023354829154,8.490924458333334,0.1552719583333333,-3.1054391666666663,0.5131268000863328,0.1584758960810851,0.4153883619746504,1.175710218240955,16.09559298501275,0.021180868419484966
1403636676113555456,50.248623,407.5061648598636,10.076332875,0.1062387083333333,-2.9338227916666666,0.2925171826342496,-0.1179842574348166,-0.3036872898470133,1.382803350305835,17.012587485666096,-0.2720498765864292
1403636676363555584,60.70304,420.82085853012927,9.046634625,1.0215260416666667,-3.587599458333333,0.3811799086355615,0.0537561409614253,-0.3420845333908886,3.9040085777410902,14.706607767965451,-0.07765615685628013
1403636676613555456,59.460401,384.3228469432722,8.646196416666667,0.6210878333333334,-3.178989041666666,0.3762929867299774,0.0607374579694026,0.1605702911834783,0.7254277889604377,14.665900343961447,0.02015187675814012
1403636676863555584,49.914598,515.5741093898881,9.7085835,-0.0980665,-3.661149333333333,0.2073451151369263,-0.0977384381116824,0.1829105056090057,2.4425244424710177,13.926810593615812,-0.05550511204380548
1403636677113555456,61.081171,633.2171370852557,8.09048625,0.5148491249999999,-4.118792999999999,-0.085870199198121,-0.0062831853071795,-0.1096066770252439,1.5353047403331785,13.936846514274464,0.0021509083631734427
1403636677363555584,49.416542,402.9090509811455,9.210078791666666,0.2043052083333333,-3.3506054166666663,0.1696460032938488,0.2373647782712288,-0.0488692190558412,1.8710699004085063,14.476136198668915,0.3060414704126977
1403636677613555456,39.525747,429.50203172963,13.230805291666666,-0.4331270416666666,-4.159654041666666,0.4265584691874141,0.0209439510239319,0.1905899543177807,1.6057941674013871,15.887726976304094,0.26263424846327155
1403636677863555584,49.861908,343.4648682739617,9.013945791666666,0.6456044583333332,-2.40262925,0.5773549165597242,-0.2157226955464991,0.1633628179866692,3.391757215047858,15.978918138523085,0.17876747882732147
1403636678113555456,59.946776,509.49248688662846,9.929233125,0.3759215833333333,-3.2443667083333327,0.2617993877991494,0.0628318530717958,-0.2464404903815993,1.1398333029783614,16.548274352630912,0.12488293706170239
1403636678363555584,58.089018,502.8927665778374,11.220442041666669,-0.24516625,-4.053415333333333,0.333008821280518,0.0013962634015954,-0.0251327412287183,0.6070203457943196,16.650681358695067,0.08700689307022103
1403636678613555456,61.008453,452.39715179935337,8.278447041666666,1.5036863333333332,-2.99102825,0.4440117617073574,0.0998328332140756,-0.2750638901143063,0.8556342582207157,16.234705508825574,-0.16673697758347927
1403636678863555584,59.688806,472.7589558296363,7.632842583333333,0.0980665,-2.606934458333333,0.3288200310757317,0.0390953752446729,-0.4209734155810323,1.079079176014413,15.895058388797448,-0.17507903093957822
1403636679113555456,50.132275,390.4326545678032,6.733899666666666,0.0980665,-2.3944570416666666,0.4719370297392667,0.1584758960810851,0.0823795406941323,0.9402466101086341,15.53282933662662,0.14020588075974239
1403636679363555584,60.134649,382.7317607716275,9.242767625,0.7763597916666666,-3.1054391666666663,0.5159193268895238,0.0565486677646162,0.0090757121103705,0.7749691885694756,16.105945834003364,0.24377604583389711
1403636679613555456,39.683581,532.57096434282,8.302963666666667,0.7681875833333334,-3.4323274999999995,0.3085742117525974,-0.057246799465414,-0.0411897703470661,0.6164445114474211,16.404207122722855,-0.11668806884955885
1403636679863555584,40.220975,467.6864943355026,10.386876791666666,-0.5557101666666666,-2.557901208333333,-0.0097738438111682,0.2045525883337354,-0.0823795406941323,1.3235295139270429,16.31835724660544,-0.1544523277261476
1403636680113555456,33.180952,501.0240240659648,9.855683249999998,0.1307553333333333,-3.162644625,-0.1151917306316257,0.0719075651821663,-0.2408554367752175,2.9602079435795434,16.61589529622494,0.12692529094915272
1403636680363555584,49.645423,498.2183229664748,8.834157208333334,0.2941994999999999,-2.9256505833333333,-0.1410226035611418,-0.1528908424747032,-0.1389282084587486,0.8916144153286856,16.767136234940775,0.07092972746856674
1403636680613555456,36.047936,529.750389199273,8.817812791666666,-0.2124774166666666,-3.4568441249999995,0.007679448708775,-0.0349065850398865,0.2534218073895766,0.4450974503409988,16.26031334129506,-0.06397952481304259
1403636680863555584,49.929142,338.7018682143864,7.84532,0.4739880833333333,-2.574245625,0.1494001839707146,-0.0691150383789754,0.5808455750637129,0.4805593107060179,16.018048987852453,0.10673524571164705
1403636681113555456,52.437544,472.60383904102457,8.253930416666666,0.8008764166666666,-3.170816833333333,-0.0265290046303138,-0.2213077491528809,0.0195476876223364,1.1948118553110345,15.877824441233033,-0.16860144429474921
1403636681363555584,38.778543,382.6681651447987,9.299973083333333,0.5230213333333333,-4.886980583333333,-0.0460766922526503,0.2869321290278678,0.0523598775598298,2.142900940764093,15.160949013718284,-0.23921705991004316
1403636681613555456,50.221205,531.8175146211681,9.259112041666668,0.220649625,-3.407810875,-0.0111701072127637,0.0579449311662117,-0.0279252680319092,1.8435840113350426,14.621232780648711,-0.056247608382852476
1403636681863555584,50.089836,517.4265867791042,10.321499125,-0.2369940416666666,-3.415983083333333,0.0446804288510548,-0.0132645023151569,0.1103048087260416,1.4074279487031665,14.409385277714993,-0.01509299784206597
1403636682113555456,49.329996,494.0334332406405,8.041452999999999,0.1389275416666666,-3.2525389166666665,-0.0048869219055841,0.0823795406941323,0.0153588974175501,1.0666736791811358,14.426631191641842,-0.09450402475338393
1403636682363555584,50.217628,459.7461273223676,8.891362666666666,-0.1307553333333333,-1.5527195833333332,0.0083775804095727,-0.132645023151569,0.1556833692778942,1.9062369957465428,13.747625077498723,-0.15887878675353662
1403636682613555456,38.608789,433.24072935599503,9.447072833333332,0.5475379583333333,-2.9256505833333333,-0.0349065850398865,0.2562143341927675,-0.0425860337486616,0.7284392517630348,13.804241260013209,0.087246416035617
1403636682863555584,47.264576,590.3975833474802,9.9047165,0.3268883333333333,-2.827584083333333,0.0111701072127637,0.0656243798749867,-0.0041887902047863,1.508007085700548,14.362453947662573,0.11823542527018205
1403636683113555456,49.72291,509.3949920643476,9.643205833333331,0.465815875,-3.726527,0.018151424220741,0.0600393262686049,0.1033234917180643,1.1717871883814772,14.935079481054686,0.16356089796206774
1403636683363555584,34.204483,457.18781345194543,8.302963666666667,0.196133,-2.312734958333333,0.0705113017805709,-0.0628318530717958,0.179419847105017,1.4424304129865018,15.936978764628073,0.13810392970651364
1403636683613555456,49.9444,443.03100195994506,7.477570624999999,0.2369940416666666,-2.30456275,-0.0160570291183478,0.0097738438111682,0.0209439510239319,2.682985238999395,17.626743890404146,0.2242172629086241
1403636683863555584,49.67618,528.7957390957397,12.715956166666665,1.005181625,-4.184170666666667,0.1012290966156711,0.0097738438111682,0.140324471860344,3.439165448594607,20.23658498167666,0.5311105239407539
1403636684113555456,49.702883,515.6814691776345,8.597163166666666,0.4576436666666666,-3.587599458333333,0.018151424220741,0.054454272662223,0.0307177948351002,0.4270821215844615,20.51000328967609,-0.5230467165550401
1403636684363555584,39.800882,479.14759388177015,7.322298666666667,0.024516625,-2.672312125,0.0216420827247296,0.1082104136236484,0.0663225115757845,3.222686253537773,17.640021585436404,-0.44174864940625014
1403636684613555456,60.432196,470.018068537269,9.275456458333332,-0.392266,-3.571255041666667,0.0062831853071795,0.0111701072127637,0.0879645943005142,0.9912226321635835,16.61640579519635,0.006795115945706698
1403636684863555584,51.115274,474.77050231463113,8.319308083333333,0.73549875,-3.391466458333333,0.025830872929516,0.0425860337486616,0.0370009801422797,2.2229223190782,17.024363208035762,0.08118119586390193
1403636685113555456,44.511795,461.2741189643502,10.460426666666669,0.024516625,-2.533384583333333,-0.0397935069454707,-0.0118682389135614,0.0579449311662117,1.9397554774797057,15.811655552066691,0.0826961258456187
1403636685363555584,50.287008,595.3161610112579,8.556302125,0.1634441666666666,-2.8602729166666667,-0.075398223686155,0.0006981317007977,0.0174532925199432,3.9510413111120175,12.42953391816528,-1.5923704818526012
1403636685613555456,49.961566,559.6500270186636,8.703401874999999,0.1797885833333333,-3.0400615,0.0551524043630208,0.0698131700797731,0.1905899543177807,0.7895164220624535,12.539750413034009,0.23785975262670966
1403636685863555584,46.932221,543.0717111576992,8.172208333333334,0.8499096666666667,-1.9695022083333331,-0.0495673507566389,0.054454272662223,-0.0041887902047863,0.9150131076500357,13.189786830918521,0.15631663309060606
1403636686113555456,49.587726,530.9396196744332,11.955940791666666,0.3759215833333333,-3.8899711666666654,0.0397935069454707,-0.025830872929516,0.2101376419401172,0.48264901584938613,13.54038513529145,0.24029856320111698
1403636686363555584,60.975551,584.9012654962477,7.044443583333333,0.7028099166666667,-2.1166019583333333,-0.0328121899374933,-0.0425860337486616,0.064926248174189,0.5705578431132882,13.569358325249011,-1.0276441495075925
1403636686613555456,49.2208,547.8679945396714,8.556302125,-1.3075533333333331,-2.0593965,0.0293215314335047,-0.143116998663535,0.054454272662223,3.5181892472912044,10.692360134280571,0.12048867029867694
1403636686863555584,50.230265,587.0650448928143,10.019127416666668,0.0,-4.110620791666666,0.0516617458590321,0.093549647906896,0.1445132620651305,1.7918838307732738,11.826497826532515,0.11338970391042302
1403636687113555456,49.579144,605.6278476189923,10.166227166666664,-0.6701210833333332,-2.0512242916666668,0.0209439510239319,0.0579449311662117,0.1151917306316257,1.672247041417755,10.67465424134434,-0.56397139787701
1403636687363555584,43.719291,625.5362400508413,8.311135875,0.0572054583333333,-3.113611375,-0.0397935069454707,0.0558505360638185,0.0432841654494593,6.445871883771486,7.6911681591950956,0.01626645976559704
1403636687613555456,35.336972,577.8772568344148,9.741272333333333,-0.5475379583333333,-3.979865458333333,0.0083775804095727,0.0111701072127637,0.1186823891356144,2.1372588204551564,8.282099568491873,0.02543859063368714
1403636687863555584,50.698519,587.7392236733291,7.935214291666666,0.392266,-1.985846625,-0.0314159265358979,0.0663225115757845,0.0321140582366956,5.152439111012127,9.232342795908576,0.5872740347629914
1403636688113555456,49.692869,584.3446540822849,9.218251,0.7763597916666666,-3.2443667083333327,-0.0439822971502571,-0.0118682389135614,-0.0013962634015954,3.1834878155073403,10.685863217356022,-0.7082929104503286
1403636688363555584,49.589396,589.9209882687488,8.539957708333333,-0.661948875,-4.184170666666667,0.0027925268031909,0.0565486677646162,0.1696460032938488,0.634135153286445,10.83595744166858,-0.1591323676742391
1403636688613555456,38.206816,602.1255895841978,7.869836625,-0.4821602916666666,-2.40262925,-0.0579449311662117,-0.0390953752446729,-0.1075122819228507,0.32856804346779306,10.605819228534228,0.04673045257557007
1403636688863555584,49.992323,445.7108399117128,10.1008495,0.0572054583333333,-4.274064958333334,0.0893608577021096,-0.0879645943005142,0.0509636141582344,1.8176072153945178,9.115900223711623,-0.2019870831968209
1403636689113555456,49.648046,508.39802215755,10.697420708333333,0.318716125,-3.358777625,0.171740398396242,-0.0684169066781777,0.1256637061435917,0.877403802877102,8.59818299327685,0.2934411802498289
1403636689363555584,49.702406,610.2300549393696,9.716755708333332,0.465815875,-2.7376897916666665,0.0509636141582344,-0.0237364778271228,0.0111701072127637,2.55282619188651,6.967776925390629,-0.07025892827148272
1403636689613555456,48.603534,639.4260709200394,8.196724958333332,0.6782932916666666,-1.6834749166666665,0.0055850536063818,-0.0265290046303138,0.0949459113084915,1.2666125504739307,6.952404180289036,0.24717544049219597
1403636689863555584,49.228192,585.1262427792948,9.667722458333332,0.4903325,-2.59876225,0.0097738438111682,0.1473057888683213,0.1801179788058148,1.4646149468296779,8.181750207452644,-0.006143296091337902
1403636690113555456,39.770842,704.9770666759869,10.092677291666664,-0.0653776666666666,-3.57942725,-0.104021623418862,-0.0300196631343024,-0.1801179788058148,0.9078633404294381,8.669020795660174,0.04892027287682765
1403636690363555584,46.675682,670.31706828699,8.989429166666666,0.8008764166666666,-3.5222217916666665,-0.046774823953448,0.0251327412287183,-0.0390953752446729,1.3144934962091799,8.632057789655406,-0.05109502387744769
1403636690613555456,41.704416,577.4008685716188,8.180380541666665,0.3268883333333333,-3.530394,0.0907571211037051,-0.0600393262686049,0.3783873818323706,1.5350705183077893,8.408905983845905,-0.018860867293989614
1403636690863555584,59.356212,537.1393716554461,11.163236583333331,-0.5965712083333333,-3.505877375,0.0760963553869527,0.361632221013225,0.2247984076568696,2.3109479410454656,8.154470964262282,0.041007743543316266
1403636691113555456,49.579143,394.97954344855015,8.981256958333333,0.5066769166666666,-3.358777625,-0.064926248174189,0.3036872898470133,-0.2038544566329376,2.3015956734296354,8.792427276755848,0.1720687947644297
1403636691363555584,53.122759,469.1170378311193,10.844520458333331,-0.8989429166666666,-3.293399958333333,-0.0656243798749867,-0.1759291886010284,-0.2422517001768129,0.70624153628339,9.32074180351451,0.30432101288155167
1403636691613555456,49.953937,507.7178332690531,10.607526416666667,-0.4249548333333333,-3.18716125,0.0432841654494593,-0.1829105056090057,0.0034906585039886,1.0273212789759927,9.598025736720516,0.08847605946205483
1403636691863555584,52.13356,556.2175734624847,7.134337875,-0.63743225,-3.530394,0.0432841654494593,-0.0998328332140756,0.1542871058762987,1.364199057682112,9.027765082556849,0.08068059358212665
1403636692113555456,49.873114,513.0884605723083,10.378704583333333,0.367749375,-3.4568441249999995,-0.0370009801422797,-0.1033234917180643,0.0300196631343024,0.720793342085461,9.44132613796268,0.20856001056068507
1403636692363555584,49.330235,600.6038790957565,10.166227166666664,0.2533384583333333,-3.661149333333333,0.0356047167406843,0.0244346095279206,0.1891936909161853,0.6047819641606506,9.89914709306785,0.08488623218671165
1403636692613555456,49.04294,677.6815498001607,10.934414749999998,-0.465815875,-4.437509125,0.0370009801422797,0.0383972435438752,0.2017600615305445,1.5569772746761268,10.408038157057481,0.047769146823615216
1403636692863555584,42.664289,660.9951351635983,7.886181041666666,0.2941994999999999,-2.476179125,-0.1082104136236484,-0.1438151303643327,-0.1270599695451872,2.0695751671510196,10.337780123924082,-0.023358281379895374
1403636693113555456,50.246954,712.8621003073758,8.172208333333334,-0.809048625,-3.334261,0.0705113017805709,0.0963421747100869,0.2617993877991494,0.9016648122882784,9.41307344188981,-0.3865083103509104
1403636693363555584,50.509453,766.900937502694,8.703401874999999,0.1552719583333333,-3.211677875,0.0537561409614253,-0.1780235837034216,0.2178170906488923,0.6940625363864669,8.754678799468154,0.0439007420643609
1403636693613555456,49.855232,702.221184592446,9.1201845,0.6456044583333332,-3.178989041666666,0.057246799465414,-0.1284562329467826,0.0740019602845595,0.6849802492803287,8.573271016240106,-0.0838999624020289
1403636693863555584,59.872866,486.3056082291931,7.183371125,1.1686257916666667,-3.2361945,0.0593411945678072,0.4202752838802345,0.0747000919853573,0.591906440316662,8.301109828713836,0.00018714341219094877
1403636694113555456,71.469307,580.5651048368838,11.514641541666665,0.4004382083333333,-4.004382083333333,0.018151424220741,0.1368338133563554,0.0663225115757845,0.2010570046183506,8.303841213150474,-0.005401506561062419
1403636694363555584,49.930811,767.4796491722108,8.5317855,0.3023717083333333,-3.930832208333333,-0.0614355896702004,-0.0558505360638185,0.0879645943005142,0.29675962512997645,8.274167379815353,-0.040951360527705205
1403636694613555456,39.906025,799.4253784201102,8.041452999999999,-0.6864655000000001,-4.151481833333333,-0.0188495559215387,-0.0090757121103705,0.0795870138909414,0.3187510959620496,8.191221873333882,-0.0053832205066211
1403636694863555584,50.332785,662.5726967656576,7.9433865,0.0980665,-1.7161637499999998,0.1110029404268393,-0.0146607657167523,0.3113667385557884,0.4212371149952187,8.002661271157628,0.14269744988998312
1403636695113555456,49.981355,754.6692075379561,10.533976541666666,-0.2941994999999999,-3.219850083333333,-0.0851720674973232,-0.064926248174189,-0.0034906585039886,0.7894525258002797,8.384735185472014,0.17023590626049412
1403636695363555584,60.176373,702.2123546745901,11.048825666666666,-0.1634441666666666,-3.546738416666667,-0.0048869219055841,0.028623399732707,0.0642281164733913,0.46631023093145735,8.860154885690303,0.05903920997478984
1403636695613555456,48.084021,657.7868650294201,9.136528916666666,0.1797885833333333,-3.2770555416666665,-0.0691150383789754,0.0034906585039886,-0.0041887902047863,0.4020485889007773,9.198712534619908,0.07049037569414196
1403636695863555584,52.81353,756.0086733182108,8.621679791666667,1.201314625,-1.9449855833333327,0.0090757121103705,0.0502654824574366,0.122173047639603,0.9320691725526721,9.821674928969843,0.1782594047811461
1403636696113555456,38.526058,602.9525484626002,9.56148375,0.04903325,-3.358777625,-0.0663225115757845,-0.1207767842380075,-0.0048869219055841,1.3397875781783297,10.948926554600684,0.015243447126298548
1403636696363555584,58.771372,421.5437007214946,10.656559666666666,0.0735498749999999,-3.2443667083333327,0.0307177948351002,0.478918346747244,0.2227040125544764,0.32843984506502255,11.197391461644873,-0.009376473967769527
1403636696613555456,49.888134,742.8392415299421,9.087495666666666,0.3595771666666666,-2.868445125,0.0509636141582344,0.0774926187885482,0.1165879940332212,0.5578569367737566,11.613524413451122,0.12452647717359078
1403636696863555584,49.761534,734.6644402117404,9.553311541666666,0.5066769166666666,-3.366949833333333,-0.0474729556542457,0.0851720674973232,-0.0223402144255274,0.8154604626391289,12.378459195557689,0.1879456464097462
1403636697113555456,55.981159,553.3263457851236,10.811831625,-0.9152873333333332,-4.086104166666667,-0.0747000919853573,-0.1556833692778942,-0.0328121899374933,0.4551113186153439,12.494368916036388,-0.10499352171572696
1403636697363555584,52.202701,540.589703318209,9.80665,0.93163175,-3.652977125,0.0670206432765822,-0.1354375499547599,0.3651228795172137,0.6042105538777328,12.140906522732037,-0.05843034441572037
1403636697613555456,50.862312,687.7837918761084,10.419565625,-0.4494714583333333,-3.800076875,-0.3001966313430246,0.0118682389135614,0.2261946710584651,0.8515312448656683,11.42566245598811,-0.0659677872358202
1403636697863555584,50.055027,596.1041982175459,9.716755708333332,0.0326888333333333,-3.195333458333333,-0.3735004599267865,-0.0118682389135614,0.2192133540504878,0.5544595400944994,11.331630510567656,0.03371311643539343
1403636698113555456,50.001622,724.5444528432639,8.638024208333333,0.2615106666666666,-2.9338227916666666,-0.1682497398922533,-0.1193805208364121,0.1996656664281513,0.3731249267803565,10.943313840890916,-0.011266476513792867
1403636698363555584,39.03985,637.4104713936518,9.896544291666666,-0.1552719583333333,-2.5660734166666663,-0.2932153143350474,0.0677187749773799,0.2527236756887789,0.3858119562796001,10.637915431359303,-0.057594074851113675
1403636698613555456,60.234309,562.2450447122047,8.09048625,0.612915625,-3.9880376666666666,-0.4796164784480418,0.0062831853071795,0.314857397059777,0.7105214840064735,10.175501304713407,-0.15732333810811028
1403636698863555584,50.225735,565.8227629443713,9.847511041666666,-0.3023717083333333,-3.260711125,-0.4642575810304917,0.1759291886010284,0.5054473513775578,1.1327231841718315,9.75345964018381,-0.15040694347379358
1403636699113555456,49.958229,587.8866904728566,8.948568125,0.3759215833333333,-3.334261,-0.5445427266222308,0.0823795406941323,0.2911209192326541,0.26333666229073877,9.629529951869793,0.006359516791647479
1403636699363555584,57.80363,544.6303371807171,9.332661916666666,0.0653776666666666,-4.241376125,-0.546637121724624,0.0837758040957278,0.4167846253762458,0.9760296867673955,10.58903210631022,0.2964256706894819
1403636699613555456,50.240517,607.0517696784822,8.425546791666665,0.0163444166666666,-3.77556025,-0.468446371235278,0.0439822971502571,0.3497639820996636,0.786229578489378,10.800176322480125,-0.1325686865750484
1403636699863555584,39.250612,648.5793492778306,7.216059958333333,0.269682875,-3.669321541666666,-0.3413864016900908,0.2687807048071267,0.0642281164733913,0.9734001700301322,10.15495335278128,-0.1399211287062947
1403636700113555456,56.687593,932.9698547636516,7.657359208333333,0.3595771666666666,-1.9776744166666664,-0.0893608577021096,0.007679448708775,0.0670206432765822,1.5060729071935346,9.732529491607782,-0.0667920962618247
1403636700363555584,49.866677,804.798909285387,9.1201845,-0.3514049583333333,-4.069759749999999,-0.1019272283164688,-0.0523598775598298,0.2673844414055313,0.9805509583546989,9.548101978492543,0.011910645910926831
1403636700613555456,39.286375,637.7225365896567,8.474580041666666,0.8253930416666666,-3.391466458333333,-0.249931148885588,0.2366666465704311,0.0712094334813686,2.4169290730944146,10.955422210902126,0.09211454084837989
1403636700863555584,60.08172,795.4379021123484,9.471589458333332,-0.0572054583333333,-3.268883333333333,-0.0907571211037051,-0.1954768762233649,0.1703441349946465,3.1597448396199845,13.182897414630638,0.5568590268490059
1403636701113555456,57.26409,904.527879547584,10.8853815,0.0,-4.8052585,-0.0530580092606276,-0.0760963553869527,-0.0670206432765822,1.2392507189143513,14.02800642268018,-0.11796999775079442
1403636701363555584,49.302101,1014.5951920594948,8.229413791666666,0.3514049583333333,-2.6477955,0.0027925268031909,0.0411897703470661,0.036302848441482,1.6393890600772545,12.534109966023498,-0.11817969093080372
1403636701613555456,61.205387,924.8479485053992,8.490924458333334,0.9724927916666666,-3.358777625,0.0342084533390888,0.1640609496874669,-0.0390953752446729,0.5626493724882003,12.675140741959416,-0.09360273140948294
1403636701863555584,53.556681,746.311938699784,7.289609833333333,-0.2941994999999999,-3.1054391666666663,-0.2666863097047335,-0.0621337213709981,0.1368338133563554,0.5940563739841529,12.704990443321176,0.033402429779481935
1403636702113555456,37.325859,616.1761613160809,9.095667875,-0.5230213333333333,-2.525212375,-0.4412192349041665,0.0816814089933346,0.2017600615305445,0.8547996340719651,12.836934955183738,-0.21944650508608987
1403636702363555584,49.442053,545.5296651916597,8.793296166666666,-0.0081722083333333,-2.2963905416666663,-0.260403124397554,0.0139626340159546,0.0998328332140756,0.7418068941018285,12.441437603086717,0.06100244525249998
1403636702613555456,61.04064,566.8418379766025,8.123175083333333,-0.73549875,-2.50069575,-0.1033234917180643,-0.0879645943005142,0.0425860337486616,2.404068538796517,13.216416588085833,0.4578720594732495
1403636702863555584,50.741672,626.7847395142504,9.618689208333333,0.6782932916666666,-4.045243125,-0.0418879020478639,-0.0349065850398865,0.036302848441482,2.4662973840200237,14.872000430381934,0.2960531128975852
1403636703113555456,60.047388,482.40620043995017,11.710774541666666,-0.7273265416666667,-4.919669416666666,0.08307767239493,0.2492330171847902,0.2988003679414292,1.6523657285407198,15.665601419401654,-0.020784651308311197
1403636703363555584,46.865941,739.2718514471945,8.221241583333333,0.612915625,-2.280046125,-0.007679448708775,0.0495673507566389,-0.0055850536063818,0.8364734052285429,15.92986772956014,0.15461180702417998
1403636703613555456,49.559116,651.8046251661543,10.190743791666666,0.024516625,-4.46202575,-0.0174532925199432,-0.122173047639603,-0.0230383461263251,0.5831784943196825,15.420108317895501,-0.08233746627066196
1403636703863555584,40.296077,585.2768293848321,9.684066875,-0.8825985,-3.391466458333333,0.0418879020478639,0.0705113017805709,0.1864011641129944,1.0923635171312727,15.012737481657728,-0.04721824856937573
1403636704113555456,43.914318,609.42960672517,10.305154708333331,-0.7763597916666666,-3.1217835833333334,0.0195476876223364,-0.1319468914507713,0.0774926187885482,0.936279484341104,14.952044543598591,0.028131343293168243
1403636704363555584,49.718141,628.9417086656375,10.256121458333332,0.4004382083333333,-3.0073726666666665,0.0160570291183478,-0.0886627260013119,0.0607374579694026,0.4518326818380962,15.153460217988354,0.03525289927203801
1403636704613555456,40.057897,635.0831546855325,8.302963666666667,-0.1062387083333333,-4.151481833333333,0.0293215314335047,-0.0272271363311115,0.0132645023151569,1.1627132609156465,15.166210105821975,-0.039783329257534916
1403636704863555584,42.705774,561.8788409837285,8.074141833333334,0.0163444166666666,-2.59876225,0.0132645023151569,-0.0607374579694026,0.0446804288510548,1.4650242589546991,15.450027441375521,0.06448101917699489
1403636705113555456,49.034834,377.50329622140407,8.490924458333334,0.0653776666666666,-3.881798958333333,-0.0069813170079773,0.249931148885588,0.0684169066781777,0.9532962965301015,15.82915824310447,0.05471561536725744
1403636705363555584,40.180445,550.482332702141,8.638024208333333,0.1307553333333333,-2.50069575,-0.0146607657167523,0.2038544566329376,0.0628318530717958,1.039167721029479,16.276517917618207,0.15039528520276946
1403636705613555456,50.04406,577.714477675364,8.997601374999999,0.0980665,-3.963521041666666,0.0321140582366956,-0.0712094334813686,0.1975712713257581,1.0163945555652132,16.996275091999998,0.08187372026368678
1403636705863555584,48.123837,378.1693767289072,9.504278291666663,0.4821602916666666,-3.734699208333333,0.064926248174189,0.1850049007113989,0.2527236756887789,0.482224149163686,17.354890769664067,0.08891756515396665
1403636706113555456,49.609184,570.0006343761542,10.656559666666666,0.220649625,-4.396648083333333,0.0244346095279206,0.0370009801422797,0.2317797246648469,0.8476123373617854,17.931539950475813,0.12472784541170512
1403636706363555584,50.373078,546.3682640441016,9.013945791666666,-0.0081722083333333,-2.582417833333333,-0.0558505360638185,-0.0118682389135614,-0.1319468914507713,0.574689182622163,17.63721967433032,-0.13285448537888556
1403636706613555456,39.138079,619.8691875580298,10.525804333333332,-0.1552719583333333,-4.633642125,0.0460766922526503,0.0062831853071795,0.1228711793404008,1.851151958071568,16.97015503349206,-0.15012304942727894
1403636706863555584,50.40288,598.2537127268256,10.215260416666666,0.24516625,-5.418174124999999,-0.0586430628670094,-0.0565486677646162,0.1165879940332212,1.0008251162911783,17.844713604444003,0.25600047888351796
1403636707113555456,49.377679,580.371603328593,7.583809333333333,-0.0081722083333333,-4.290409374999999,-0.0747000919853573,0.1577777643802873,0.1026253600172665,4.067578634790282,21.01167523862064,0.4623731490024312
1403636707363555584,50.037384,648.8710640810073,11.03248125,0.0898942916666666,-3.178989041666666,-0.0446804288510548,0.036302848441482,0.0907571211037051,2.014304325839835,22.743887755588506,0.323146792343902
1403636707613555456,39.664983,560.3310904133054,9.210078791666666,-0.6047434166666666,-2.8766173333333334,-0.0027925268031909,-0.1054178868204575,0.1891936909161853,1.8700920116098683,24.5103227680529,0.2347633040708459
1403636707863555584,48.700333,576.1263211212841,6.505077833333333,0.9234595416666666,-2.3372515833333334,0.0425860337486616,0.1054178868204575,0.0774926187885482,2.7373320231588836,27.17065835014682,0.6586416632347856
1403636708113555456,49.721479,559.7483240488117,8.409202375,0.4576436666666666,-2.2473572916666664,0.0321140582366956,0.171740398396242,-0.1019272283164688,2.784151318956791,29.617797883994246,0.0005382568680225575
1403636708363555584,38.658142,478.5983021818489,8.7279185,0.024516625,-3.2035056666666666,0.1333431548523667,0.0740019602845595,0.3860668305411457,1.1439300299752038,28.85008349854002,0.1572401610227594
1403636708613555456,49.413681,480.5971270899543,10.019127416666668,0.4004382083333333,-2.4108014583333333,-0.1305506280491758,-0.0223402144255274,-0.1843067690106012,2.2722757789993717,31.06169894129539,0.6527975465357869
1403636708863555584,49.993992,543.3273084090756,9.7085835,-0.0817220833333333,-3.2035056666666666,-0.122173047639603,0.1277581012459849,-0.0062831853071795,1.3885924278395032,30.52404840918631,-0.32334752018337554
1403636709113555456,60.371161,609.7308976535306,9.921060916666669,1.184970208333333,-4.404820291666666,-0.0740019602845595,-0.0013962634015954,0.0635299847725936,1.4646962368901526,29.58822231615301,0.42696812231251613
1403636709363555584,59.625626,585.9303130403244,7.681875833333333,0.1062387083333333,-2.9583394166666666,-0.0146607657167523,-0.0349065850398865,0.0356047167406843,1.9490434904221376,31.428779586586096,0.5394135011445123
1403636709613555456,39.951563,612.952545818081,9.357178541666666,0.7681875833333334,-2.7622064166666664,-0.0139626340159546,0.0118682389135614,0.0411897703470661,2.2087591077265567,33.525143576386256,-0.2530715502745906
1403636709863555584,39.623499,582.8178432617601,9.741272333333333,0.7191543333333333,-3.92266,0.0558505360638185,-0.0055850536063818,0.1061160185212552,1.6170096306215882,35.00290457775346,0.23430677921455612
1403636710113555456,48.78211,573.8160987182742,9.340834125,0.3023717083333333,-3.2443667083333327,0.0816814089933346,0.0872664625997164,0.0418879020478639,1.6419214733868444,36.575413579906815,0.2442556192648695
1403636710363555584,38.726568,385.6458592276389,9.487933875,0.4576436666666666,-3.857282333333333,0.2213077491528809,0.0949459113084915,0.3602359576116296,0.991389324230387,37.381706229064804,-0.07266645470945576
1403636710613555456,40.163517,437.1700862274623,9.128356708333332,0.5066769166666666,-3.064578125,0.2729694950119131,0.0027925268031909,0.1130973355292325,0.7362895593769421,37.17275523083144,-0.7983385227383408
1403636710863555584,50.106287,408.9962821346752,9.308145291666667,-0.3023717083333333,-3.08909475,0.257610597594363,-0.0223402144255274,-0.2520255439879811,3.2822502847170516,34.50937369393756,-0.5133888082251872
1403636711113555456,38.923979,534.4888980244758,9.438900625,-0.5230213333333333,-2.9174783749999995,0.1500983156715123,0.0837758040957278,-0.1158898623324234,0.362044796300609,34.37303459750656,0.3260128177902999
1403636711363555584,60.403824,500.48070232332446,9.65955025,0.3595771666666666,-4.56009225,0.0411897703470661,0.1773254520026238,0.210835773640915,2.285316369889982,36.416903536266545,0.4192423535457621
1403636711613555456,50.005913,677.8558616023336,8.613507583333332,0.5311935416666667,-2.50069575,-0.0565486677646162,0.1396263401595463,-0.0083775804095727,1.134553614109981,37.17127367182804,0.17765492445452935
1403636711863555584,60.862303,530.8254159622495,10.313326916666666,0.73549875,-4.404820291666666,0.046774823953448,-0.1305506280491758,0.3022910264454179,1.9281929624824385,35.408700956426514,-0.4659394972302735
1403636712113555456,50.139666,577.4700066488133,9.242767625,-0.24516625,-3.317916583333333,0.0167551608191455,-0.0202458193231342,0.2017600615305445,1.517776724172008,36.484532580031335,0.0953952583233999
1403636712363555584,54.803371,497.5528753640006,8.760607333333333,0.1552719583333333,-2.01036325,0.2666863097047335,0.0509636141582344,-0.1996656664281513,1.9069493747640869,34.7295160184001,-1.104937130981675
1403636712613555456,61.300755,381.2551417825404,8.5317855,1.201314625,-2.950167208333333,0.2254965393576673,0.1570796326794896,0.1473057888683213,1.1422591629734775,33.69424195944802,0.02522837108136855
1403636712863555584,60.984135,615.249711704779,8.703401874999999,0.171616375,-3.685665958333333,0.0223402144255274,-0.0719075651821663,0.1110029404268393,0.811631828037384,33.772541041147655,0.015102287593279584
1403636713113555456,42.231321,586.5584542903016,9.218251,-0.1552719583333333,-3.342433208333333,0.0139626340159546,-0.0069813170079773,0.1110029404268393,1.105470541993356,33.27129838547917,-0.009613509667637743
1403636713363555584,50.762653,662.2559956429399,11.007964625,0.34323275,-2.745862,-0.0195476876223364,-0.1061160185212552,0.2017600615305445,2.9048173310314627,32.70289401529995,-0.20311997468573395
1403636713613555456,38.558006,660.2765404163855,6.872827208333333,0.2043052083333333,-2.190151833333333,-0.007679448708775,-0.0726056968829641,0.1710422666954443,3.0794949577702004,32.23445395507765,-0.037964458793972256
1403636713863555584,49.746513,687.813389561376,9.716755708333332,0.220649625,-2.982856041666666,-0.0691150383789754,0.0069813170079773,0.0460766922526503,3.23934274848411,32.399113246940416,0.0478204141805989
1403636714113555456,61.430931,662.6713165858528,9.218251,-0.24516625,-3.097266958333333,-0.0495673507566389,-0.0537561409614253,0.0006981317007977,3.0585733070172467,32.659675341492886,-0.005449440953086082
1403636714363555584,46.763182,673.8614608677536,10.599354208333333,0.6047434166666666,-3.849110125,-0.0216420827247296,-0.0516617458590321,0.1410226035611418,0.40055856352750996,32.73732911492996,0.05342657993552535
1403636714613555456,49.368381,533.3335141513575,7.910697666666666,0.83356525,-2.20649625,0.2129301687433081,-0.1584758960810851,-0.046774823953448,0.4071139092366946,32.704209740078475,0.038317605215240746
1403636714863555584,39.78467,482.6709641470448,10.828176041666667,0.4903325,-4.519231208333333,0.4565781323217166,0.0530580092606276,-0.1947787445225671,0.6972853068833388,33.275594160999745,0.14650903575836338
1403636715113555456,48.162461,586.2038924827132,10.019127416666668,0.367749375,-3.195333458333333,0.3036872898470133,0.0167551608191455,-0.1284562329467826,0.6198474325670609,33.61618746081717,0.0223693150832176
1403636715363555584,42.808294,599.2095148862477,7.976075333333333,-0.1879607916666666,-2.3209071666666663,0.1103048087260416,0.0991347015132779,0.0607374579694026,0.2232812129600408,33.57550917330441,0.09309666099470348
1403636715613555456,49.411535,719.6542468595122,9.586000375,0.24516625,-2.909306166666666,0.0167551608191455,0.0628318530717958,0.15079644737231,0.672478115560712,33.19942449827694,-0.17962589679360264
1403636715863555584,47.240257,624.8083910392016,11.898735333333333,-0.9152873333333332,-4.429336916666666,-0.064926248174189,0.1877974275145898,0.0432841654494593,0.9464242777138115,32.52597822420032,-0.18951522296693923
1403636716113555456,50.199509,627.1634618840301,8.67888525,0.04903325,-3.1299557916666663,-0.0530580092606276,-0.1082104136236484,0.182212373908208,1.837067131618952,31.6593229631247,-0.0639227933577935
1403636716363555584,49.71075,697.3468991622515,9.283628666666663,0.5720545833333333,-4.26589275,-0.0747000919853573,-0.036302848441482,0.0949459113084915,1.9389958408888248,30.554509077703358,-0.1980034534434516
1403636716613555456,50.078392,784.9244620386856,8.196724958333332,0.2288218333333333,-2.680484333333333,0.0432841654494593,0.0209439510239319,0.0069813170079773,1.6065972566621924,30.921542748276497,0.19753037361190806
1403636716863555584,49.962759,613.2573137590538,9.724927916666667,1.3075533333333331,-3.18716125,0.289026524130261,-0.0307177948351002,-0.0551524043630208,1.7182278294870297,31.905878019913292,0.18983715023098569
1403636717113555456,50.532103,578.3174632133014,10.002783,0.2615106666666666,-3.113611375,0.4677482395344803,0.0125663706143591,-0.1061160185212552,0.4628536224222486,32.36369036291109,-0.04782714136782573
1403636717363555584,39.561987,649.2770692621758,9.831166624999998,-0.44129925,-4.233203916666667,0.0488692190558412,0.0006981317007977,-0.293913446035845,1.5019642151656143,31.06760185478012,-0.17607060667965158
1403636717613555456,60.015917,724.7376124655568,6.006573125,-0.6946377083333333,-3.1299557916666663,0.0279252680319092,0.0795870138909414,0.1996656664281513,0.7109317522727197,30.51003619706467,-0.14329057776536303
1403636717863555584,49.927712,617.7515791222177,11.351197375,-1.1195925416666666,-4.0125542916666666,0.1305506280491758,0.0139626340159546,-0.0733038285837618,0.5957915580358492,30.00647022248664,-0.13746012943137131
1403636718113555456,49.467564,437.67160015936827,9.308145291666667,0.4331270416666666,-3.268883333333333,0.4342379178961891,0.0886627260013119,0.0781907504893459,1.4587344289830657,29.09714420620062,-0.7115025075617005
1403636718363555584,41.59069,468.2346079939724,9.978266375,-0.5802267916666666,-3.7837324583333327,0.3344050846821135,0.0293215314335047,0.0747000919853573,3.010081484919752,27.06442541327033,-0.2848030162569586
1403636718613555456,50.302744,448.7058197816236,9.373522958333332,-0.63743225,-2.181979625,0.2562143341927675,0.0342084533390888,0.1277581012459849,0.4192224966998166,26.894222699643244,-0.057204226682582515
1403636718863555584,47.11175,687.3807990230392,10.501287708333331,0.8825985,-2.8847895416666667,0.0335103216382911,0.0760963553869527,-0.124965574442794,1.6781503300224154,27.674735410825246,0.3325384610341544
1403636719113555456,59.927701,711.6486264155205,11.343025166666669,0.0898942916666666,-2.353596,-0.025830872929516,0.1298524963483781,0.0593411945678072,5.4104570487394685,24.242877266484946,-1.2681014043722918
1403636719363555584,57.379007,707.5581656642853,9.430728416666666,0.0980665,-4.143309625,-0.0265290046303138,0.0733038285837618,0.1110029404268393,7.061669593219379,20.90712423471399,-0.2941789098530485
1403636719613555456,62.409877,423.533444322078,8.556302125,0.2288218333333333,-2.459834708333333,-0.1165879940332212,-0.0328121899374933,0.0474729556542457,2.034673447714726,20.592380930425623,0.13537921253613305
1403636719863555584,49.106359,729.799865442601,8.28661925,0.83356525,-2.8602729166666667,-0.0642281164733913,0.0705113017805709,0.0851720674973232,1.635450552521203,19.08224798021303,-0.7368167112609498
1403636720113555456,49.290895,742.5955761338605,8.572646541666666,1.0215260416666667,-3.1299557916666663,-0.0272271363311115,0.0767944870877505,0.0342084533390888,2.804641503986253,17.638846080645337,-0.3937311010266811
1403636720363555584,50.646782,721.2108013901509,9.594172583333334,0.0653776666666666,-3.57942725,0.0272271363311115,0.0251327412287183,0.1165879940332212,1.684567962417372,17.256561180939674,-0.14439515128115943
