stamp,img_delta,blur,lin_acc.x,lin_acc.y,lin_acc.z,ang_vel.x,ang_vel.y,ang_vel.z,rpe,ate,drift
1403636859801666560,49.873113,408.33536213252506,9.144701125,0.024516625,-3.28522775,-0.1584758960810851,0.2268928027592628,-0.0453785605518525,5.741294615652438,5.7412946156524125,1.1080922638661335
1403636860051666432,49.85857,905.8482114822206,6.644005375,0.4576436666666666,-1.9286411666666663,-0.0774926187885482,-0.0153588974175501,0.085870199198121,3.835746823429756,7.0237039366677845,-0.38466514299636145
1403636860301666560,54.078817,308.1738448886844,8.180380541666665,0.1879607916666666,-2.9338227916666666,0.0705113017805709,-0.2925171826342496,0.2066469834361286,6.743349362227183,8.766992390632398,0.134275497395123
1403636860551666432,49.196005,242.92309133828712,10.019127416666668,-0.5311935416666667,-5.254729958333334,0.0265290046303138,-0.3274237676741362,0.1494001839707146,2.57755293799398,6.4756336266256955,-0.35262581616369193
1403636860801666560,48.708916,714.7023242334783,10.909898125,-0.3514049583333333,-5.524412833333333,0.0062831853071795,0.0383972435438752,-0.1026253600172665,6.387881054170047,5.983187802629325,0.6992956956225997
1403636861051666432,48.945189,258.71307758798514,9.602344791666663,-0.2043052083333333,-4.797086291666667,0.0188495559215387,0.2513274122871834,0.0600393262686049,0.9351036891610801,5.201821854281423,-0.12182103825101276
1403636861301666560,39.422512,267.15928665448945,8.597163166666666,-0.0408610416666666,-3.4404997083333333,0.0188495559215387,0.5026548245743669,0.1123992038284348,0.5831152469278105,5.113721678917935,-0.02089853952092735
1403636861551666432,36.934853,937.7339526591225,5.965712083333332,0.024516625,-1.9286411666666663,-0.0977384381116824,0.0747000919853573,0.0411897703470661,1.6021027466183932,4.704711633327218,-0.01943926669574303
1403636861801666560,44.075489,349.9626838826761,8.368341333333333,-0.2860272916666666,-2.974683833333333,-0.007679448708775,-0.2122320370425104,0.0160570291183478,0.469775062905316,4.94205538565813,-0.01421812158634772
1403636862051666432,39.544821,264.15596488663675,10.092677291666664,-0.3105439166666667,-4.257720541666666,0.0635299847725936,-0.3658210112180114,0.2010619298297467,0.5148768947168975,5.426654841374116,0.13786060047210125
1403636862301666560,40.300369,623.3620989564422,11.751635583333332,-0.0898942916666666,-5.6306515416666665,-0.0167551608191455,-0.1228711793404008,-0.0349065850398865,0.3070498839419664,5.6160849808805455,0.024890501863827907
1403636862551666432,50.568342,250.6280990371409,9.888372083333332,0.2124774166666666,-4.576436666666666,-0.1626646862858715,0.228987197861656,0.0307177948351002,0.38808042504465073,5.296206067940183,-0.07589480073426635
1403636862801666560,50.288916,379.1335562826157,9.005773583333333,0.24516625,-4.233203916666667,-0.0774926187885482,0.1424188669627373,0.1494001839707146,0.45988250743019976,5.385842361201688,0.05612014038418245
1403636863051666432,45.65382,609.1443125262304,5.720545833333333,0.1879607916666666,-1.9695022083333331,-0.0216420827247296,0.2597049926967562,-0.0432841654494593,0.7443534925684513,5.3725405536455115,0.029126526492817995
1403636863301666560,69.722175,506.9167431238986,8.433719,1.1522813749999998,-2.8439285,-0.0642281164733913,-0.0509636141582344,0.0628318530717958,0.7606255050578792,5.427865144402886,0.00404968864394295
1403636863551666432,60.201406,280.0822443187539,9.790305583333332,0.0,-3.9880376666666666,0.1494001839707146,-0.2904227875318564,0.2673844414055313,0.441348250195241,5.784978819304475,0.015678704459345383
1403636863801666560,54.861308,261.36466863788473,11.76798,-0.3268883333333333,-6.063778583333333,-0.0020943951023931,-0.2296853295624537,0.0705113017805709,0.4865440212059909,5.683684913339442,-0.060580375478124004
1403636864051666432,44.824362,278.8061056347937,10.419565625,-0.3350605416666666,-5.426346333333333,0.0886627260013119,0.1494001839707146,0.0481710873550434,0.403713686475109,5.343796444971576,-0.07178472703828032
1403636864301666560,39.555073,390.9456586550511,7.984247541666667,-0.24516625,-3.7919046666666665,0.0300196631343024,0.1165879940332212,0.0886627260013119,0.08797720050077226,5.248449594906152,0.03729450368536025
1403636864551666432,39.889098,310.7482179200618,7.191543333333333,-0.465815875,-2.655967708333333,0.0642281164733913,0.478918346747244,0.3036872898470133,0.6458184610124458,5.524959069256569,0.043918704764347005
1403636864801666560,50.070286,479.5077897823103,7.436709583333332,-0.2778550833333333,-2.2228406666666665,0.0111701072127637,-0.143116998663535,-0.0111701072127637,0.43829418937187575,5.667926160913764,-0.010928508515541502
1403636865051666432,49.779654,322.64625811883315,9.005773583333333,-0.3023717083333333,-4.045243125,-0.0027925268031909,-0.2261946710584651,0.057246799465414,0.368946875368003,5.906120388868766,0.017467720954727817
1403636865301666560,50.032616,472.7029698912818,10.174399375,-0.416782625,-4.690847583333333,0.1354375499547599,-0.0397935069454707,0.2373647782712288,0.7032704652704005,6.293146692988344,0.050794261061863466
1403636865551666432,60.179711,703.8651131068156,11.204097625,-0.612915625,-5.777751291666666,0.0209439510239319,-0.1647590813882647,-0.0090757121103705,0.1424296370398274,6.222164515170973,-0.05735847961389684
1403636865801666560,49.877644,257.22257345509354,9.577828166666666,0.2124774166666666,-4.46202575,0.0265290046303138,0.314857397059777,0.1012290966156711,0.4234944509104161,5.84077685545549,-0.0678041089122523
1403636866051666432,46.098709,230.37808813170025,8.245758208333333,-0.0817220833333333,-3.2443667083333327,-0.0558505360638185,0.6066764479932288,0.1598721594826805,0.156353242570386,5.626415005313319,0.038599400026136266
1403636866301666560,59.158086,797.2873102654196,6.472389,0.1144109166666666,-1.4464808749999998,-0.1556833692778942,-0.1396263401595463,-0.0216420827247296,0.9379163236015092,6.24201614501345,0.0047305586844377245
1403636866551666432,50.146341,439.1490649262327,8.482752249999999,-0.0081722083333333,-2.974683833333333,-0.046774823953448,-0.1996656664281513,0.0370009801422797,0.5096164715231102,6.007719621045608,-0.011125356607006864
1403636866801666560,50.30632,402.9994307727658,9.912888708333332,-0.0326888333333333,-4.429336916666666,0.1096066770252439,-0.1731366617978375,0.0781907504893459,0.2650231148684729,5.8647994358649225,0.021204749522647504
1403636867051666432,50.245523,439.8757752371727,10.084505083333331,-0.1470997499999999,-4.576436666666666,-0.0209439510239319,-0.2450442269800038,0.1556833692778942,0.8466706623678926,5.994221302860005,0.024762863159571324
1403636867301666560,50.082684,715.6601516742435,9.079323458333333,-0.1144109166666666,-4.543747833333333,0.0795870138909414,-0.1172861257340189,0.0781907504893459,1.2049255386424895,6.207842461284307,0.02262715884344413
1403636867551666432,49.785614,263.2658679278425,7.763597916666666,0.1797885833333333,-4.985047083333333,-0.0893608577021096,-0.5145230634879283,-0.0446804288510548,0.8407702069030147,6.069316919289629,-0.012956120666220095
1403636867801666560,50.337553,168.97138814611955,7.828975583333331,-0.1552719583333333,-6.791105125,-0.1172861257340189,-1.1526154380170552,0.1396263401595463,1.3248304115474956,6.274625894218151,0.1435889282274596
1403636868051666432,40.233135,321.25255036779595,5.696029208333333,-0.4576436666666666,-7.698220249999999,-0.0132645023151569,0.3106686068549906,0.1214749159388053,1.8442231384088212,5.724224644000199,-0.08654186212153192
1403636868301666560,39.627076,665.6517561996243,6.006573125,-0.93163175,-7.175198916666666,0.0307177948351002,0.0034906585039886,0.2171189589480945,0.05985651268910175,5.777435680098435,0.05466299850120926
1403636868551666432,47.460318,542.8708004303384,6.513250041666667,-0.2369940416666666,-7.093476833333334,-0.1075122819228507,0.1954768762233649,0.1661553447898601,0.5276931727950881,6.319531851129442,0.08067979179950147
1403636868801666560,49.803019,474.57866216082857,6.472389,-0.269682875,-7.093476833333334,0.018151424220741,-0.1494001839707146,-0.007679448708775,0.2835414177354577,6.302757985708668,0.04230562342732025
1403636869051666432,51.797867,649.1736563303532,6.398839124999999,-0.392266,-7.117993458333333,0.1082104136236484,0.1075122819228507,0.0579449311662117,0.04985944626292838,6.2878554643511215,-0.04952079865286407
1403636869301666560,50.433874,891.5517906434644,6.815621749999999,-0.4004382083333333,-6.938204874999999,0.0111701072127637,0.0139626340159546,0.018151424220741,0.1714490001785165,6.138127134554085,-0.04425816054782583
1403636869551666432,39.84785,743.7233294104561,6.61948875,0.2615106666666666,-7.134337875,-0.0146607657167523,0.0321140582366956,0.0816814089933346,0.31427536714816334,5.85923209609591,-0.11424530178913272
1403636869801666560,46.184301,267.5734565390329,6.921860458333333,0.318716125,-7.142510083333334,-0.0809832772925368,0.007679448708775,0.1521927107739055,1.177347025939928,4.933727712427862,-0.1857877261380736
1403636870051666432,49.707174,211.3936807402405,6.554111083333333,0.0326888333333333,-7.003582541666666,-0.1263618378443894,0.0300196631343024,0.2234021442552742,1.0729331118220662,4.035395558189879,-0.13969404751282433
1403636870301666560,49.654007,197.3752582516547,6.815621749999999,-0.367749375,-7.273265416666667,-0.064926248174189,0.1047197551196597,0.1556833692778942,0.9620233706988668,3.430465716065429,-0.047370877803529776
1403636870551666432,46.249151,203.0358009890217,6.464216791666666,-0.3105439166666667,-7.093476833333334,-0.0335103216382911,-0.0900589894029074,0.2750638901143063,0.21647352977895934,3.426756079291292,-0.04131701581389491
1403636870801666560,43.017387,361.496620119662,5.859473375,-0.4985047083333333,-7.346815291666666,0.0642281164733913,0.2296853295624537,0.2478367537831947,0.33837100122649266,3.6939914752072136,0.033354021406871937
1403636871051666432,50.144672,324.7340369975525,6.627660958333332,-0.5475379583333333,-6.946377083333333,0.0642281164733913,-0.064926248174189,0.2450442269800038,0.46652654871438975,4.006600255599517,0.10897249216737004
1403636871301666560,60.137749,286.5025009668659,6.505077833333333,-1.2748645,-7.036271375,0.0237364778271228,0.0635299847725936,0.0048869219055841,0.47715947879658605,4.2887150000053325,0.06744590340157153
1403636871551666432,43.137788,224.42215411955496,6.627660958333332,-1.0296982499999998,-7.175198916666666,0.0663225115757845,0.0048869219055841,0.0719075651821663,0.5467433806964309,4.783127991041989,0.15499179252132134
1403636871801666560,39.988757,168.8341741171249,6.848310583333333,-0.6701210833333332,-6.799277333333333,0.1487020522699168,0.0020943951023931,0.0293215314335047,0.5977494567376498,5.34527997484748,0.1305429001003846
1403636872051666432,54.762364,207.1396765429293,6.840138375,-0.1797885833333333,-6.913688249999999,0.2171189589480945,0.122173047639603,-0.007679448708775,0.6239751548251644,5.964797176832801,0.1451192843136111
1403636872301666560,50.390482,219.67939619630852,6.578627708333332,-0.0817220833333333,-6.856482791666667,0.143116998663535,-0.1549852375770964,-0.0202458193231342,0.5991216106203058,6.371302411782819,-0.00018346570703098308
1403636872551666432,50.102949,665.7593718168758,7.10982125,0.7927042083333332,-7.330470875,0.0495673507566389,0.0495673507566389,0.0,0.7048249830489617,6.182479406110248,-0.1283152050140277
1403636872801666560,40.173531,486.5225458838181,7.0689602083333325,0.4821602916666666,-6.807449541666666,-0.1165879940332212,-0.0118682389135614,0.0356047167406843,1.0133813071198243,5.4861096182131055,-0.11324633512538185
1403636873051666432,54.959298,238.97645073315007,6.970893708333333,0.196133,-7.126165666666666,-0.1661553447898601,0.0460766922526503,0.132645023151569,0.5719917229034237,5.075285641108811,-0.035109004362055884
1403636873301666560,60.709715,184.96139732798704,6.513250041666667,-0.4576436666666666,-7.077132416666666,-0.1452113937659282,0.0020943951023931,0.1850049007113989,0.43703036351323543,4.836454708696361,-0.03755243772921091
1403636873551666432,45.39299,159.0211452020058,6.047434166666666,-1.1686257916666667,-7.265093208333333,-0.1947787445225671,-0.0586430628670094,0.1605702911834783,0.7122803281057755,4.641046400857281,-0.0179825814608785
1403636873801666560,59.497595,281.66983861390275,5.990228708333333,-1.9449855833333327,-7.469398416666666,-0.0132645023151569,0.018151424220741,0.1417207352619395,0.37755983151604394,4.680762117982752,-0.03299045752897278
1403636874051666432,50.192594,598.1202736821118,6.554111083333333,-1.2748645,-7.338643083333332,-0.0516617458590321,0.0335103216382911,0.1151917306316257,0.28679443893061646,4.899386183628497,0.1255429770776466
1403636874301666560,49.119711,215.5161611600927,6.1209840416666665,-2.018535458333333,-7.305954249999999,0.093549647906896,-0.0342084533390888,-0.057246799465414,0.31646854809618724,5.106760187493433,0.019823679521036475
1403636874551666432,54.676294,156.59959839836552,6.194533916666667,-1.372931,-7.363159708333333,0.0684169066781777,0.1228711793404008,-0.0041887902047863,0.38844477763513313,5.3475862721926655,0.039777834122737055
1403636874801666560,46.959877,168.111796158794,6.104639625,-0.392266,-6.856482791666667,0.1521927107739055,0.0125663706143591,-0.025830872929516,0.5172568924512329,5.471718868191274,0.044599200398207195
1403636875051666432,50.254583,382.14025932231806,7.379504124999999,0.2941994999999999,-6.962721499999999,-0.0230383461263251,0.2352703831688356,0.140324471860344,0.3054332444561343,5.530768085163979,0.045456078902172514
1403636875301666560,43.84923,624.9671811306126,6.112811833333333,-0.4739880833333333,-7.436709583333332,-0.3225368457685521,0.2220058808536787,0.48939032225921,0.4820910418028899,5.810426419309384,0.022397236411133115
1403636875551666432,59.99279,365.3561565332283,6.823793958333333,0.0817220833333333,-7.322298666666667,-0.057246799465414,-0.0949459113084915,0.3064798166502042,0.5450768996883003,5.693823565886086,-0.059754334694766875
1403636875801666560,56.737423,249.87220152138488,7.077132416666666,-0.318716125,-6.7502440833333335,-0.3623303527140228,0.0223402144255274,0.2960078411382383,0.20942303466630488,5.6546780221203194,-0.021957614033328632
1403636876051666432,49.580336,124.44160848785349,7.918869874999999,-0.5311935416666667,-6.161845083333333,-0.5557128338349946,0.1647590813882647,0.3106686068549906,0.41233808757808293,5.630114140250389,-0.004018621193976557
1403636876301666560,49.84808,153.34673305949914,7.665531416666666,-0.980665,-5.6715125833333335,-0.3099704751541929,-0.0383972435438752,0.2722713633111154,0.6383261574189271,5.628681304385717,-0.005665060782855669
1403636876551666432,50.020218,166.59542455582366,7.518431666666666,-1.7570247916666666,-6.202706124999999,-0.1256637061435917,0.2275909344600605,0.0041887902047863,0.4407924331816622,5.796763707095136,0.0076649710365988
1403636876801666560,55.555105,147.5077351264729,6.774760708333333,-2.3209071666666663,-6.840138375,0.2981022362406315,0.1521927107739055,-0.2904227875318564,0.24195938115737156,5.891288501940899,-0.061430564587286796
1403636877051666432,46.418667,188.54189371290428,6.390666916666666,-1.9041245416666663,-7.265093208333333,0.6639232474586428,0.1193805208364121,-0.4237659423842232,0.4032990438241551,5.820827166126549,-0.03686930040593417
1403636877301666560,39.957285,183.7749448261267,6.529594458333333,-0.9234595416666666,-7.232404375,0.7204719152232593,-0.0174532925199432,-0.3427826650916863,0.4612139195925484,5.51968114126072,-0.14587378687461694
1403636877551666432,49.110651,158.62216162730743,6.333461458333334,0.5066769166666666,-7.526603874999999,0.450294947014537,-0.2534218073895766,-0.0788888821901436,0.5531309286988791,5.074005229856004,-0.05273265028874974
1403636877801666560,61.022282,239.29966584833767,6.864654999999999,0.1389275416666666,-6.970893708333333,-0.0411897703470661,-0.1689478715930511,0.2911209192326541,0.5855572960881356,4.6442952055432825,0.030924579857766865
1403636878051666432,49.389839,292.93757058449813,7.40402075,0.8417374583333332,-6.554111083333333,-0.4125958351714595,-0.0733038285837618,0.2960078411382383,0.23526495194160502,4.7350299013956345,0.008416092516492668
1403636878301666560,49.367667,168.48846595789874,7.869836625,0.0163444166666666,-6.586799916666666,-0.364424747816416,0.1333431548523667,0.5291838292046808,0.9126073826195337,4.600421628686031,0.002605627168335012
1403636878551666432,39.055586,121.3598728845858,7.992419749999999,-1.0869037083333333,-6.055606375,-0.4970697709679851,0.1061160185212552,0.4230678106834254,0.8093162974065911,4.645212350111035,0.06270169056565056
1403636878801666560,50.104856,161.98787239917814,7.485742833333332,-1.397447625,-6.047434166666666,-0.3141592653589793,0.1884955592153876,0.2073451151369263,1.8526573287941894,5.735633019460634,0.14450069188158743
1403636879051666432,46.063185,252.55715404235156,7.60015375,-2.124774166666666,-6.701210833333333,0.0293215314335047,0.0202458193231342,0.1389282084587486,0.9577403818614848,6.335623252192875,0.10588627372998438
1403636879301666560,46.478272,149.4239768019174,6.831966166666666,-1.830574666666667,-6.9300326666666665,0.1968731396249603,0.3120648702565861,-0.0628318530717958,0.9368812644161293,6.316162228108807,-0.0039000935779318624
1403636879551666432,56.406736,217.87898082610548,6.987238125,-0.980665,-7.01175475,0.5270894341022875,-0.0265290046303138,-0.2115339053417127,1.0974771243559884,5.957904429357338,-0.05878390937154521
1403636879801666560,50.221443,189.10856881556072,6.447872374999999,-0.5148491249999999,-7.150682291666666,0.4377285764001778,-0.1312487597499735,-0.1193805208364121,0.7551226449329383,5.659276821787921,-0.0878085019397501
1403636880051666432,49.622536,306.87052028784376,7.060788,1.250347875,-7.003582541666666,0.1375319450571531,-0.1466076571675237,0.0216420827247296,1.4280371793939843,5.69039916294541,-0.030543176602667366
1403636880301666560,46.940565,349.7074205531626,7.305954249999999,0.1552719583333333,-6.407011333333333,-0.4419173666049642,0.153588974175501,0.2974041045398337,0.6129213971843804,5.354452671330576,-0.055151208322024914
1403636880551666432,49.873829,335.92961918286846,7.469398416666666,-1.6017528333333333,-6.341633666666666,-0.5187118536927147,0.0837758040957278,0.3197443189653611,0.4173367254384819,5.131444860570179,-0.001061767010569703
1403636880801666560,40.179968,387.1649972678009,7.477570624999999,-1.6099250416666664,-5.524412833333333,0.0244346095279206,-0.1284562329467826,0.1361356816555577,0.5104329634261335,5.599720220043328,0.12618988529811226
1403636881051666432,49.675941,255.17381525545744,7.951558708333333,-0.6782932916666666,-5.189352291666666,0.2764601535159017,0.2708750999095199,-0.1291543646475804,0.8912490983414286,6.276190004449626,0.11277267330709773
1403636881301666560,61.178923,334.08134652524546,8.294791458333332,0.563882375,-5.107630208333333,0.3769911184307752,0.057246799465414,-0.2436479635784084,0.5172997153812465,6.330224259867129,-0.06775757682442851
1403636881551666432,45.711279,391.9976901724195,7.477570624999999,0.8744262916666666,-5.410001916666666,0.0446804288510548,0.1514945790731078,-0.2750638901143063,0.7601203593186185,5.964515536595304,-0.06590006188955133
1403636881801666560,49.989462,332.86306368584,7.40402075,0.2860272916666666,-6.055606375,-0.1375319450571531,-0.0307177948351002,-0.025830872929516,0.6522612917861147,5.573418695756112,-0.08980221760771112
1403636882051666432,44.252157,295.37545775047084,6.799277333333333,-0.1797885833333333,-6.840138375,-0.1745329251994329,0.0356047167406843,0.247138622082397,0.4675766482568787,5.369014851299259,0.013779115455442081
1403636882301666560,59.942007,389.6647846971893,7.755425708333333,-1.9286411666666663,-6.096467416666667,-0.0104719755119659,0.1396263401595463,0.1500983156715123,0.3392629385381775,5.5383203324198815,0.057108647022902304
1403636882551666432,44.186592,337.82295928437014,8.850501625,-1.201314625,-4.674503166666667,0.2925171826342496,0.1054178868204575,0.1005309649148733,0.341753505768568,5.868682937768945,0.09336548946067502
1403636882801666560,50.139665,266.0962532629372,8.425546791666665,-0.4004382083333333,-3.947176625,0.4740314248416599,0.6366961111275314,-0.1207767842380075,0.34255628991169307,6.1484821107580325,0.05971731481281939
1403636883051666432,60.071945,320.1196321982295,9.013945791666666,-0.5557101666666666,-4.2822371666666665,0.3239331091701475,0.0356047167406843,-0.1137954672300302,0.3740075772498508,6.412594448054112,0.056955567612226865
1403636883301666560,50.432682,436.98136051933767,9.242767625,-0.2369940416666666,-4.249548333333333,0.1843067690106012,0.1836086373098034,0.0013962634015954,0.20889611244347653,6.571131019646092,0.012447705889103489
1403636883551666432,50.132036,478.0874392006217,9.177389958333332,-0.8172208333333333,-3.3751220416666667,0.1340412865531645,0.239459173373622,-0.0335103216382911,0.14779788619728296,6.519569232805833,-0.016132990469380992
1403636883801666560,55.312395,571.832471229665,8.809640583333332,-0.4249548333333333,-3.015544875,0.0593411945678072,0.0237364778271228,0.0307177948351002,0.14273839633530172,6.499735933760327,-0.0009932598249120517
1403636884051666432,59.686661,540.1588224151232,8.9240515,-0.0408610416666666,-2.8357562916666668,0.1158898623324234,0.1110029404268393,0.1347394182539622,0.12615845481360904,6.461273022815149,-0.024989849661976926
1403636884301666560,59.498072,576.76861068447,9.177389958333332,0.1634441666666666,-2.9583394166666666,0.0202458193231342,0.0446804288510548,0.1019272283164688,0.1377058104722559,6.490171372280824,0.0033940303033093144
1403636884551666432,60.8809,656.0062382537715,9.635033625,-0.34323275,-2.623278875,0.0111701072127637,0.0439822971502571,0.0928515162060983,0.047226278070809036,6.480568351065368,-0.002607037601062956
1403636884801666560,40.14182,660.4479242879949,9.438900625,-0.6292600416666666,-2.655967708333333,-0.0062831853071795,0.0272271363311115,0.0502654824574366,0.04639174459303904,6.466772593794509,-0.007194156576437294
1403636885051666432,55.125236,662.3375693650842,9.422556208333331,-0.5883989999999999,-2.5660734166666663,-0.0020943951023931,0.0237364778271228,0.0816814089933346,0.03334545505087462,6.445720822200893,-4.9619847919402105e-05
1403636885301666560,60.179948,666.1469847752022,9.308145291666667,-0.3268883333333333,-2.476179125,-0.0055850536063818,0.0209439510239319,0.0823795406941323,0.03288457440940182,6.422155674677568,-0.0036595762917617236
1403636885551666432,43.740273,666.9478779069863,9.438900625,-0.4331270416666666,-2.5415567916666664,-0.0041887902047863,0.0146607657167523,0.0767944870877505,0.03230761017951902,6.405219356963487,0.0012420522070142326
1403636885801666560,45.237064,665.5327134786253,9.528794916666666,-0.4004382083333333,-2.5170401666666664,-0.0027925268031909,0.0153588974175501,0.085870199198121,0.026670402864639824,6.40552357220667,-0.0005377901012177944
1403636886051666432,55.057049,665.6224745682167,9.569655958333334,-0.3023717083333333,-2.680484333333333,-0.0062831853071795,0.0209439510239319,0.0593411945678072,0.02139976510070854,6.389535787526475,-0.004752969935985618
1403636886301666560,49.9053,665.2247963317453,9.398039583333333,-0.4004382083333333,-2.50069575,-0.0069813170079773,0.0209439510239319,0.0635299847725936,0.008060152501967717,6.394651356636811,0.006286814137329344
1403636886551666432,49.487591,663.6077205794074,9.316317499999998,-0.4249548333333333,-2.606934458333333,-0.0055850536063818,0.0216420827247296,0.0781907504893459,0.009432745490498945,6.3884994871372225,0.004758769467649415
1403636886801666560,50.727129,663.1463759503016,9.422556208333331,-0.4086104166666666,-2.5660734166666663,-0.0034906585039886,0.0223402144255274,0.0726056968829641,0.0243366447523412,6.3715263407951,-0.0012068893818897308
1403636887051666432,39.468765,661.8970621900673,9.430728416666666,-0.367749375,-2.574245625,0.0027925268031909,0.0195476876223364,0.0816814089933346,0.00999257129085806,6.366129724676571,-0.007394914328433089
1403636887301666560,49.85404,660.0647724220032,9.56148375,-0.416782625,-2.7131731666666665,-0.0062831853071795,0.0104719755119659,0.0719075651821663,0.011958331953250568,6.376192329701304,0.0070683982884682806
1403636887551666432,50.482512,662.6749913437284,9.349006333333334,-0.392266,-2.4925235416666665,0.0020943951023931,0.0223402144255274,0.0823795406941323,0.026490087061242756,6.3655247794303245,-0.002160748455722228
1403636887801666560,50.246238,661.0952939665618,9.447072833333332,-0.3268883333333333,-2.5415567916666664,0.0027925268031909,0.0272271363311115,0.085870199198121,0.014636912819734097,6.352232255322685,-0.0018501942139534933
1403636888051666432,50.315142,662.0454565221464,9.414383999999998,-0.4086104166666666,-2.606934458333333,-0.0013962634015954,0.0230383461263251,0.0788888821901436,0.011226006239657315,6.35175650663735,0.00286843647677415
1403636888301666560,44.590711,660.9100125314023,9.406211791666664,-0.4249548333333333,-2.574245625,-0.0013962634015954,0.0251327412287183,0.0774926187885482,0.015718943966299786,6.342446225027142,-0.0018838555929097112
1403636888551666432,49.892425,660.3433934085238,9.496106083333332,-0.4249548333333333,-2.549729,0.0006981317007977,0.0230383461263251,0.08307767239493,0.015349487307694126,6.338825184367779,0.0021207436145216363
1403636888801666560,60.605288,575.2845734453908,9.455245041666666,-2.165635208333333,-2.132946375,0.085870199198121,-0.085870199198121,0.0397935069454707,0.05632466950043133,6.3235005341963095,-0.0035196800568524367
1403636889051666432,36.812305,623.7845083508026,9.210078791666666,-1.22583125,-2.4108014583333333,0.093549647906896,0.0048869219055841,0.0390953752446729,0.08017731893093703,6.349561466036796,0.009032479207490951
1403636889301666560,59.444189,616.2290657493139,9.291800875,0.1144109166666666,-2.623278875,-0.0621337213709981,0.0328121899374933,0.1005309649148733,0.025270046911595703,6.33758608426732,-0.004415248170454689
1403636889551666432,44.655323,654.7598819899715,9.005773583333333,-1.2666922916666667,-2.5170401666666664,-0.0314159265358979,0.0244346095279206,0.0628318530717958,0.028317118450577168,6.3426923632049785,0.0041879960948261186
1403636889801666560,50.527335,623.3462631615555,9.226423208333332,0.196133,-2.606934458333333,-0.0942477796076938,0.0586430628670094,0.0851720674973232,0.03110072939096642,6.343789170941623,-0.001855022762101477
1403636890051666432,49.500465,493.4925435380357,8.915879291666666,0.9398039583333332,-2.99102825,-0.1801179788058148,0.0698131700797731,0.1487020522699168,0.023344100293611267,6.355421986465797,0.0015425983757575423
1403636890301666560,49.943208,600.0522022582139,9.896544291666666,-1.6262694583333333,-2.4843513333333336,0.0265290046303138,-0.093549647906896,0.0837758040957278,0.0649305410840965,6.347604347592426,-0.003437680691700251
1403636890551666432,61.006784,529.1924120962276,10.828176041666667,-0.7191543333333333,-2.631451083333333,0.1263618378443894,-0.0593411945678072,0.0153588974175501,0.08573767382298353,6.356173616531267,0.010779380415029571
1403636890801666560,49.063206,543.1112062757218,8.482752249999999,0.2941994999999999,-2.79489525,-0.0991347015132779,0.0949459113084915,0.1228711793404008,0.04651672873426756,6.387537083633799,0.01175520997380275
1403636891051666432,61.188698,649.4433691744875,9.65955025,0.024516625,-2.729517583333333,-0.0104719755119659,0.0474729556542457,0.093549647906896,0.06349279054804866,6.391464290443988,-0.006117309129953341
1403636891301666560,33.92911,656.7907366802369,9.316317499999998,-0.4821602916666666,-2.557901208333333,-0.0062831853071795,0.0174532925199432,0.0726056968829641,0.012078888788500114,6.382104651542278,-0.00295041644459193
1403636891551666432,40.142059,658.4811092772552,9.414383999999998,-0.3840937916666667,-2.5905900416666663,-0.0041887902047863,0.0097738438111682,0.0795870138909414,0.014015121532742474,6.383480908664696,0.005240867983946629
1403636891801666560,49.077272,657.2746878530451,9.291800875,-0.5802267916666666,-2.557901208333333,-0.0146607657167523,0.0237364778271228,0.0712094334813686,0.011059114829915428,6.374382761130428,-0.0013556840502095824
1403636892051666432,60.646295,658.2408371797594,9.872027666666666,-0.5230213333333333,-2.6641399166666666,-0.007679448708775,0.0244346095279206,0.0712094334813686,0.017781140143259443,6.390516558287193,0.00015954896783920702
1403636892301666560,45.482397,630.2673699189423,9.602344791666663,-0.2288218333333333,-2.672312125,-0.0530580092606276,0.0279252680319092,0.0816814089933346,0.008114807002701745,6.385015525454469,0.0011613941177346376
1403636892551666432,50.095081,649.9137240201024,9.896544291666666,0.0081722083333333,-2.966511625,-0.0160570291183478,0.0090757121103705,0.0844739357965255,0.02188016475830705,6.378185797872867,0.0005106707224635798
1403636892801666560,38.537264,655.3419609812845,9.675894666666666,-0.9152873333333332,-2.672312125,-0.0069813170079773,0.0118682389135614,0.0795870138909414,0.029138659732806344,6.398028778646152,0.003610222820991993
1403636893051666432,45.486689,650.9800815774803,10.133538333333334,-0.5475379583333333,-3.072750333333333,-0.007679448708775,0.0209439510239319,0.0816814089933346,0.02258198401592574,6.38912441053056,0.00043554121105504606
1403636893301666560,51.296949,652.0662915808949,9.161045541666669,-0.5230213333333333,-2.4516625,-0.0097738438111682,0.0188495559215387,0.057246799465414,0.011764697044879887,6.3822747553663435,-0.0034347204140177112
1403636893551666432,49.911976,650.9182473329147,10.149882749999998,-0.2615106666666666,-2.9338227916666666,0.0090757121103705,-0.0160570291183478,0.0809832772925368,0.0185239780256328,6.39797662449519,0.001224149976676081
1403636893801666560,50.374985,655.0794146259033,9.299973083333333,-0.8744262916666666,-2.427145875,-0.0006981317007977,0.0174532925199432,0.0579449311662117,0.014710528640182558,6.384438725600505,-0.0008824038978545445
1403636894051666432,56.03075,654.8670595779446,9.013945791666666,-0.4821602916666666,-2.3699404166666667,-0.018151424220741,0.0111701072127637,0.0816814089933346,0.013205373877188117,6.378307845476414,0.0006886388543234645
1403636894301666560,49.974203,657.0959218501205,9.373522958333332,-0.2778550833333333,-2.5170401666666664,-0.0048869219055841,0.0104719755119659,0.0781907504893459,0.010645063521170802,6.386641082197027,0.001300401090245984
1403636894551666432,59.221983,656.7817348268508,9.185562166666664,-0.122583125,-2.6151066666666667,-0.0006981317007977,0.0209439510239319,0.0684169066781777,0.006024198034174154,6.389064565333868,-0.0014741776990838673
1403636894801666560,60.461044,654.822010012185,9.250939833333334,-0.4821602916666666,-2.3209071666666663,0.0069813170079773,0.0174532925199432,0.0740019602845595,0.012758464968251074,6.4002744661900675,0.0012340451041996658
1403636895051666432,49.713612,648.3941946322486,9.038462416666666,-0.2124774166666666,-2.427145875,0.0041887902047863,0.0188495559215387,0.0663225115757845,0.02996682400824741,6.390095510590036,-0.005803541589689765
1403636895301666560,35.538912,642.7981241907951,9.324489708333331,0.024516625,-2.2473572916666664,0.0104719755119659,0.0209439510239319,0.0921533845053006,0.015889763640315125,6.378858291742217,0.0009802235923457303
1403636895551666432,49.480915,654.6121056774318,9.643205833333331,-0.3595771666666666,-2.5905900416666663,0.0048869219055841,0.0223402144255274,0.0698131700797731,0.022859295935199503,6.390494248627145,0.003898309599724925
1403636895801666560,49.911023,653.816987465925,8.87501825,-0.3350605416666666,-2.0757409166666667,0.0006981317007977,0.0370009801422797,0.0719075651821663,0.03803128023082996,6.388639492141358,-0.01033973645802888
1403636896051666432,60.643197,649.5631207183905,7.992419749999999,0.0408610416666666,-1.6344416666666666,-0.0146607657167523,-0.0321140582366956,0.0879645943005142,0.0767008458033888,6.329585065724394,-0.00810564405299008
1403636896301666560,49.146175,629.9667765583149,7.649186999999999,-0.24516625,-1.4873419166666666,-0.0097738438111682,0.0125663706143591,0.0460766922526503,0.06986047798661874,6.352614610453938,0.01603196365473636
1403636896551666432,49.944639,645.1777766816256,9.684066875,-0.2533384583333333,-2.6641399166666666,0.0125663706143591,-0.0376991118430775,0.0837758040957278,0.05597067087966089,6.404415475258472,0.007842958172760817
1403636896801666560,50.141573,632.5133632048861,6.178189499999999,-0.367749375,-0.7927042083333332,-0.0090757121103705,-0.0390953752446729,0.0621337213709981,0.07988457236067417,6.459888517396324,0.03193332864641096
1403636897051666432,44.884204,610.343118347994,8.245758208333333,-0.392266,-2.1738074166666665,0.0321140582366956,0.0453785605518525,0.0328121899374933,0.2432714658238324,6.393229128940786,-0.023758384702918356
1403636897301666560,50.104141,518.8215472840301,10.746453958333332,0.6047434166666666,-4.323098208333334,-0.0705113017805709,0.1989675347273535,0.0698131700797731,0.1695497580760283,6.273240213721394,0.019556813691210095
1403636897551666432,54.924727,385.137564381974,8.752435125,-0.024516625,-2.8602729166666667,-0.1682497398922533,-0.247138622082397,0.0342084533390888,0.13480653881637847,6.3302309909470615,-0.019327526615117385
1403636897801666560,60.549736,417.9366475886674,9.161045541666669,-0.3350605416666666,-4.290409374999999,-0.0111701072127637,-0.3260275042725407,0.0209439510239319,0.15038041938656377,6.39985746404662,0.06705522241779605
1403636898051666432,39.195061,357.04478434278565,6.317117041666666,-0.4985047083333333,-2.4108014583333333,0.0509636141582344,0.2234021442552742,0.064926248174189,0.19996551817947167,6.503352227228272,0.009369534120837741
1403636898301666560,45.07327,568.7162261267455,10.051816249999998,0.465815875,-3.4977051666666665,0.1117010721276371,-0.0132645023151569,0.0726056968829641,0.28815109239180753,6.462885629522573,-0.031535644220261005
1403636898551666432,49.486637,535.9271710366869,10.746453958333332,0.2043052083333333,-3.3015721666666664,0.0055850536063818,-0.0453785605518525,0.0146607657167523,0.11092414847932446,6.3265218000853,-0.010408302199386377
1403636898801666560,60.450554,603.3899253622716,10.517632125,-0.5311935416666667,-4.200515083333333,0.0663225115757845,0.0020943951023931,0.1598721594826805,0.11775857975644,6.349388217740599,0.01885499897977372
1403636899051666432,54.0452,567.5499439731589,9.389867375,0.3840937916666667,-4.306753791666666,-0.122173047639603,0.1235693110411985,0.208043246837724,0.29831750792341405,6.584107231164121,0.0498281280713897
1403636899301666560,44.38281,302.019323613309,10.305154708333331,-0.4086104166666666,-4.543747833333333,-0.4307472593922005,0.2617993877991494,0.2317797246648469,0.35888155287316376,6.869535824855827,0.10860856857740764
1403636899551666432,49.194336,392.1119169300257,7.01175475,0.0081722083333333,-3.015544875,-0.3567452991076409,-0.1801179788058148,0.2611012560983517,0.4565974979460029,7.298022249793452,0.0789703210371151
1403636899801666560,66.485643,502.9043276452335,8.278447041666666,0.122583125,-2.9011339583333333,-0.1703441349946465,-0.0272271363311115,0.0027925268031909,0.5445344415446358,7.536049029544511,0.024963198901973627
1403636900051666432,50.075054,527.4645623214718,9.847511041666666,-0.2941994999999999,-3.2361945,-0.0509636141582344,0.1947787445225671,0.0865683308989187,0.900541959846594,7.657574576293938,-0.03493516931903873
1403636900301666560,39.633512,912.3876159299488,10.256121458333332,0.5230213333333333,-4.323098208333334,0.0139626340159546,-0.0202458193231342,0.0090757121103705,0.7627601955763297,7.644855421039891,-0.010253275784492644
1403636900551666432,49.693822,1091.6453645958284,8.850501625,-0.1879607916666666,-3.097266958333333,0.0907571211037051,-0.1319468914507713,0.0963421747100869,1.1517769174821404,7.9146401998611156,0.11404448381053811
1403636900801666560,59.937954,1154.440314827562,8.866846041666665,0.6210878333333334,-3.391466458333333,0.0900589894029074,0.1556833692778942,0.1312487597499735,1.5591965878059306,8.041917960231366,-0.06446989686748772
1403636901051666432,50.137997,1134.553924760743,9.798477791666668,1.0950759166666666,-4.143309625,0.0020943951023931,0.0691150383789754,0.1452113937659282,0.6411461401581925,8.128029438107697,0.009899085767107962
1403636901301666560,51.911115,980.381788212734,8.785123958333333,0.2615106666666666,-2.2963905416666663,-0.036302848441482,-0.0167551608191455,0.0160570291183478,1.541509298433503,8.627176799099221,0.13910354078750942
1403636901551666432,45.597792,983.472292633356,7.567464916666665,-0.196133,-2.9011339583333333,-0.0425860337486616,0.0209439510239319,-0.036302848441482,1.7871104451327489,9.647118394307434,0.329357457548598
1403636901801666560,49.842358,1034.9819441460306,8.131347291666666,-0.6864655000000001,-2.3372515833333334,0.0139626340159546,0.0314159265358979,0.0502654824574366,2.071589767976843,10.274483482030751,0.15072717519613832
1403636902051666432,50.093174,987.3194832908152,10.697420708333333,-0.1797885833333333,-3.857282333333333,0.0055850536063818,-0.0006981317007977,0.0698131700797731,1.1811678232652632,10.606688144839516,-0.09447419717919026
1403636902301666560,60.067176,964.6864886462556,8.270274833333334,0.416782625,-2.6641399166666666,-0.0244346095279206,0.0265290046303138,0.0781907504893459,1.0701509154022317,10.266836934926635,0.00207214436519898
1403636902551666432,59.771776,763.4829672428635,10.820003833333333,0.0735498749999999,-4.069759749999999,-0.0886627260013119,-0.0153588974175501,0.0062831853071795,1.2932980727404693,11.302251805490753,0.40040013360629345
1403636902801666560,50.253629,895.3707279070895,10.051816249999998,-0.0572054583333333,-4.314926,-0.0118682389135614,-0.0453785605518525,0.1417207352619395,1.4630225226592128,12.439950302452848,0.11023556823134406
1403636903051666432,49.708366,954.4928034799536,10.44408225,-0.392266,-2.549729,0.0188495559215387,-0.0041887902047863,0.0558505360638185,0.8987566633702277,12.075970211745672,-0.1831925105629164
1403636903301666560,60.047388,928.2690599711592,8.139519499999999,-0.6782932916666666,-3.1299557916666663,0.0432841654494593,-0.0705113017805709,0.0600393262686049,2.055426023071604,10.371268073110713,-0.4827590168586031
1403636903551666432,39.840222,919.6994837197512,6.831966166666666,0.7273265416666667,-2.811239666666667,0.0146607657167523,0.0055850536063818,0.0781907504893459,1.404391570584538,9.389616273007475,-0.01106910839937214
1403636903801666560,50.26269,824.9841227947587,11.678085708333333,0.6292600416666666,-3.612116083333333,0.0628318530717958,-0.0844739357965255,0.2520255439879811,0.9480142973348286,9.486382958730625,0.09260418250415903
1403636904051666432,50.193786,807.311695097603,10.860864875,0.5965712083333333,-2.3944570416666666,0.0090757121103705,0.1996656664281513,0.1207767842380075,1.017276539647475,10.208754014104393,0.09007988426668945
1403636904301666560,48.233032,754.1741061419252,8.850501625,-0.1552719583333333,-3.996209875,-0.0111701072127637,-0.0621337213709981,0.1633628179866692,0.6786457274549215,10.867852397901892,0.2731742743643881
1403636904551666432,49.772978,825.0456706906829,9.577828166666666,-0.2533384583333333,-3.9390044166666662,-0.08307767239493,-0.0006981317007977,0.0307177948351002,0.5601619110966359,11.404900316841044,0.06927334723648748
1403636904801666560,49.81947,759.7075784147412,9.005773583333333,-0.5720545833333333,-3.669321541666666,-0.0509636141582344,-0.007679448708775,0.0265290046303138,1.0033370789224718,10.972835023553698,-0.19225736144513128
1403636905051666432,59.773207,723.2590382517111,7.84532,-0.3840937916666667,-2.8357562916666668,-0.0900589894029074,0.0265290046303138,-0.0502654824574366,1.20322601679058,10.001286349661285,0.021745463084975825
1403636905301666560,52.768231,835.1653699023045,8.825985,0.63743225,-4.16782625,-0.0418879020478639,0.0202458193231342,0.054454272662223,0.7960901679595964,9.700559114893277,-0.0004449842653109215
1403636905551666432,49.875975,896.0803852251958,9.161045541666669,-0.53936575,-3.571255041666667,0.1277581012459849,0.1165879940332212,-0.0153588974175501,0.6603339726622627,9.143912396642559,0.056000166473879176
1403636905801666560,48.027277,897.5131254844421,9.684066875,0.0081722083333333,-3.849110125,0.0956440430092892,0.0216420827247296,0.1368338133563554,0.9903761048426319,9.253231636362475,-0.01806475149030362
1403636906051666432,41.804552,875.7102584415895,8.736090708333332,0.3595771666666666,-3.358777625,0.0321140582366956,-0.1026253600172665,-0.0174532925199432,0.912841039659963,9.061457487164569,0.40121517035695753
1403636906301666560,49.594402,758.3986128480083,10.239777041666668,-0.4739880833333333,-3.4813607499999994,0.0446804288510548,0.3155555287605747,0.1026253600172665,0.6291798730263478,9.029659055694527,0.05139434857911063
1403636906551666432,46.867609,762.6855718674244,7.559292708333333,-0.1470997499999999,-2.231012875,0.0397935069454707,-0.0174532925199432,0.2275909344600605,0.9692533661055623,9.927883565171856,0.31590757500262434
1403636906801666560,49.792289,709.6169335909791,8.139519499999999,0.1144109166666666,-2.4843513333333336,-0.0153588974175501,0.0349065850398865,-0.0460766922526503,0.6992781822095274,10.2152908805943,-0.10483752672128333
1403636907051666432,49.874783,855.8301960243693,8.3356525,-0.04903325,-4.118792999999999,0.0349065850398865,-0.0160570291183478,0.028623399732707,1.7429727754183917,9.212553504502937,0.032414382579235124
1403636907301666560,56.650877,848.7563801970896,8.97308475,-0.0735498749999999,-3.211677875,0.0621337213709981,0.0216420827247296,0.1165879940332212,0.3114074695721049,9.507030490683254,0.11477103981265202
1403636907551666432,41.820526,707.9021492433124,10.934414749999998,0.3514049583333333,-4.233203916666667,0.1235693110411985,-0.0265290046303138,0.3351032163829112,0.7607930232040087,9.224668667192425,-0.019007963342371426
1403636907801666560,50.385237,645.344892738626,8.580818749999999,-0.04903325,-2.0757409166666667,0.0509636141582344,0.0251327412287183,0.1919862177193762,3.7036136845153806,6.605157062905209,-0.8273554468700821
1403636908051666432,49.510002,524.4353467849279,7.363159708333333,-0.563882375,-2.6641399166666666,-0.0928515162060983,0.114493598930828,-0.1738347934986352,1.3373146689556974,5.659944198603024,0.01504452337009976
1403636908301666560,40.014029,568.6947666548627,9.487933875,-0.171616375,-3.407810875,0.0453785605518525,-0.0174532925199432,0.1061160185212552,0.9619961221012574,4.876162301647403,-0.22315993210357643
1403636908551666432,71.686983,590.3811185799202,8.360169125,0.5475379583333333,-2.6886565416666666,0.0397935069454707,0.0314159265358979,0.0460766922526503,0.6458249818722739,4.373694493700291,0.17124118173525105
1403636908801666560,50.629378,527.9110159545978,10.133538333333334,-0.4576436666666666,-4.494714583333333,0.0279252680319092,-0.054454272662223,0.1487020522699168,2.249899516121381,3.1628924649643593,-0.20022480912583518
1403636909051666432,48.814058,469.638066588855,8.866846041666665,0.0408610416666666,-2.3944570416666666,0.0390953752446729,-0.0230383461263251,0.153588974175501,0.6208376147553484,3.0694656592565583,0.13889617729832926
1403636909301666560,49.633503,444.7412364946476,7.428537374999999,0.2043052083333333,-3.6448049166666654,0.0223402144255274,0.0349065850398865,0.0684169066781777,0.7155961291456548,3.3012279468042847,-0.07544977673636932
1403636909551666432,46.908856,463.67539771613474,7.730909083333333,-0.6537766666666667,-3.800076875,-0.057246799465414,0.0523598775598298,0.08307767239493,1.642940380897201,3.2645668771735346,0.0169222930263504
1403636909801666560,49.925328,332.77227029327923,8.490924458333334,-0.5066769166666666,-3.4813607499999994,-0.1158898623324234,0.1137954672300302,-0.0893608577021096,2.4352698130317427,4.215463501028291,0.42242296920910505
1403636910051666432,50.609112,459.1765389438251,9.275456458333332,0.122583125,-3.9880376666666666,0.0621337213709981,-0.0453785605518525,0.268082573106329,3.5835055510369656,7.019131553856725,0.6898389250138344
1403636910301666560,49.898863,405.2567850240914,10.2969825,-0.416782625,-4.8216029166666665,0.0865683308989187,-0.0921533845053006,0.239459173373622,2.259024180232099,8.809915728167827,0.2113724613746939
1403636910551666432,50.344944,399.0324220693248,7.84532,-0.4331270416666666,-2.40262925,0.0083775804095727,-0.0146607657167523,0.0153588974175501,2.17076086653301,10.714449978595688,-0.08797757575063336
1403636910801666560,49.837589,430.5740029699463,8.025108583333333,0.9888372083333332,-3.57942725,0.057246799465414,0.0747000919853573,0.0677187749773799,1.506198673659258,11.540570654086713,0.2039558128909782
1403636911051666432,59.488535,273.0252498361344,9.373522958333332,1.0378704583333334,-2.9338227916666666,0.0272271363311115,0.2911209192326541,0.0781907504893459,0.9897762129727588,11.313418142704117,0.23607667938341415
1403636911301666560,59.688806,347.07219912144706,8.147691708333333,1.005181625,-3.8245935,-0.007679448708775,-0.0495673507566389,-0.0321140582366956,2.6090797314774834,13.575857553682805,0.21829067920973522
1403636911551666432,60.246944,375.943553279088,9.275456458333332,-0.196133,-3.2525389166666665,0.0083775804095727,-0.0230383461263251,0.1082104136236484,4.080315434425116,10.081470925208542,-0.2651392718902077
1403636911801666560,59.933424,372.9287986564187,7.959730916666666,0.0653776666666666,-3.048233708333333,0.0502654824574366,0.0118682389135614,0.179419847105017,1.3640509355727126,9.874254432620898,0.37344137918411846
1403636912051666432,39.958716,394.8053401571058,8.97308475,-0.2369940416666666,-3.18716125,-0.0132645023151569,0.0963421747100869,0.0125663706143591,1.9474078498129335,11.58277153496876,0.7884197668460224
1403636912301666560,50.013304,404.91374005219205,7.89435325,-0.0980665,-3.4977051666666665,-0.0991347015132779,0.0537561409614253,-0.1214749159388053,4.832884583190351,15.829380084964376,1.2392279235544592
1403636912551666432,50.101518,450.91473902627735,7.134337875,-0.44129925,-2.705000958333333,-0.0104719755119659,0.0872664625997164,0.0411897703470661,4.807727532525723,19.992082597913342,0.738684173134665
1403636912801666560,53.199529,534.4624670495502,8.065969625,-0.907115125,-3.751043625,0.0,0.0404916386462684,0.1228711793404008,2.4248593982630484,18.118070964907673,-1.228495407914174
1403636913051666432,60.275793,523.9728440369414,8.580818749999999,0.0163444166666666,-2.2963905416666663,-0.0474729556542457,0.161268422884276,-0.0335103216382911,5.047429918889356,13.164840690157362,-0.4960571872211208
1403636913301666560,56.481838,554.5731834880106,10.64021525,-0.1797885833333333,-4.184170666666667,0.0516617458590321,-0.1333431548523667,0.1954768762233649,1.2456491404661099,14.395989859418396,-0.11126357070003756
1403636913551666432,54.687261,571.349995952357,8.065969625,0.1389275416666666,-2.778550833333333,-0.0740019602845595,0.007679448708775,0.0600393262686049,2.317295822983246,16.41571786197492,0.6198454494907981
1403636913801666560,39.669514,614.9513218435382,10.313326916666666,-0.2043052083333333,-3.9880376666666666,-0.0314159265358979,0.0244346095279206,0.1291543646475804,1.9258645878074945,18.082730057489897,0.262045949239031
1403636914051666432,39.490939,650.3283789464058,9.177389958333332,-0.5557101666666666,-3.8245935,-0.0013962634015954,-0.0432841654494593,0.1284562329467826,5.685843478337078,23.489298920353477,1.6069415544662888
1403636914301666560,49.738407,648.1533989600105,6.921860458333333,0.4249548333333333,-2.5660734166666663,-0.036302848441482,-0.0069813170079773,-0.0139626340159546,5.245456046847709,28.36110615269311,0.6966986990608035
1403636914551666432,60.837984,618.165336254982,10.198916,-0.2941994999999999,-4.699019791666666,0.0034906585039886,0.028623399732707,0.1284562329467826,4.213963850707659,32.477464588251465,0.8826881101420199
1403636914801666560,39.602042,601.8728591521453,9.128356708333332,0.3759215833333333,-2.1166019583333333,-0.0335103216382911,0.0279252680319092,0.0656243798749867,4.068413340530264,36.5409349328635,1.7699586741547293
1403636915051666432,50.196647,635.3618343688095,8.964912541666667,0.5066769166666666,-2.3372515833333334,-0.0495673507566389,-0.0020943951023931,0.0726056968829641,2.5263197783695377,38.85253684076331,0.23702233725693134
1403636915301666560,49.890279,430.9639319368869,11.220442041666669,-0.196133,-3.3506054166666663,-0.0146607657167523,-0.1096066770252439,0.0977384381116824,0.23774334398695868,39.041226111528324,-0.13421033419857764
1403636915551666432,57.213306,454.6451082951664,10.386876791666666,-0.2288218333333333,-2.2555295,0.0719075651821663,0.2241002759560719,0.2548180707911721,0.7824323484716261,38.62412220522377,0.523797792878689
1403636915801666560,53.920985,633.6560982557445,9.888372083333332,-0.2533384583333333,-3.391466458333333,0.0244346095279206,0.0516617458590321,0.1382300767579508,1.7840753913779217,40.05447838652127,-0.39194343146982646
1403636916051666432,50.078631,522.2160225820976,9.242767625,-0.2860272916666666,-3.832765708333333,-0.0335103216382911,0.0069813170079773,-0.0698131700797731,1.0633639860441146,40.5525004078821,0.6662442286861037
1403636916301666560,39.215565,712.3515730016633,9.275456458333332,0.3514049583333333,-2.9256505833333333,0.0314159265358979,0.0,0.1417207352619395,3.1948164914822685,43.825914054613996,0.6203402461250676
1403636916551666432,41.522026,512.7680025369699,9.005773583333333,-0.0817220833333333,-4.16782625,-0.2736676267127109,0.0104719755119659,0.1005309649148733,5.499517417590524,49.38513437334056,1.054941433268425
1403636916801666560,59.520006,640.6733314257353,9.054806833333332,-0.3514049583333333,-3.881798958333333,-0.189891822616983,0.0321140582366956,0.114493598930828,2.2796371673119613,51.321242140700086,-0.11474988636762617
1403636917051666432,48.414707,680.5764142350109,7.567464916666665,-0.2860272916666666,-2.8766173333333334,-0.0516617458590321,0.0293215314335047,0.1759291886010284,1.2991450526620139,50.90358734783735,-0.56824913801983
1403636917301666560,49.70932,506.8624470749581,7.191543333333333,0.2124774166666666,-2.5905900416666663,-0.2645919146023404,0.0565486677646162,0.1940806128217694,2.6846879106578427,48.300910811099165,-0.50471556487539
1403636917551666432,50.153732,541.1760795279812,9.259112041666668,0.612915625,-2.6477955,-0.3323106895797203,-0.0139626340159546,0.2331759880664424,1.363218825357403,48.27374292989121,0.009413410782926235
1403636917801666560,48.985481,631.4272212211408,9.079323458333333,0.416782625,-3.317916583333333,-0.1738347934986352,0.0726056968829641,0.0579449311662117,0.9843047327031886,48.79149681564887,0.09523964796751727
1403636918051666432,48.778772,648.9891574280346,10.321499125,0.44129925,-4.094276375,-0.1165879940332212,-0.0495673507566389,0.0237364778271228,0.4674056910074601,49.17520647643249,0.0384005529831839
1403636918301666560,38.936376,696.5272871006115,9.635033625,0.24516625,-4.658158749999999,-0.0034906585039886,0.0013962634015954,0.0593411945678072,0.5281007900296213,49.547666416571886,-0.005204919658218898
1403636918551666432,39.815903,712.6534147203492,9.414383999999998,-0.2369940416666666,-2.941995,0.0279252680319092,-0.0481710873550434,0.0802851455917391,0.9191252233821097,49.00333059897934,0.030418643585441885
1403636918801666560,49.786567,372.97488917838,10.746453958333332,-0.318716125,-3.048233708333333,0.1759291886010284,0.1500983156715123,0.3839724354387525,2.2922107142657486,48.33756759710855,-0.2604379163752313
1403636919051666432,50.21286,515.3798022158771,9.56148375,0.0,-3.391466458333333,-0.0663225115757845,0.0816814089933346,0.3448770601940795,1.5657757845537936,48.26755601580268,0.07888982939304157
1403636919301666560,49.695492,537.9727075568552,7.755425708333333,0.5311935416666667,-3.4241552916666667,-0.1340412865531645,0.0034906585039886,0.0677187749773799,0.8271190056309851,48.87022742443632,0.1269567042563864
1403636919551666432,60.263634,580.5853175773213,9.16921775,0.4004382083333333,-3.0400615,-0.1312487597499735,0.0537561409614253,-0.124965574442794,0.5429296853982272,48.495181213181084,-0.16005863233737472
1403636919801666560,49.934149,717.535785751999,7.183371125,-0.4331270416666666,-1.642613875,0.018151424220741,0.1165879940332212,0.1319468914507713,1.5351148069090075,47.19460312705159,-0.11129022590232296
1403636920051666432,39.209365,684.2429150723954,9.700411291666663,0.3268883333333333,-3.3996386666666667,0.0551524043630208,0.0865683308989187,0.1961750079241626,0.859823770785817,46.47731580743101,-0.17427234422369509
1403636920301666560,47.49465,532.727099762999,10.4931155,-0.1307553333333333,-4.388475875,-0.0663225115757845,0.0684169066781777,-0.1647590813882647,0.34939263655111263,46.56523380933764,0.020379769902717726
1403636920551666432,50.305128,530.3615970305838,10.803659416666664,0.5230213333333333,-3.023717083333333,0.018151424220741,-0.0265290046303138,-0.0048869219055841,0.9403637466583726,46.122429584309025,-0.09045112364810137
1403636920801666560,38.43689,631.6044789562396,8.940395916666665,0.1634441666666666,-3.6284605,-0.018151424220741,-0.1123992038284348,0.0851720674973232,0.8820914620124943,45.66593695235067,-0.08222530675453754
1403636921051666432,50.032615,716.8963444397239,10.182571583333331,-0.0081722083333333,-3.505877375,-0.0251327412287183,0.0418879020478639,0.1019272283164688,0.7141008294186499,45.44282871082427,0.011451047593645569
1403636921301666560,60.733318,544.6525878291937,5.941195458333333,0.5720545833333333,-1.6916471249999998,0.0090757121103705,0.1940806128217694,0.1193805208364121,0.376102554945654,45.37035597130851,0.040716375484933565
1403636921551666432,50.435305,683.1494791459132,9.986438583333332,0.04903325,-3.685665958333333,0.0356047167406843,-0.0516617458590321,0.2073451151369263,0.42029184058597224,45.24002490885689,-0.04735298297864432
1403636921801666560,41.306734,485.44864663448703,9.896544291666666,-0.3105439166666667,-2.8847895416666667,-0.0991347015132779,-0.2066469834361286,-0.0370009801422797,0.7655486403559313,44.67275319362523,-0.09081566377489025
1403636922051666432,49.825668,538.0699719619578,7.967903124999999,0.4249548333333333,-2.574245625,-0.1549852375770964,0.3092723434533951,-0.0670206432765822,0.6783172183061548,44.451604349917076,-0.03637406081596595
1403636922301666560,38.115024,512.966444601659,7.739081291666666,0.2615106666666666,-3.1217835833333334,-0.1179842574348166,-0.1005309649148733,0.007679448708775,1.049261982867496,44.3154782188934,-0.16105955315237708
1403636922551666432,49.768924,512.132246381649,7.265093208333333,0.6864655000000001,-2.680484333333333,-0.1724385300970397,-0.064926248174189,0.1500983156715123,2.0253795011400832,43.408864770454294,-0.10994340034808658
1403636922801666560,48.754692,445.3917907688365,9.626861416666666,0.416782625,-3.0564059166666664,-0.0502654824574366,0.0998328332140756,0.3497639820996636,1.0292184832977187,43.21398083710364,-0.003185467677930376
1403636923051666432,60.322524,653.9291182567941,8.597163166666666,-0.1797885833333333,-3.702010375,-0.1577777643802873,0.0607374579694026,0.1263618378443894,1.2900146277676419,44.06871301108525,0.1982813512348045
1403636923301666560,49.922943,382.6915899776937,7.812631166666666,0.024516625,-1.372931,-0.2841396022246769,-0.0802851455917391,-0.0460766922526503,0.5571546306774748,43.98464604746085,-0.20476235417208244
1403636923551666432,49.425125,491.866242059374,11.588191416666666,-0.6210878333333334,-3.8654545416666655,-0.1137954672300302,-0.2834414705238791,0.153588974175501,1.9999049812700578,43.093596709492324,-0.16619528322144816
1403636923801666560,59.202671,707.484255375507,10.305154708333331,-0.416782625,-4.192342875,-0.0453785605518525,0.0886627260013119,-0.0006981317007977,0.6420221145008701,43.31095991218361,0.06920245893201127
1403636924051666432,41.867495,763.301618944733,9.790305583333332,-0.2043052083333333,-3.751043625,0.0048869219055841,-0.0188495559215387,0.0279252680319092,1.360838183281523,44.38347876372928,0.26203517710765567
1403636924301666560,60.186147,733.4309089868943,8.711574083333332,-0.2778550833333333,-2.0021910416666664,0.0844739357965255,-0.0279252680319092,0.2220058808536787,0.9509890866328875,45.229803523238,0.16371324917759722
1403636924551666432,47.219039,522.3919076904109,10.370532375,0.0,-4.429336916666666,0.1075122819228507,0.2387610416728242,0.2331759880664424,1.193669734039945,45.93405235178739,0.1778352134275849
1403636924801666560,60.602427,585.3430786573667,6.644005375,0.4086104166666666,-3.113611375,0.0342084533390888,0.1954768762233649,0.1466076571675237,0.6923744015467397,46.57863392008422,0.17229760856282894
1403636925051666432,48.368931,482.04369876490665,9.079323458333333,0.367749375,-3.2525389166666665,-0.2296853295624537,-0.0244346095279206,-0.0006981317007977,1.4682051967302812,47.7707929429742,0.17533777946312057
1403636925301666560,49.696207,450.4647539539646,8.564474333333333,0.34323275,-3.996209875,-0.1563815009786919,-0.2073451151369263,-0.1019272283164688,2.1068969545339997,49.20293682898196,0.24669505961451677
1403636925551666432,50.224066,577.4819563496234,9.520622708333333,-0.3105439166666667,-2.999200458333333,-0.0781907504893459,-0.2597049926967562,0.0593411945678072,1.9545230561827418,49.32766044868566,0.12258595217227253
1403636925801666560,57.00922,708.0200975574489,11.040653458333331,-0.1144109166666666,-3.57942725,-0.0244346095279206,0.1864011641129944,0.0446804288510548,1.3988407977491781,50.54203733734673,0.2856123995508639
1403636926051666432,49.962283,373.95772305164456,6.938204874999999,-0.7109821249999999,-2.2963905416666663,0.0237364778271228,0.507541746479951,0.189891822616983,1.398598466780494,51.75128868851936,0.16660586592761462
1403636926301666560,49.529791,599.8051503715708,8.490924458333334,0.4739880833333333,-4.126965208333333,0.0921533845053006,0.0760963553869527,0.2443460952792061,0.7877615086608842,51.67862617576361,-0.1211102708260583
1403636926551666432,56.490421,641.1491808042215,10.125366125,0.0,-2.999200458333333,-0.0293215314335047,-0.0488692190558412,-0.0991347015132779,0.684985566368256,51.08589912476591,0.23384763996805447
1403636926801666560,50.200462,570.738810239283,8.482752249999999,0.4331270416666666,-3.4323274999999995,-0.0998328332140756,-0.1186823891356144,0.1591740277818828,1.4308187928651146,49.76660172504555,-0.4246089810089444
1403636927051666432,50.432444,444.2818733033126,9.520622708333333,0.3350605416666666,-3.4731885416666666,-0.43703044469938,0.0425860337486616,0.1738347934986352,0.7462013184151408,49.784355092951074,0.1770975492803828
1403636927301666560,49.854517,382.98530542843656,7.428537374999999,0.0408610416666666,-2.0267076666666664,-0.4551818689201211,-0.0006981317007977,0.1270599695451872,1.720233858647132,51.57878708715644,0.15480406180535056
1403636927551666432,47.274351,359.85219080567964,11.163236583333331,-0.44129925,-3.898143375,-0.239459173373622,-0.3476695869972704,0.0977384381116824,1.6037536859052637,51.3420685014777,0.1767711838093433
1403636927801666560,50.257921,632.6773747896665,10.207088208333332,0.024516625,-2.982856041666666,-0.0621337213709981,0.0691150383789754,0.0984365698124801,0.47327499259897904,51.264031513098764,0.05206026744674119
1403636928051666432,49.916983,507.9787215149623,7.706392458333333,0.3350605416666666,-3.881798958333333,0.0062831853071795,0.2171189589480945,0.0656243798749867,0.8756074121387238,51.0697878524499,-0.06153484853350477
1403636928301666560,48.949242,478.27407056138543,10.525804333333332,0.44129925,-3.334261,0.0795870138909414,0.3288200310757317,0.1361356816555577,0.6263737108408506,51.226626768383,0.07022838772493856
1403636928551666432,52.891255,657.7949297141234,8.302963666666667,-0.0408610416666666,-3.0073726666666665,-0.0020943951023931,0.028623399732707,0.0062831853071795,0.8908301899862728,51.66989101313032,0.21921680360473772
1403636928801666560,50.143957,598.7955838066268,8.597163166666666,0.367749375,-3.113611375,-0.0111701072127637,-0.0774926187885482,0.0013962634015954,0.5316257539552081,51.95765088738924,0.17422786429951742
1403636929051666432,64.170838,428.9574805924106,9.038462416666666,-0.0163444166666666,-2.2228406666666665,0.0823795406941323,0.1829105056090057,0.265290046303138,3.0885022461388476,54.7622972161686,-0.0013067176752556975
1403636929301666560,60.168266,605.4971126342532,7.40402075,0.0980665,-3.2443667083333327,0.0223402144255274,-0.1033234917180643,0.1500983156715123,3.586902972512444,52.29626967291775,-0.461215839077596
1403636929551666432,34.105778,537.0928051173204,9.103840083333331,-0.4903325,-2.770378625,-0.0446804288510548,-0.0041887902047863,-0.1158898623324234,0.22881762392824748,52.57113159119893,0.1844841202845231
1403636929801666560,49.412489,572.5888909332105,8.9240515,-0.5148491249999999,-4.486542375,-0.0020943951023931,-0.0293215314335047,0.0272271363311115,0.5016172703658748,52.437087026195506,-0.018847053508572742
1403636930051666432,61.419964,572.3918802712857,8.940395916666665,-0.7191543333333333,-3.669321541666666,-0.0460766922526503,-0.1829105056090057,0.1480039205691191,1.400242370520757,51.2919331829763,-0.014220407572793192
1403636930301666560,49.582959,602.3329183737768,11.204097625,-0.2288218333333333,-2.819411875,0.0397935069454707,-0.0432841654494593,0.1745329251994329,0.7113220796459164,51.553679973331114,-0.0003013953450903273
1403636930551666432,49.829007,540.4903556574751,9.062979041666669,1.054214875,-3.947176625,-0.0244346095279206,0.0893608577021096,-0.0195476876223364,1.1579159188110417,52.38091780857723,0.06804610048757098
1403636930801666560,40.234566,540.9494644492686,9.716755708333332,-0.4086104166666666,-3.138128,0.0837758040957278,0.0146607657167523,0.3113667385557884,1.1883431288093984,52.692882025178974,0.017832328496233174
1403636931051666432,60.051202,417.8074718185799,10.73828175,-0.6864655000000001,-4.020726499999999,-0.1766273203018261,0.1487020522699168,0.085870199198121,0.28507624677003635,53.148042093926215,0.19978341303937697
1403636931301666560,60.858965,405.31657913927927,8.736090708333332,-0.5066769166666666,-3.685665958333333,-0.1577777643802873,0.1452113937659282,-0.0656243798749867,0.8894851164262026,53.336336406487625,0.058940670882407176
1403636931551666432,50.181389,474.3200224518794,10.893553708333332,0.7518431666666666,-3.4650163333333333,-0.1382300767579508,0.0418879020478639,-0.1424188669627373,1.3399700173242535,54.05175122036715,0.01885208912376868
1403636931801666560,46.27204,477.1691059322193,7.50208725,-0.2860272916666666,-3.170816833333333,0.0551524043630208,-0.1675516081914556,0.335801348083709,1.050548425712666,54.782501559174335,0.2728646780193458
1403636932051666432,60.349226,593.8914552132061,7.305954249999999,-0.1307553333333333,-3.693838166666666,0.0083775804095727,0.1808161105066125,0.1179842574348166,0.968014549946627,54.26125755363627,0.06634167997943763
1403636932301666560,49.239398,496.0087919152896,9.961921958333331,0.1552719583333333,-3.3751220416666667,-0.1333431548523667,0.1026253600172665,-0.1193805208364121,1.3287058879721512,54.935251406287286,0.10990114127723416
1403636932551666432,63.821793,466.8973718207993,9.536967125,1.0378704583333334,-3.8654545416666655,-0.2268928027592628,0.0146607657167523,0.2122320370425104,0.4854807570666224,55.17194648095924,0.04737818707043573
1403636932801666560,39.488077,509.867386891941,7.763597916666666,0.0572054583333333,-3.3751220416666667,-0.260403124397554,-0.0006981317007977,0.1996656664281513,0.5952644034469368,55.36863804965492,-0.012667773121151527
1403636933051666432,38.633347,508.43368582456975,6.864654999999999,-0.2043052083333333,-3.2770555416666665,-0.2310815929640492,-0.0928515162060983,0.153588974175501,0.6141450823086764,55.78232753985557,0.10312160507256607
1403636933301666560,49.637079,306.2284078740184,8.253930416666666,-0.2778550833333333,-3.015544875,-0.1228711793404008,-0.4796164784480418,0.1033234917180643,1.2083529784019036,56.16126094650484,0.046044152071189615
1403636933551666432,50.642252,544.7332667053294,8.940395916666665,-0.3595771666666666,-2.827584083333333,0.0237364778271228,0.2171189589480945,0.0132645023151569,0.778173342802397,56.008063260826745,0.0065568496341299465
1403636933801666560,50.946236,615.7114471780234,9.103840083333331,0.269682875,-2.2555295,0.0628318530717958,0.1884955592153876,0.1333431548523667,0.5798529849306556,56.180957177215696,-0.050147515236730555
1403636934051666432,40.233135,525.9219067337375,7.79628675,0.3840937916666667,-2.1492907916666666,-0.3204424506661589,-0.0041887902047863,0.1857030324121966,1.24763910754055,57.26761289946924,0.26563992832353023
1403636934301666560,49.188376,433.25199697523385,8.891362666666666,-0.318716125,-2.4434902916666665,-0.4956735075663895,0.0125663706143591,0.2617993877991494,0.7905470061400361,57.20931414215288,-0.3733358841391805
1403636934551666432,50.548792,403.38835041737474,11.016136833333332,-0.34323275,-4.225031708333333,-0.5319763560078716,0.0390953752446729,0.3735004599267865,1.0114262723640526,56.20093730244983,-0.36328978856356997
1403636934801666560,60.554266,458.1908960261798,10.313326916666666,0.1470997499999999,-2.966511625,-0.2694788365079245,-0.0795870138909414,-0.0118682389135614,1.0257846324539301,55.51659821366375,-0.35217936061846444
1403636935051666432,49.184561,632.3211923566988,10.705592916666664,-0.4494714583333333,-3.898143375,-0.0719075651821663,0.1151917306316257,0.0279252680319092,1.8371052520371502,53.646574711127585,-0.46581396473418124
1403636935301666560,49.576759,725.1201704359688,9.896544291666666,-0.122583125,-3.6448049166666654,0.0774926187885482,0.0481710873550434,0.1361356816555577,1.1749006610309738,53.62151045272723,0.3697579859689313
1403636935551666432,49.910307,817.1057306598036,8.025108583333333,-0.4903325,-3.587599458333333,0.0628318530717958,0.0383972435438752,0.0712094334813686,2.31102046943207,53.28704216123692,-0.1772999650553757
1403636935801666560,46.349287,600.4023651222747,10.239777041666668,0.3268883333333333,-3.612116083333333,-0.0293215314335047,-0.1836086373098034,-0.0048869219055841,2.24783604202658,52.13725836076494,-0.4240403874840126
1403636936051666432,50.213813,615.770772210098,9.234595416666666,0.8172208333333333,-2.770378625,0.0349065850398865,-0.1682497398922533,0.1291543646475804,2.004429789361831,50.23094331946454,-0.15339823712105982
1403636936301666560,54.41618,587.0510180102863,9.16921775,-0.63743225,-4.633642125,-0.0069813170079773,0.2590068609959585,0.075398223686155,1.5705063851986019,51.714951877746515,0.9002250580214692
1403636936551666432,39.885998,727.574809938961,10.182571583333331,-0.0572054583333333,-3.113611375,0.0006981317007977,0.124965574442794,0.1096066770252439,6.260388870993593,58.01140094508062,1.037122020841963
1403636936801666560,42.076111,726.5033776626983,8.588990958333333,0.3023717083333333,-3.170816833333333,-0.0146607657167523,0.0816814089933346,0.046774823953448,1.7435271873471676,59.95614125679219,0.16622080155279662
1403636937051666432,49.982786,782.767185304288,11.343025166666669,0.2941994999999999,-4.347614833333333,0.0020943951023931,-0.0090757121103705,0.0642281164733913,0.841755586759997,59.711108240839536,0.23524972022224233
1403636937301666560,39.197922,812.3344469987047,9.602344791666663,1.005181625,-1.4628252916666666,-0.0111701072127637,0.0865683308989187,0.0879645943005142,0.25636899332420743,59.82077494554275,-0.19878209884294762
1403636937551666432,49.640417,825.0132773719143,10.002783,0.2533384583333333,-3.906315583333333,-0.0139626340159546,0.075398223686155,0.0628318530717958,0.6364752224040197,60.43594225359368,0.16103826913857233
1403636937801666560,49.479008,765.9349108331966,8.711574083333332,0.2860272916666666,-2.745862,-0.036302848441482,-0.0062831853071795,-0.0370009801422797,0.9651257818246519,60.913675024830226,-0.21057238375777132
1403636938051666432,47.719002,796.159981606739,9.226423208333332,-0.2533384583333333,-4.797086291666667,-0.0335103216382911,0.2157226955464991,0.0795870138909414,1.1013415488481977,60.41571396513981,-0.32081903779737786
1403636938301666560,60.035944,676.9673101044968,9.062979041666669,-0.1307553333333333,-3.08909475,0.0579449311662117,-0.1172861257340189,0.5941100773788698,2.02164482185386,58.413377606631755,-0.5122929686010025
1403636938551666432,50.017595,606.8769449498625,9.667722458333332,1.0705592916666666,-2.0675687083333334,-0.0167551608191455,-0.1933824811209717,0.2157226955464991,1.7627931142501774,57.8376348850871,0.15498692802535174
1403636938801666560,49.055815,660.1730091550754,10.010955208333332,-0.5230213333333333,-2.770378625,-0.0851720674973232,-0.0523598775598298,-0.0733038285837618,0.5376341798102586,57.99322766112884,-0.034905877908258276
1403636939051666432,50.443649,752.2979775227714,8.760607333333333,-0.8989429166666666,-2.9011339583333333,-0.0635299847725936,-0.1075122819228507,-0.0349065850398865,1.4875591837286979,58.197403026580396,-0.04027728646521922
1403636939301666560,39.415837,789.6403155058914,7.984247541666667,-0.5802267916666666,-2.606934458333333,0.0404916386462684,0.1228711793404008,0.0342084533390888,3.0068965552506466,57.75053302676826,-0.08490981727479863
1403636939551666432,50.619602,657.749133438656,10.149882749999998,-0.612915625,-3.57942725,0.046774823953448,0.1452113937659282,-0.0125663706143591,6.578962813842177,52.24675995832973,-0.8224852406432248
1403636939801666560,49.5615,801.336096166232,8.580818749999999,0.6537766666666667,-2.508867958333333,0.028623399732707,0.093549647906896,0.0404916386462684,2.6796573585469456,51.06695399278325,-0.04453350947014911
1403636940051666432,59.749126,585.397812775926,8.891362666666666,0.0735498749999999,-3.9144877916666654,-0.1689478715930511,-0.0153588974175501,0.1354375499547599,1.5011129905933829,49.73802794684251,-0.374618157401045
1403636940301666560,47.734261,608.1189277402249,9.643205833333331,0.1634441666666666,-2.427145875,-0.0970403064108847,0.0656243798749867,0.1019272283164688,1.0150914941625315,49.79112921820023,0.0390221504712045
1403636940551666432,51.722527,440.5263189999049,10.852692666666666,0.1144109166666666,-4.511059,-0.0558505360638185,-0.0886627260013119,0.132645023151569,1.0604618280936886,49.310633914260954,-0.5069855959223233
1403636940801666560,50.631046,482.26212759804366,9.569655958333334,-0.2860272916666666,-2.729517583333333,-0.0558505360638185,-0.0656243798749867,-0.0020943951023931,5.84717241400079,44.388348338871964,-1.2176617195894295
1403636941051666432,47.491789,526.0101229082372,9.259112041666668,0.3105439166666667,-3.97169325,0.0,0.0314159265358979,0.0837758040957278,2.6626113293490787,43.76979653561948,0.5653593275431774
1403636941301666560,41.056633,605.584667993034,8.425546791666665,0.0898942916666666,-2.4434902916666665,0.0397935069454707,0.1228711793404008,0.1061160185212552,3.485165888354967,47.30431143,0.8448927570714133
1403636941551666432,49.602508,743.5963505216575,7.583809333333333,-0.171616375,-2.7131731666666665,-0.0013962634015954,-0.0041887902047863,-0.0083775804095727,4.131407698266679,51.59816564225088,0.3404360319808859
1403636941801666560,40.18712,752.2531729158362,10.125366125,0.1797885833333333,-3.97169325,0.036302848441482,-0.0460766922526503,0.1263618378443894,3.147824358480897,49.471890041843324,-0.05979267853714987
1403636942051666432,50.104856,739.8490626926055,10.010955208333332,0.0817220833333333,-3.8409379166666655,0.0279252680319092,0.0586430628670094,0.1724385300970397,2.5004699186984953,48.190181877017714,0.00864798688828472
1403636942301666560,49.729824,678.3296791871027,7.305954249999999,-0.4576436666666666,-3.268883333333333,-0.0083775804095727,0.0446804288510548,0.1473057888683213,1.5878600982176625,47.987514991634235,-0.37370554873221806
1403636942551666432,48.098802,686.3673419771761,8.319308083333333,-0.2860272916666666,-3.342433208333333,-0.0684169066781777,-0.1857030324121966,0.1640609496874669,1.7903724580910538,46.97174961556802,-0.3515526111443492
1403636942801666560,51.272153,729.568047618245,10.574837583333332,-0.784532,-3.211677875,-0.0705113017805709,0.0153588974175501,-0.0125663706143591,3.051699789552604,46.24453275237735,-0.47515503826961236
1403636943051666432,49.919844,651.870504644534,11.800668833333331,0.122583125,-4.625469916666667,-0.0614355896702004,0.1061160185212552,0.0530580092606276,3.416787331712133,43.727277700663855,-0.23085672258944356
1403636943301666560,49.920321,819.8293574699073,7.902525458333333,-0.83356525,-2.1166019583333333,-0.0698131700797731,0.0628318530717958,0.0321140582366956,4.437850401766668,40.874450976530056,-0.7135068055740703
1403636943551666432,50.256968,751.2099747948536,8.253930416666666,0.4004382083333333,-3.587599458333333,-0.028623399732707,0.0418879020478639,0.0837758040957278,2.0448293773776993,39.964860769802435,0.25305650670991753
1403636943801666560,49.575805,725.9334000289699,7.420365166666667,0.122583125,-3.064578125,0.0942477796076938,0.0174532925199432,0.0963421747100869,1.4236998038681423,40.42186725892483,-0.45913402321313157
1403636944051666432,50.232649,334.8464316050786,8.409202375,-0.0980665,-3.28522775,0.1487020522699168,-0.2778564169174973,-0.0383972435438752,2.249204061627651,41.21839981101262,0.8314447668868539
1403636944301666560,41.10527,648.9850327146412,10.950759166666666,0.2860272916666666,-3.7837324583333327,0.0607374579694026,0.0104719755119659,0.0216420827247296,1.7567829826582597,42.57961038628408,0.16805911039886468
1403636944551666432,49.986839,471.0686131646427,8.719746291666667,-0.5475379583333333,-2.705000958333333,-0.064926248174189,0.2925171826342496,-0.1654572130890624,4.186933334758703,47.08702867348284,1.7915000021167984
1403636944801666560,58.85148,486.0346904952925,8.997601374999999,-0.0898942916666666,-3.505877375,0.1103048087260416,0.0558505360638185,0.1305506280491758,8.100295350503405,55.009800527701444,1.556527111946778
1403636945051666432,49.234152,676.1400973253935,9.831166624999998,0.1062387083333333,-2.8847895416666667,0.0851720674973232,0.085870199198121,0.0907571211037051,2.6047556182312372,56.8010456222372,-0.3898097046883606
1403636945301666560,49.854993,727.2364165766337,10.395049,0.1470997499999999,-1.4056198333333334,0.0062831853071795,-0.0048869219055841,0.1054178868204575,0.9996106983256167,56.22489264336775,0.00970156133851674
1403636945551666432,48.098087,642.2319615008862,9.937405333333334,-0.3759215833333333,-3.742871416666666,0.0034906585039886,-0.0621337213709981,0.1745329251994329,0.22779049093325227,56.31655099319622,0.13677408894936605
1403636945801666560,41.608334,404.5683948140654,7.927042083333333,-0.1144109166666666,-2.672312125,-0.0523598775598298,-0.2729694950119131,0.0118682389135614,0.5633621136331419,56.76083400386265,0.16384836981152517
1403636946051666432,49.854279,615.240669946624,8.572646541666666,-0.024516625,-1.9286411666666663,-0.0097738438111682,0.3867649622419434,0.0048869219055841,2.3797285434789175,58.49320956609516,0.1536934672752821
1403636946301666560,48.316002,707.4932946723618,7.771770125,-0.1144109166666666,-2.4843513333333336,-0.0307177948351002,0.0977384381116824,0.0865683308989187,2.360180145163862,60.46671745019583,1.0596944338940304
1403636946551666432,50.044298,728.932025299364,9.022118,-0.1797885833333333,-3.97169325,-0.0481710873550434,-0.0104719755119659,0.1305506280491758,1.6586629723897488,61.635386218111954,0.08098197491974446
1403636946801666560,49.644231,526.6022883402336,9.46341725,0.8989429166666666,-2.6477955,0.1514945790731078,-0.0125663706143591,0.4838052686528281,0.9917379403883159,60.78395738728608,-0.16291499608372106
1403636947051666432,59.740781,570.8561788095404,8.278447041666666,0.7927042083333332,-3.857282333333333,-0.0390953752446729,-0.0370009801422797,0.0279252680319092,0.831954045100518,61.305426200784815,0.11844508389136621
1403636947301666560,41.348934,318.5177207234531,11.343025166666669,-0.367749375,-2.672312125,-0.1445132620651305,-0.2904227875318564,-0.2478367537831947,0.9850685215025029,60.43759154389304,-0.1603888873576551
1403636947551666432,49.655199,377.2310436633799,10.207088208333332,-0.3350605416666666,-2.7131731666666665,0.0635299847725936,0.1940806128217694,0.2429498318776106,0.6554787679251434,60.76726791805531,0.37679981595373135
1403636947801666560,48.41876,519.254427267834,8.507268875,0.3268883333333333,-3.9880376666666666,-0.075398223686155,0.1256637061435917,-0.1333431548523667,4.199433150606609,65.19103874478007,0.531285198545234
1403636948051666432,51.288843,544.202875944757,10.4931155,0.3514049583333333,-3.8164212916666655,0.1123992038284348,-0.1452113937659282,0.2345722514680378,0.6720483666314406,65.67535434272752,0.03864203344359396
1403636948301666560,49.816847,560.5612726876036,7.444881791666666,0.367749375,-2.819411875,0.0216420827247296,0.1137954672300302,-0.0230383461263251,1.0676195366780166,64.99113858312666,-0.05430286327455747
1403636948551666432,49.866914,384.4091371356637,9.888372083333332,-0.1307553333333333,-4.241376125,-0.0712094334813686,0.1319468914507713,-0.2066469834361286,1.4324597730731157,64.56947968519106,-0.041296452140088036
1403636948801666560,61.91206,361.8578727802678,8.490924458333334,0.0898942916666666,-3.4731885416666666,0.1563815009786919,0.0740019602845595,0.3853686988403479,0.7861863556321366,64.76963725229335,0.15861414470019497
1403636949051666432,49.724341,508.9567927693949,8.057797416666666,0.0572054583333333,-2.40262925,0.1214749159388053,0.0593411945678072,0.3190461872645634,0.24522738596969357,64.36400012687085,-0.20569667142119386
1403636949301666560,49.697638,457.451821413552,9.005773583333333,0.1307553333333333,-3.3260887916666664,0.0251327412287183,0.0691150383789754,0.179419847105017,0.3939985075556823,63.657679104641765,-0.03399676773724991
1403636949551666432,50.104857,530.072224031541,9.406211791666664,-0.4821602916666666,-2.7213453750000003,0.0481710873550434,-0.0111701072127637,0.1780235837034216,0.19399369697309712,63.20769036658892,-0.08126299726372821
1403636949801666560,59.375525,420.22805926214966,11.81701325,-0.04903325,-3.67749375,0.025830872929516,-0.2694788365079245,0.2206096174520832,0.6348122144903772,62.13291419404887,-0.30382897933673547
1403636950051666432,54.408074,593.3412665832208,9.847511041666666,0.0326888333333333,-2.5415567916666664,0.0006981317007977,-0.1354375499547599,0.093549647906896,0.24444590669042343,61.73706183235236,-0.12600280163289312
1403636950301666560,60.418129,477.0020230045206,8.033280791666666,0.7600153749999999,-3.023717083333333,-0.0558505360638185,0.2150245638457014,-0.0335103216382911,0.7345555019628769,61.36888876927172,0.04595778007823981
1403636950551666432,50.706863,453.0318198275389,9.455245041666666,-0.465815875,-3.415983083333333,-0.1096066770252439,0.2094395102393195,-0.1312487597499735,0.18944687967698906,61.24457354878873,0.009637746896494548
1403636950801666560,50.016165,530.7950087774992,9.291800875,-0.3595771666666666,-3.77556025,0.0865683308989187,0.1982694030265558,0.2457423586808016,1.261032566483843,61.529994841135185,-0.0012075235259487727
1403636951051666432,52.482605,505.5892625147875,10.83634825,-0.2533384583333333,-3.881798958333333,0.1061160185212552,0.1214749159388053,0.2038544566329376,1.4954423754776658,62.528968830335394,0.26211705043105127
1403636951301666560,49.913883,399.8054136781822,7.3549875,-0.0735498749999999,-3.2770555416666665,-0.0342084533390888,-0.2331759880664424,0.0272271363311115,2.4235106919542946,64.06399546393875,0.14743914669774227
1403636951551666432,39.155722,539.8034475573309,9.553311541666666,-0.1634441666666666,-4.36395925,-0.0321140582366956,0.0300196631343024,0.0516617458590321,0.5770029006058801,63.79452152370221,-0.04006404737438629
1403636951801666560,42.578697,414.0350984288832,9.250939833333334,0.73549875,-3.8082490833333327,-0.0104719755119659,0.2129301687433081,0.0342084533390888,1.6633656588307857,63.983501114665096,0.1621192246839982
1403636952051666432,39.294243,364.5658632516965,8.38468575,0.0081722083333333,-3.4977051666666665,-0.0090757121103705,0.0069813170079773,0.0656243798749867,1.9291721337354357,65.57621834283879,0.23534665347170858
1403636952301666560,50.748349,248.72937475019205,7.869836625,0.7763597916666666,-2.549729,0.0691150383789754,0.1843067690106012,0.2303834612632515,1.7263105645916148,67.0353051256839,0.16552945770790473
1403636952551666432,51.163674,300.8641173418117,10.076332875,0.3840937916666667,-3.415983083333333,-0.0488692190558412,-0.0502654824574366,-0.0188495559215387,1.470132914611308,65.72347363207506,-0.17536056113362974
1403636952801666560,59.886933,170.273575334205,9.626861416666666,-0.0163444166666666,-3.219850083333333,-0.0062831853071795,-0.0579449311662117,0.0397935069454707,1.205376574669813,65.55190342798197,0.21095265069217817
1403636953051666432,46.207667,257.2211546661544,7.820803375,1.1114203333333332,-3.3996386666666667,0.0432841654494593,-0.1061160185212552,0.1982694030265558,3.600045507867996,68.51023776828957,0.21984550745492015
1403636953301666560,61.570882,291.22235508646446,10.337843541666668,-0.269682875,-3.0400615,-0.0370009801422797,-0.0376991118430775,0.0481710873550434,1.6659565655509496,69.80555926815197,0.19616092880610836
1403636953551666432,61.118603,273.84569440072727,11.604535833333331,-0.220649625,-3.391466458333333,-0.0160570291183478,-0.0893608577021096,-0.0356047167406843,2.5688884617306633,71.29570049673296,0.29005817716515025
1403636953801666560,47.865868,255.7643560021975,11.808841041666666,0.5883989999999999,-4.257720541666666,-0.0411897703470661,0.0097738438111682,-0.1158898623324234,3.260133906109176,71.27372202389803,0.08578515314896151
1403636954051666432,49.965381,262.3950379799403,10.198916,-0.4576436666666666,-4.699019791666666,-0.0097738438111682,0.0342084533390888,0.1675516081914556,2.6771529620123777,72.79478022937832,0.35723767698250697
1403636954301666560,49.750566,296.51446786675854,9.953749749999998,0.34323275,-3.538566208333333,-0.0321140582366956,-0.0439822971502571,0.057246799465414,2.694368451290486,75.04462721621427,0.64119428847998
1403636954551666432,50.103187,313.61922055320963,9.675894666666666,0.5066769166666666,-2.999200458333333,-0.0516617458590321,0.0390953752446729,0.0670206432765822,3.6466311678688577,78.5846569100563,0.7995597603554216
1403636954801666560,41.151523,280.8036816295422,7.771770125,0.2043052083333333,-2.0021910416666664,-0.0712094334813686,0.2192133540504878,0.1130973355292325,3.967457939297318,82.21495873315344,0.5612746289364026
1403636955051666432,60.511589,356.8097195134705,10.2969825,-0.0817220833333333,-3.5957716666666664,-0.0998328332140756,-0.0698131700797731,0.0370009801422797,1.6920164550927879,83.00894551814406,-0.13330868556393227
1403636955301666560,50.372124,365.7914079866437,9.692239083333332,0.4576436666666666,-1.838746875,-0.0747000919853573,0.1172861257340189,0.08307767239493,2.0883325244818045,83.77541909595756,0.8748404879957405
1403636955551666432,49.840688,384.5325615534684,8.915879291666666,-0.220649625,-3.67749375,-0.0642281164733913,-0.0439822971502571,0.0635299847725936,4.123618023216804,87.62979381683937,0.7625175849755834
1403636955801666560,51.388502,456.0948469274064,9.128356708333332,0.269682875,-2.868445125,-0.0425860337486616,0.1186823891356144,0.0132645023151569,4.234319847138476,91.46498546656552,1.0662228666395777
1403636956051666432,49.27206,474.4692141336348,8.515441083333332,0.563882375,-2.827584083333333,0.0816814089933346,-0.0118682389135614,0.4153883619746504,5.174217484080679,96.51758025266588,0.9406966112510986
1403636956301666560,59.529305,598.9247008604316,8.490924458333334,-0.024516625,-2.770378625,-0.1137954672300302,-0.0013962634015954,-0.1961750079241626,3.9762156291079434,99.97055274267541,0.5276855478318225
1403636956551666432,49.906254,403.2756558371599,9.741272333333333,0.4086104166666666,-3.3260887916666664,0.075398223686155,0.2659881780039358,0.0062831853071795,4.409931411375792,95.6624684859206,-1.320020324634271
1403636956801666560,61.049938,324.917968501328,10.313326916666666,1.6589582916666663,-3.669321541666666,0.5298819609054785,-0.0272271363311115,0.0411897703470661,1.5475651895534026,94.38715693142295,-0.15516325085459926
1403636957051666432,49.465656,314.98792611355395,10.525804333333332,0.563882375,-4.020726499999999,0.5864306286700948,0.1061160185212552,-0.3497639820996636,0.7605199128977139,93.79882649071303,0.3618623563163368
1403636957301666560,50.483227,370.99794983149616,9.381695166666669,0.4985047083333333,-4.110620791666666,0.4181808887778414,-0.0537561409614253,-0.0998328332140756,1.947559991046818,95.49011141083102,0.4892228089775301
1403636957551666432,59.475661,457.5803701355263,8.155863916666666,-0.4494714583333333,-4.053415333333333,0.2380629099720265,0.0006981317007977,0.0586430628670094,1.8226403645526639,96.7277767587727,-0.09381779725491413
1403636957801666560,60.07266,332.3790534656549,10.54214875,-0.5802267916666666,-4.306753791666666,0.5424483315198376,-0.0083775804095727,-0.0069813170079773,2.1094421557152323,95.27695717716283,-0.028949888916443456
1403636958051666432,39.595604,335.43632792603177,12.2583125,0.3759215833333333,-3.0400615,0.6897541203881591,0.0453785605518525,-0.046774823953448,1.523101318516876,94.25975305205397,0.09172640985472924
1403636958301666560,46.890974,394.8304673061598,10.533976541666666,0.1797885833333333,-4.2168595,0.4377285764001778,0.046774823953448,-0.1375319450571531,2.0303562101742467,95.4979681971019,0.37353726419470945
1403636958551666432,38.762569,582.4045002748577,7.992419749999999,0.612915625,-2.9338227916666666,0.153588974175501,0.0041887902047863,-0.036302848441482,0.8858322283338925,96.23176175798203,-0.010171978848077856
1403636958801666560,36.86142,650.7317934197412,8.507268875,0.3595771666666666,-2.2555295,-0.0390953752446729,-0.0195476876223364,0.0453785605518525,1.5605555354082346,97.7980745842741,0.31610773500113964
1403636959051666432,47.11175,642.9253378055669,7.959730916666666,-0.0817220833333333,-2.2555295,-0.0516617458590321,0.0404916386462684,0.0837758040957278,0.9244225948439408,98.22364056364573,-0.01576346697504505
1403636959301666560,33.631802,527.2790896528851,8.556302125,-0.2941994999999999,-3.718354791666666,-0.1054178868204575,0.0160570291183478,-0.0321140582366956,1.852725164479891,97.45113419808008,-0.7225123754066658
1403636959551666432,49.452543,541.8698276362321,9.626861416666666,0.2124774166666666,-3.219850083333333,0.0062831853071795,0.2415535684760151,0.257610597594363,2.5852324006782137,95.64630525126425,0.022766951258816448
1403636959801666560,50.618171,613.0724528619847,10.329671333333332,0.0,-4.527403416666666,-0.046774823953448,-0.0942477796076938,0.1305506280491758,1.4310632403353258,96.16145544638401,0.23254882772718588
1403636960051666432,49.782276,641.9971630611317,9.455245041666666,0.3595771666666666,-1.7978858333333332,-0.0209439510239319,0.0244346095279206,-0.007679448708775,0.47393959541143166,96.07621895317445,-0.10797471934418468
1403636960301666560,60.639143,584.5763682506802,8.262102624999999,0.2369940416666666,-2.124774166666666,-0.0530580092606276,0.0376991118430775,-0.0886627260013119,2.1489803103313783,93.8780027177462,-0.2357718725314868
1403636960551666432,50.451993,534.6901514944631,8.899534874999999,0.83356525,-3.505877375,0.0949459113084915,0.1514945790731078,-0.0628318530717958,0.7698863396936735,94.023466950391,0.14632468401333654
1403636960801666560,60.075521,379.0966797444797,7.976075333333333,0.465815875,-3.293399958333333,0.2555162024919699,-0.0719075651821663,0.1926843494201739,1.212764167447813,94.69281331176308,0.25509971396976994
1403636961051666432,39.406061,381.7647121563489,11.318508541666665,-1.299381125,-4.192342875,0.5396558047166466,-0.0097738438111682,-0.0195476876223364,0.9952805541000099,94.95012894915182,0.05664887526411633
1403636961301666560,44.482946,424.2227177467652,10.632043041666666,0.8744262916666666,-4.380303666666666,0.5187118536927147,0.0558505360638185,-0.15079644737231,0.48025835175480885,94.78899546265987,-0.10558412504697401
1403636961551666432,57.187319,438.2622504525706,8.368341333333333,-0.4331270416666666,-3.178989041666666,0.2820452071222836,0.0125663706143591,-0.0397935069454707,0.04786267493160066,94.45691624088587,-0.24967220363757292
1403636961801666560,50.423622,423.6927281139921,10.190743791666666,-0.3759215833333333,-4.037070916666667,0.3776892501315729,0.0481710873550434,-0.0530580092606276,1.4650030717891662,93.60507712033402,-0.18189608285962322
1403636962051666432,50.371647,458.22780349104414,8.907707083333333,0.8008764166666666,-4.037070916666667,0.4586725274241098,-0.0376991118430775,-0.08307767239493,1.1918414468065828,92.77606697637749,-0.011064850324487452
1403636962301666560,43.002844,400.6418758406649,10.591182,-0.8008764166666666,-3.219850083333333,0.4572762640225143,-0.0432841654494593,-0.1110029404268393,0.7572940586984657,92.32506305134949,-0.14987872423328952
1403636962551666432,49.702406,399.0106977470233,8.294791458333332,0.4004382083333333,-3.1217835833333334,0.4426154983057619,0.0020943951023931,-0.2729694950119131,0.6543353096531866,92.15008190723499,0.3871792811678887
1403636962801666560,49.979686,494.14413911208425,8.588990958333333,0.34323275,-1.5445473749999998,0.2820452071222836,-0.007679448708775,-0.1047197551196597,0.8391513707020869,92.50115737031388,-0.2511391049037286
1403636963051666432,49.701691,381.1384405135053,10.370532375,0.0,-3.4813607499999994,0.1172861257340189,0.2722713633111154,0.2457423586808016,1.9746900113650558,91.25145803047813,-0.057394925187978174
1403636963301666560,50.177574,552.1812501163846,9.324489708333331,0.0898942916666666,-3.8082490833333327,0.0097738438111682,-0.085870199198121,0.289026524130261,1.799450353697618,90.70186379153098,-0.1088381877901412
1403636963551666432,47.748327,698.8390595467595,10.468598874999998,0.4821602916666666,-4.069759749999999,-0.0977384381116824,-0.0432841654494593,0.093549647906896,0.5765901469184136,90.55784455278713,-0.16844205605305262
1403636963801666560,47.431946,654.6206294919292,10.117193916666666,0.269682875,-4.993219291666667,-0.1068141502220529,0.0118682389135614,0.1263618378443894,1.2753138826228183,90.03955737715918,-0.046960998882866534
1403636964051666432,49.33691,537.3045938803332,8.915879291666666,0.3514049583333333,-1.7406803749999995,0.0006981317007977,0.0558505360638185,0.0677187749773799,0.7314628415864792,89.62593910549523,-0.2418122737825712
1403636964301666560,48.048258,537.6164744978411,7.706392458333333,0.5148491249999999,-1.6099250416666664,-0.0132645023151569,0.0376991118430775,-0.0390953752446729,1.1592859709240395,88.35488470372049,-0.22874481885241948
1403636964551666432,49.317599,477.71320348259655,8.213069375,-0.2778550833333333,-3.334261,0.0474729556542457,-0.0942477796076938,0.0104719755119659,0.8736538993608376,87.47688185792764,-0.17648852377929813
1403636964801666560,39.194346,376.48892905984417,10.950759166666666,-0.1634441666666666,-2.7867230416666664,0.3183480555637657,0.0816814089933346,-0.1417207352619395,1.4595998388667228,85.82074378460318,-0.5050421493549351
1403636965051666432,39.141178,349.73735609333266,11.530985958333332,0.392266,-3.38329425,0.5787511799613196,0.1256637061435917,0.1061160185212552,2.229117372533315,83.67811747038148,-0.22580702343988435
1403636965301666560,49.788713,253.8366727728225,8.523613291666665,0.3759215833333333,-2.7622064166666664,0.2282890661608583,-0.3769911184307752,0.0111701072127637,1.2071245228490455,82.5142139189181,-0.3106622564078094
1403636965551666432,50.101757,347.2063433833208,11.024309041666667,0.4985047083333333,-2.680484333333333,0.0942477796076938,0.064926248174189,0.2555162024919699,3.625751674414688,78.66147684388739,-1.0601128074389692
1403636965801666560,50.591469,346.7041726936159,7.935214291666666,0.5230213333333333,-3.8899711666666654,-0.0593411945678072,0.3316125578789226,0.0579449311662117,1.3284996243682017,77.89275791080851,-0.23704244799918683
1403636966051666432,49.693346,507.4250522628376,9.381695166666669,0.7681875833333334,-3.6202882916666654,-0.1382300767579508,0.0453785605518525,-0.0474729556542457,1.4914102815191537,78.85473549972801,-0.2556785666561012
1403636966301666560,49.885035,465.6884729262939,7.297782041666666,0.44129925,-2.0920853333333334,-0.0621337213709981,-0.0055850536063818,0.0726056968829641,2.4434111909604783,79.53642323394786,0.5192563202050309
1403636966551666432,48.942089,453.437049244081,9.226423208333332,0.5475379583333333,-3.334261,0.0195476876223364,0.0614355896702004,0.3085742117525974,1.9199550718780594,79.27988460565703,-0.3218234932430306
1403636966801666560,40.448427,516.2410574110951,11.040653458333331,-0.1470997499999999,-3.18716125,-0.046774823953448,0.1263618378443894,-0.0041887902047863,1.0550070645174945,78.93030552277656,0.047411192996406726
1403636967051666432,59.72147,534.226755778885,8.613507583333332,-0.2369940416666666,-1.6916471249999998,-0.085870199198121,-0.0097738438111682,-0.0726056968829641,0.7142883796686957,78.34129750097509,-0.791201250420329
1403636967301666560,51.57423,535.7626131475856,9.896544291666666,0.3105439166666667,-2.3209071666666663,-0.0558505360638185,0.0844739357965255,-0.0376991118430775,3.6833756799528627,75.59618815253631,-0.4820106786825278
1403636967551666432,42.097091,537.2029523086375,10.811831625,-0.2124774166666666,-3.8082490833333327,-0.0174532925199432,0.036302848441482,0.0321140582366956,2.33856208957874,73.69243756678448,-0.3158925916794715
1403636967801666560,49.276829,505.8516200282598,8.7279185,0.8825985,-1.7325081666666666,0.0048869219055841,0.0928515162060983,0.0816814089933346,1.4498130065039672,72.95565770940381,-0.10028466691115057
1403636968051666432,61.44619,464.9959267387584,9.152873333333332,0.3595771666666666,-3.571255041666667,0.064926248174189,0.1647590813882647,0.1158898623324234,3.7441507561445273,77.00025995093627,1.065301441696505
1403636968301666560,49.783468,429.4824107235581,9.406211791666664,-0.563882375,-5.222041125,-0.0202458193231342,-0.0628318530717958,0.1354375499547599,1.6775421652815328,78.88811785235855,0.1432692472086785
1403636968551666432,57.977915,511.42601319031695,10.354187958333334,0.04903325,-3.8409379166666655,-0.0719075651821663,0.054454272662223,-0.0781907504893459,1.0974338600097515,79.28505205302977,-0.0968531037311493
1403636968801666560,72.568178,383.4788675722892,11.498297125,0.9643205833333331,-4.053415333333333,-0.0230383461263251,0.0781907504893459,0.0537561409614253,0.981159442891513,79.61660409295402,0.1765363398437927
1403636969051666432,61.215877,499.6423373663138,9.340834125,0.3268883333333333,-3.571255041666667,0.0439822971502571,-0.0656243798749867,0.2227040125544764,1.059590035840335,79.41727999644826,-0.016512952535833847
1403636969301666560,50.943136,380.5268043027323,8.441891208333333,0.1144109166666666,-2.574245625,-0.0090757121103705,-0.1759291886010284,0.0565486677646162,0.7873091472116532,79.52338402500105,-0.16840605334942893
1403636969551666432,46.810627,601.1820778543223,6.987238125,0.3595771666666666,-2.157463,-0.0195476876223364,0.0034906585039886,0.0740019602845595,1.1027002153308232,79.20573364228738,-0.02061914300864487
1403636969801666560,60.298681,648.0214188557353,8.662540833333333,-0.220649625,-3.18716125,-0.0090757121103705,-0.0698131700797731,0.1389282084587486,1.2188401071961403,80.45868647129953,0.18442895547626392
1403636970051666432,60.504914,557.1851259112124,8.245758208333333,0.1470997499999999,-2.9338227916666666,-0.0516617458590321,0.1577777643802873,-0.0209439510239319,1.9902863955400936,82.22035132761592,0.3369227163654358
1403636970301666560,48.705578,600.2402813821093,7.150682291666666,-0.1552719583333333,-2.754034208333333,0.0132645023151569,-0.0788888821901436,0.057246799465414,3.9192038642566223,79.19309373599826,-1.5736420303620662
1403636970551666432,49.860239,585.3161711625011,9.610517,0.2369940416666666,-2.4434902916666665,-0.0132645023151569,-0.182212373908208,0.0432841654494593,11.177728709676133,70.04578615783342,-0.9739479036633867
1403636970801666560,60.722828,683.4215763401616,8.989429166666666,-0.3514049583333333,-1.3157255416666664,-0.0188495559215387,-0.2701769682087222,0.0230383461263251,2.8138691722986686,69.13754281038452,-0.9644466052797469
1403636971051666432,50.57025,632.2526480661052,7.9433865,-0.04903325,-3.317916583333333,0.0726056968829641,0.1284562329467826,0.2408554367752175,8.626112575592238,63.45353021157008,-0.3787122910999088
1403636971301666560,41.801691,618.4894119279656,6.962721499999999,0.7518431666666666,-3.4977051666666665,0.104021623418862,0.2408554367752175,0.2883283924294632,0.685298246793436,63.05413646017675,-0.4387601978488078
1403636971551666432,50.107956,753.1076416208344,7.330470875,0.5802267916666666,-3.2443667083333327,-0.0090757121103705,0.124965574442794,-0.0788888821901436,5.474717324813082,67.48465034201345,0.6372289906101116
1403636971801666560,49.694538,775.6348232287821,8.074141833333334,-0.5066769166666666,-2.2718739166666664,0.0230383461263251,0.1417207352619395,0.0237364778271228,2.4423221373247443,67.69124060610234,-0.3700618441990713
1403636972051666432,42.207003,798.1506852471423,10.2969825,-0.1634441666666666,-3.2443667083333327,0.0314159265358979,0.075398223686155,0.0460766922526503,2.0344211556910743,66.92418853944258,0.23821374488956337
1403636972301666560,49.387216,703.194573720035,11.097858916666665,0.44129925,-4.4129925,0.0265290046303138,-0.2150245638457014,0.1480039205691191,1.1931750360212383,67.14870073495001,0.23897849103613567
1403636972551666432,47.75238,760.7760899042338,9.275456458333332,0.0408610416666666,-3.693838166666666,-0.0132645023151569,-0.0006981317007977,0.0376991118430775,3.2525719939578437,69.20404442971801,0.5969685528408348
1403636972801666560,50.589085,883.2570112454442,8.605335375,-0.4821602916666666,-3.317916583333333,-0.0390953752446729,-0.0425860337486616,0.0991347015132779,2.74708012667418,70.62496776894453,0.19190632584506773
1403636973051666432,47.489882,695.1484617791044,7.739081291666666,-0.73549875,-2.549729,-0.2227040125544764,-0.0691150383789754,0.1689478715930511,0.7348824674159571,71.46612084686763,-0.10035320077078325
1403636973301666560,47.693968,806.9698651516242,8.18855275,0.34323275,-3.293399958333333,-0.1340412865531645,0.0020943951023931,0.1256637061435917,0.2910300276058286,71.35485206737016,-0.1570698257231129
1403636973551666432,49.154758,874.1814450285533,10.190743791666666,-0.8907707083333333,-3.734699208333333,-0.1033234917180643,0.0237364778271228,0.025830872929516,1.062952779603155,70.53364528460398,-0.16272340598374058
1403636973801666560,46.903849,813.3842042182233,8.932223708333334,0.2860272916666666,-1.9286411666666663,-0.046774823953448,0.1061160185212552,-0.0509636141582344,0.6748408805843216,70.68868962517607,0.10289049872297085
1403636974051666432,49.836159,720.7368446700003,9.912888708333332,0.367749375,-3.4568441249999995,-0.1633628179866692,-0.0600393262686049,0.2715732316103177,0.5837556248887623,71.06458780904728,0.1744243350271404
1403636974301666560,40.341377,566.6824597185467,9.087495666666666,-0.73549875,-3.3506054166666663,-0.4852015320544235,-0.0153588974175501,0.2303834612632515,0.45606031984565826,71.55448949562965,0.0230234945843506
1403636974551666432,49.535513,578.6722112384116,11.016136833333332,-0.2369940416666666,-2.729517583333333,-0.6066764479932288,0.1165879940332212,0.2904227875318564,0.5924674503265632,71.69399201709763,0.08066223772623005
1403636974801666560,47.152996,493.5052789850265,10.975275791666666,-0.2860272916666666,-4.037070916666667,-0.5040510879759623,-0.0537561409614253,0.3420845333908886,0.3950785186490414,71.38217395424779,-0.10865167307298407
1403636975051666432,48.678398,694.0016477005163,9.504278291666663,-0.1389275416666666,-3.1054391666666663,-0.4160864936754481,0.0537561409614253,0.3309144261781249,0.5120794093728768,71.12759329703039,0.06690857213413892
1403636975301666560,46.277046,754.1622753184104,8.392857958333332,0.2369940416666666,-3.0400615,-0.1815142422074102,0.2408554367752175,0.0432841654494593,1.5133428426511586,71.49208946481306,0.07197571853016882
1403636975551666432,47.723055,858.9094499601424,9.569655958333334,-0.2369940416666666,-2.868445125,0.0,-0.1473057888683213,0.1172861257340189,0.44408431578100455,71.45156421279756,0.015922250984900188
1403636975801666560,49.960375,1011.8499499943364,9.275456458333332,0.3105439166666667,-3.211677875,0.0516617458590321,0.0251327412287183,0.0907571211037051,0.9510925630385815,71.37347769698269,0.00502215841534337
1403636976051666432,60.907125,594.8578276247749,8.564474333333333,-0.63743225,-2.950167208333333,-0.2757620218151041,0.2534218073895766,0.4482005519121438,0.48240963339738097,71.02563937752097,0.013718240698096906
1403636976301666560,51.437378,643.0600339745793,9.005773583333333,-0.7273265416666667,-3.661149333333333,-0.4935791124639964,0.0488692190558412,0.3672172746196069,0.3375154128573614,71.27954129291587,-0.01375320083050724
1403636976551666432,49.973011,516.8721946311755,8.082314041666667,-0.220649625,-2.4516625,-0.5347688828110626,0.0712094334813686,-0.0530580092606276,0.4353578457652877,70.99486305824824,-0.19981432109828745
1403636976801666560,60.073614,538.4858677970594,8.7279185,-0.1879607916666666,-3.170816833333333,-0.124965574442794,-0.2206096174520832,0.2227040125544764,0.42753052932750285,71.4326096255573,0.02163166294161556
1403636977051666432,49.259663,813.2525132932594,10.068160666666666,-0.8172208333333333,-3.554910625,-0.0342084533390888,-0.0251327412287183,0.1207767842380075,0.4495748334871287,71.66240784479014,-0.014620164615465114
1403636977301666560,50.37713,745.4440194640208,9.471589458333332,0.2124774166666666,-1.6589582916666663,0.0488692190558412,-0.0244346095279206,-0.0111701072127637,0.6402119485794117,71.35600791385049,-0.014734215249518456
1403636977551666432,54.378033,803.0487347728936,9.112012291666666,-0.465815875,-4.453853541666667,0.0558505360638185,0.1759291886010284,-0.0223402144255274,0.36239271958846325,71.65450265336248,-0.0009857321119852713
1403636977801666560,27.14634,770.1893675578232,9.496106083333332,-0.1634441666666666,-3.219850083333333,0.0146607657167523,-0.1068141502220529,0.3099704751541929,0.27468530647724815,71.98349890974322,0.09655159903996946
1403636978051666432,49.680471,727.9017049142518,10.2969825,-0.8417374583333332,-2.157463,-0.0726056968829641,0.1130973355292325,-0.0691150383789754,1.1864178855275649,71.57863124474135,-0.046085142866118645
1403636978301666560,50.187587,683.4667670195033,9.340834125,0.2533384583333333,-4.3721314583333335,-0.0370009801422797,-0.075398223686155,0.0216420827247296,0.388219319549343,72.02031114161383,0.2118768339229149
1403636978551666432,46.650886,557.6193122979971,7.79628675,-0.2533384583333333,-2.435318083333333,-0.0677187749773799,-0.0949459113084915,0.0174532925199432,2.0846972574204083,73.90307512414877,0.44096788069875004
1403636978801666560,57.760477,778.0251212762815,8.294791458333332,0.2941994999999999,-3.4241552916666667,-0.0453785605518525,0.1200786525372098,0.0795870138909414,1.5172303357989296,75.35674543146864,0.32632321713332146
1403636979051666432,49.866915,474.17846845161824,9.479761666666668,0.8744262916666666,-4.46202575,0.0230383461263251,0.3686135380212024,0.0670206432765822,1.0137414963599123,75.93479090880442,0.03766169521925633
1403636979301666560,49.91746,435.6130998415717,9.9047165,0.1307553333333333,-2.99102825,-0.0069813170079773,-0.1661553447898601,0.0823795406941323,1.6786562775223213,76.5336738113786,0.0560356080088269
1403636979551666432,50.459862,727.2284765653782,10.305154708333331,0.6047434166666666,-2.89296175,-0.0314159265358979,-0.1480039205691191,-0.0174532925199432,0.5900906797393456,76.60464929456295,0.1120609446250711
1403636979801666560,60.790062,457.6333753039753,10.8853815,0.7600153749999999,-4.4129925,-0.025830872929516,0.239459173373622,0.0614355896702004,1.1713695737873704,77.6334603311038,0.3197508448957507
1403636980051666432,47.979116,597.9921148595065,8.793296166666666,-0.7927042083333332,-3.3506054166666663,-0.0446804288510548,0.0349065850398865,0.0991347015132779,1.3724431640031824,76.59466281228474,-0.2137706121005465
1403636980301666560,50.115109,602.8483975709858,7.918869874999999,-0.2288218333333333,-2.729517583333333,0.0153588974175501,0.1710422666954443,0.1123992038284348,0.16758086051377616,76.2388564309061,-0.2832778467288648
1403636980551666432,49.996614,657.868775235409,8.131347291666666,-0.0081722083333333,-2.6151066666666667,0.0167551608191455,0.0314159265358979,0.1319468914507713,0.5657422082770304,76.47323593943227,-0.03279600146727546
1403636980801666560,49.484253,518.5896424423564,10.239777041666668,0.9643205833333331,-3.661149333333333,-0.0446804288510548,-0.1033234917180643,-0.1389282084587486,1.562231780634395,74.85409447297909,-0.31472794624322376
1403636981051666432,57.202816,641.7626300044147,8.817812791666666,0.3840937916666667,-3.0564059166666664,0.0460766922526503,0.1340412865531645,0.1528908424747032,1.416651885984661,73.5343388549551,-0.07364291219180075
1403636981301666560,42.301416,518.9257764614908,8.278447041666666,-0.8253930416666666,-2.99102825,0.0481710873550434,0.0970403064108847,0.3385938748868999,0.700219443203891,72.72605600177032,-0.0736946233415523
1403636981551666432,50.369263,430.5549296899238,10.926242541666667,0.1144109166666666,-3.661149333333333,-0.1759291886010284,-0.1521927107739055,-0.1801179788058148,1.7725972742678904,74.11199906363326,0.2522169289995446
1403636981801666560,50.227403,525.3742077077359,11.890563124999998,-0.2533384583333333,-4.609125499999999,-0.0774926187885482,-0.0530580092606276,0.0523598775598298,0.30301215977192053,74.14801527379514,-0.09184432666695841
1403636982051666432,56.676149,554.2913808751351,7.84532,-0.6047434166666666,-2.3372515833333334,-0.0006981317007977,-0.132645023151569,0.1333431548523667,0.4233995692169702,73.95045538938976,-0.06327188800855765
1403636982301666560,47.549963,479.9117185573253,9.7085835,-0.3023717083333333,-3.342433208333333,0.0705113017805709,0.1214749159388053,0.2778564169174973,0.5709490702957886,73.9846442698786,0.020682288003257554
1403636982551666432,50.019503,473.5939043509979,9.822994416666669,-0.5311935416666667,-3.138128,0.0216420827247296,0.1207767842380075,0.0397935069454707,1.0760479113933867,74.81508189978989,0.2935970458481876
1403636982801666560,43.190956,632.1533320560726,8.662540833333333,0.1307553333333333,-3.702010375,-0.0020943951023931,-0.0216420827247296,0.0663225115757845,0.09943535106851943,74.68948701972688,0.4618152667749911
1403636983051666432,56.902408,536.6865529760167,8.490924458333334,-0.3023717083333333,-3.358777625,0.0041887902047863,0.1277581012459849,0.0509636141582344,4.043504541677872,78.59923897646432,0.35709223122908895
1403636983301666560,45.958996,610.9885570486865,8.907707083333333,0.5148491249999999,-3.669321541666666,-0.0174532925199432,0.054454272662223,-0.0090757121103705,3.853721010452488,82.36229139494962,0.7885459092700557
1403636983551666432,57.6303,566.124000940238,8.221241583333333,0.5148491249999999,-3.849110125,-0.0272271363311115,-0.0104719755119659,0.0446804288510548,8.393936313301818,90.61405234610102,1.6168000717740796
1403636983801666560,56.680918,627.2079723161405,9.316317499999998,0.34323275,-4.445681333333333,-0.0125663706143591,-0.1521927107739055,0.064926248174189,4.410192415420591,94.782539281158,0.8620408414348901
1403636984051666432,46.329498,647.2426963386783,9.80665,0.0817220833333333,-2.0757409166666667,-0.0495673507566389,-0.0474729556542457,0.1005309649148733,1.6579940920446963,93.62657560216319,0.010636727620365605
1403636984301666560,43.028117,489.2780321572719,10.517632125,0.1797885833333333,-4.609125499999999,-0.0593411945678072,0.1500983156715123,0.0404916386462684,2.0188441902440775,95.36119084189154,0.24804597463817402
1403636984551666432,49.442768,664.6691953578181,8.368341333333333,0.2288218333333333,-3.048233708333333,-0.0335103216382911,0.1242674427419962,0.0300196631343024,2.5537322232049546,97.59553722727975,0.273757228576585
1403636984801666560,47.131062,562.5571995109717,8.719746291666667,-0.2288218333333333,-3.048233708333333,0.0307177948351002,0.0013962634015954,0.1068141502220529,1.9804469110692848,99.35247636795484,0.11131088296509972
1403636985051666432,50.408602,628.7008786593892,9.112012291666666,0.7763597916666666,-3.334261,0.0104719755119659,-0.054454272662223,0.0691150383789754,1.393841792942601,100.42403091822798,-0.08092149829671769
1403636985301666560,47.897816,647.0502149621839,7.722736874999999,-0.0326888333333333,-1.9531577916666665,-0.0328121899374933,0.0300196631343024,0.046774823953448,2.7132217159039627,102.93964587952877,0.47626511978948827
1403636985551666432,50.243854,539.6439891185255,8.899534874999999,0.4331270416666666,-4.184170666666667,0.1724385300970397,-0.0027925268031909,-0.0635299847725936,4.743779395808496,107.37053243390555,1.2544040397381764
1403636985801666560,40.033102,452.2925968324935,10.109021708333332,0.2860272916666666,-3.162644625,0.0879645943005142,0.1933824811209717,0.0202458193231342,1.519277418669541,105.99615807331615,-0.19762523922005926
1403636986051666432,42.583704,582.2851402317176,9.618689208333333,0.3514049583333333,-3.6202882916666654,0.0174532925199432,0.200363798128949,-0.0188495559215387,1.594129164207686,106.97907394071862,0.2954338400530929
1403636986301666560,42.395115,412.9537561220892,9.1201845,0.2533384583333333,-2.6151066666666667,0.0265290046303138,-0.1542871058762987,0.1982694030265558,4.898111953386881,101.63528531137602,-1.1581973824486624
1403636986551666432,56.801319,513.8496562003639,10.207088208333332,-0.1307553333333333,-4.592781083333333,0.0411897703470661,-0.0677187749773799,0.1975712713257581,5.906821042703792,95.3428432867013,-0.3975040033256789
1403636986801666560,49.522162,541.6895416376042,9.218251,0.220649625,-2.280046125,0.0530580092606276,-0.0795870138909414,0.2911209192326541,0.2551984789176718,94.98834971509716,-0.3575621318567386
1403636987051666432,49.959659,644.4594533290644,9.185562166666664,0.4985047083333333,-3.4568441249999995,-0.0328121899374933,0.1033234917180643,-0.0760963553869527,2.6475870272356468,92.05003337058236,-0.1742448802942249
1403636987301666560,49.516917,638.180835809001,10.068160666666666,-0.7273265416666667,-4.666330958333333,-0.0118682389135614,-0.0216420827247296,0.1151917306316257,4.113279276650424,87.96256578677273,-0.09824304696549291
1403636987551666432,38.666486,495.5027228229201,10.313326916666666,-0.1062387083333333,-3.751043625,0.0432841654494593,0.2261946710584651,-0.0698131700797731,1.308853011239648,86.45015023122401,-0.011684491664098573
1403636987801666560,41.410923,607.8420084030545,10.370532375,-0.4494714583333333,-3.195333458333333,0.0600393262686049,-0.0090757121103705,0.0893608577021096,1.1689266289778242,86.63576893898383,0.13009854862713155
1403636988051666432,50.569058,522.7629138391742,8.196724958333332,-0.269682875,-3.072750333333333,0.0991347015132779,-0.2073451151369263,0.2366666465704311,1.5342071130691801,85.07331338359168,-0.551388774573752
1403636988301666560,46.215773,510.6262337018465,9.316317499999998,-0.1389275416666666,-3.072750333333333,0.0237364778271228,0.0970403064108847,0.239459173373622,1.3366808803748342,83.94822184965204,-0.3209278056698679
1403636988551666432,42.393685,634.0625911189323,9.798477791666668,-0.0572054583333333,-3.898143375,0.0034906585039886,0.1417207352619395,0.0781907504893459,1.413908177486637,82.76703382138861,-0.46381840622935044
1403636988801666560,38.230181,652.5558038748214,9.520622708333333,-0.784532,-1.9776744166666664,0.0090757121103705,0.0474729556542457,0.1207767842380075,2.010208929394549,81.1857217732567,-0.26075492610185336
1403636989051666432,49.606324,701.3669624439977,10.607526416666667,0.5148491249999999,-2.606934458333333,0.0216420827247296,0.1689478715930511,0.153588974175501,1.1081053063120487,80.74893463346044,-0.10590375751301906
1403636989301666560,52.423238,426.63480144358937,10.517632125,0.3514049583333333,-2.9256505833333333,-0.1130973355292325,-0.2052507200345331,-0.1291543646475804,0.8011892346840018,80.64712102088943,-0.1023454592312163
1403636989551666432,49.942255,595.5150276954197,10.109021708333332,0.0,-3.636632708333333,-0.0020943951023931,-0.2031563249321399,0.0146607657167523,0.97915852998391,81.35323046399256,0.13663650087893586
1403636989801666560,49.944162,665.1752179735097,8.703401874999999,0.63743225,-3.4731885416666666,0.0139626340159546,0.0404916386462684,0.0698131700797731,1.0446548613717161,82.38247481619896,0.16810789372065926
1403636990051666432,49.687386,691.8452351292128,10.4931155,-0.2288218333333333,-2.999200458333333,0.0153588974175501,0.179419847105017,0.0719075651821663,0.5110621134534982,82.60007112720966,-0.005272896751549183
1403636990301666560,39.968968,668.1563058581664,9.030290208333332,-0.4086104166666666,-3.170816833333333,-0.0111701072127637,-0.0865683308989187,-0.0118682389135614,0.4487028847551043,82.92018059968434,0.038412887976747356
1403636990551666432,39.882421,716.6654829939004,9.177389958333332,-0.4004382083333333,-3.685665958333333,0.0383972435438752,-0.0321140582366956,0.0760963553869527,0.6707964036954094,82.98180872719968,0.0010926016033039332
1403636990801666560,50.041914,677.1276144939142,6.52142225,0.0408610416666666,-3.170816833333333,0.0586430628670094,0.0928515162060983,0.0300196631343024,0.6011358884059064,83.04619772574887,-0.033873923232661696
1403636991051666432,39.906263,687.6870205235723,8.155863916666666,-0.1062387083333333,-2.803067458333333,-0.0244346095279206,0.0851720674973232,0.0712094334813686,0.4845749493740778,83.00385696418842,-0.12136027766464963
1403636991301666560,46.864271,690.5510863466898,9.030290208333332,0.0408610416666666,-3.5957716666666664,-0.0579449311662117,0.007679448708775,0.0216420827247296,0.8712209723081837,83.07426787456953,0.009880540748568478
1403636991551666432,49.603462,748.6135886229288,10.583009791666663,-0.8580818749999999,-3.8654545416666655,-0.0300196631343024,0.0265290046303138,0.1591740277818828,1.680224559764933,83.5014879342618,0.03283054392345264
1403636991801666560,50.31991,793.8774537396126,9.863855458333331,0.4004382083333333,-3.113611375,-0.0055850536063818,0.0132645023151569,0.2736676267127109,3.5233063204794717,81.13886602957669,-0.41119039276968294
1403636992051666432,49.97468,653.4053546620504,8.074141833333334,0.6946377083333333,-2.7376897916666665,-0.124965574442794,0.1375319450571531,-0.132645023151569,3.32258396297382,79.03300820287794,-0.4944383576203961
1403636992301666560,49.400807,814.5855889751591,8.221241583333333,0.4739880833333333,-2.941995,-0.0481710873550434,0.0614355896702004,0.0132645023151569,4.298838916000315,77.98275176423444,-0.10416418367186964
1403636992551666432,50.124884,618.1614898896157,11.359369583333333,0.0898942916666666,-2.329079375,-0.025830872929516,0.0209439510239319,0.0509636141582344,5.326655315958187,75.30346373924328,-0.9330242236611497
1403636992801666560,39.606571,819.3968945942391,8.597163166666666,0.1634441666666666,-1.4464808749999998,-0.0411897703470661,0.0376991118430775,0.0,7.735110383341253,69.15554844355549,-0.6006297088012218
1403636993051666432,42.264938,794.3123500205173,9.782133375,-0.171616375,-3.8654545416666655,0.0027925268031909,0.0684169066781777,0.1919862177193762,3.5150952079025846,66.07415416285373,-0.4312189846475576
1403636993301666560,60.141325,630.2534916187597,9.1201845,-0.0163444166666666,-3.2035056666666666,0.2897246558310587,0.0593411945678072,-0.0293215314335047,3.2568997878975257,63.39877296622436,-0.6419397172189036
1403636993551666432,30.081272,606.4044818264667,11.089686708333334,0.24516625,-5.54075725,0.4139920985730549,0.046774823953448,-0.0733038285837618,1.5398359367905636,62.767648862173516,0.5579678087050226
1403636993801666560,50.073624,748.1939702842018,7.79628675,0.416782625,-2.1983240416666665,0.1968731396249603,-0.0656243798749867,-0.0153588974175501,1.828115388233029,63.33953800523729,-0.3794487822730943
1403636994051666432,49.756289,720.2802415165828,8.801468374999999,0.196133,-2.941995,0.0195476876223364,0.1284562329467826,-0.0537561409614253,2.35407766508066,61.363954200201874,-0.14156470198450677
1403636994301666560,40.231704,807.3652127666248,10.517632125,0.5066769166666666,-3.800076875,0.0125663706143591,0.1277581012459849,0.1165879940332212,1.517981846940875,61.0435757376394,0.07824074019769256
1403636994551666432,39.249421,768.9024745020654,11.408402833333332,-1.1114203333333332,-3.702010375,0.0216420827247296,-0.161268422884276,0.3078760800517997,1.1524462050960356,60.63344583207565,-0.36116716462841936
1403636994801666560,61.702966,678.2164660952149,8.915879291666666,0.1552719583333333,-3.693838166666666,0.0481710873550434,-0.0376991118430775,0.3001966313430246,2.9309826049628644,58.327239235930776,-0.6006346413376988
1403636995051666432,49.954415,748.7398975172957,10.566665374999998,-0.2288218333333333,-2.974683833333333,-0.0551524043630208,0.0411897703470661,-0.018151424220741,2.776900576933687,56.02974025643379,-0.3935866159841126
1403636995301666560,49.800395,916.5050207256048,10.386876791666666,-0.3840937916666667,-3.2770555416666665,0.0020943951023931,0.1354375499547599,-0.0202458193231342,3.9599378053094645,53.88079027043354,-0.4789056947230321
1403636995551666432,49.813271,977.2095579540472,8.572646541666666,-0.44129925,-2.705000958333333,0.0132645023151569,-0.0097738438111682,0.0733038285837618,3.4375164510364944,53.2345906322212,-0.03326876426822878
1403636995801666560,55.333852,874.4994642922065,7.314126458333333,0.0898942916666666,-2.7622064166666664,0.0747000919853573,0.0244346095279206,0.2268928027592628,1.1781494659242477,53.893636341835546,-0.030997533507274966
1403636996051666432,49.542189,909.9915497797527,9.912888708333332,-0.784532,-3.693838166666666,-0.1026253600172665,-0.0216420827247296,-0.0481710873550434,2.7538759819410794,53.38266702185206,-0.32865569170652975
1403636996301666560,61.716557,1042.8397702864945,11.604535833333331,0.0817220833333333,-2.4434902916666665,0.0977384381116824,-0.028623399732707,0.0425860337486616,2.898307126548609,53.12759009240801,0.32571592345411204
1403636996551666432,51.460028,849.2792598802766,10.198916,-0.4576436666666666,-2.680484333333333,0.2988003679414292,0.0174532925199432,-0.0642281164733913,1.6513308072957267,55.09430103136492,0.405315327111218
1403636996801666560,60.577869,672.3005801902913,7.281437625,-0.171616375,-1.7243359583333333,0.4670501078336825,-0.0411897703470661,-0.0013962634015954,1.793412156348231,56.545324705477384,-0.0412721507045859
1403636997051666432,48.368215,715.5234459611025,8.654368624999998,0.4576436666666666,-2.623278875,0.3979350694547071,0.0139626340159546,-0.0893608577021096,5.114524802559712,55.16482467144988,-0.08321849702646489
1403636997301666560,61.258077,966.1054465665482,9.863855458333331,0.5148491249999999,-2.476179125,0.1577777643802873,-0.0328121899374933,-0.0279252680319092,3.9890368223007107,55.202162880101135,0.24926681829544606
1403636997551666432,39.699792,1118.331031645616,8.785123958333333,-0.1470997499999999,-2.239185083333333,-0.0069813170079773,-0.0104719755119659,0.0670206432765822,2.2921702594654247,56.674162044442525,0.36106914367911713
1403636997801666560,49.727916,1162.4207080719143,7.976075333333333,0.4903325,-3.538566208333333,-0.0502654824574366,0.0006981317007977,0.0740019602845595,2.0339068242101463,55.83476466635244,-0.08790636941847652
1403636998051666432,68.48073,1099.1947240690265,8.891362666666666,0.3023717083333333,-3.9144877916666654,-0.0747000919853573,-0.0425860337486616,0.1263618378443894,8.369849577376973,55.35732699803626,1.2635340493641962
1403636998301666560,50.015449,940.1315007574408,11.52281375,-0.4249548333333333,-2.8602729166666667,-0.0097738438111682,-0.1200786525372098,0.0705113017805709,11.703508667647746,56.905203510943224,0.06044438522599904
1403636998551666432,48.501968,887.1571210663594,8.77695175,-0.0081722083333333,-3.2035056666666666,-0.0104719755119659,0.1689478715930511,0.08307767239493,2.236184593550818,56.31416288781952,-0.12073328298070862
1403636998801666560,47.47653,905.971794265694,9.888372083333332,0.4985047083333333,-2.4680069166666665,-0.0265290046303138,0.1172861257340189,-0.0083775804095727,2.797222170340454,56.98743992177633,0.35206409755098633
1403636999051666432,51.369668,1158.6065666320076,8.098658458333333,0.0,-3.587599458333333,-0.0523598775598298,-0.0146607657167523,-0.0516617458590321,1.6076332344874464,56.760426805546,-0.15438597032356682
