stamp,img_delta,blur,lin_acc.x,lin_acc.y,lin_acc.z,ang_vel.x,ang_vel.y,ang_vel.z,rpe,ate,drift
1403637133138319104,49.832583,614.6451505979545,9.610517,-0.4086104166666666,-2.288218333333333,0.0174532925199432,0.0314159265358979,0.0970403064108847,1.369889596869747,1.3698895968697526,0.7584336954069707
1403637133388318976,49.863815,514.8504848180705,9.136528916666666,-0.6456044583333332,-2.4843513333333336,-0.1528908424747032,-0.075398223686155,0.0844739357965255,2.345298220857978,3.582459099984714,0.09814594019332468
1403637133638319104,48.928023,566.9091153594354,10.386876791666666,-0.392266,-3.415983083333333,-0.1026253600172665,-0.0760963553869527,0.0879645943005142,1.5870473215776497,4.03570867916579,0.18833599289183178
1403637133888318976,41.855097,380.9937969481648,11.310336333333332,-0.8744262916666666,-3.759215833333333,-0.1382300767579508,-0.0900589894029074,0.1926843494201739,0.5415896063937733,4.334133213069901,-0.059666782875499536
1403637134138319104,41.886092,374.8012880294906,8.850501625,-0.2288218333333333,-2.582417833333333,-0.2464404903815993,0.1019272283164688,-0.1033234917180643,2.3035063614537625,6.099283797358449,0.25160289422306104
1403637134388318976,49.722194,353.5186705167905,6.668522,0.0408610416666666,-1.6753027083333332,-0.0851720674973232,0.3316125578789226,0.1368338133563554,1.2717395856648746,6.932771648105525,-0.0520331759788375
1403637134638319104,50.398112,422.4511662896354,6.611316541666667,0.2369940416666666,-1.6262694583333333,-0.0139626340159546,-0.2443460952792061,0.0300196631343024,1.4677090584351722,5.54121797604052,-0.6601397286485948
1403637134888318976,50.188303,190.48364122128936,9.80665,-0.04903325,-4.26589275,0.0781907504893459,-0.4565781323217166,0.2911209192326541,2.5601405145639418,3.322697011025467,-0.2728445695588073
1403637135138319104,38.628579,302.52626278056545,11.547330375,-0.4331270416666666,-5.0013915,0.0027925268031909,-0.1207767842380075,0.0509636141582344,0.7260003471235199,2.9674023865608317,0.365330275628704
1403637135388318976,51.401853,199.0774915648546,11.195925416666665,-0.3023717083333333,-5.115802416666666,-0.104021623418862,0.3469714552964727,-0.0251327412287183,0.35894218872464473,3.2157817243732287,0.5609937237332931
1403637135638319104,50.224781,229.1203861627808,8.000591958333333,-0.1062387083333333,-2.999200458333333,-0.1675516081914556,0.468446371235278,0.0537561409614253,0.45916902469006826,3.5007831375897838,-0.005397247803345273
1403637135888318976,49.48163,775.7703960080731,5.287418791666666,0.3105439166666667,-1.184970208333333,-0.0565486677646162,0.0677187749773799,0.1305506280491758,0.3426958701587638,3.454294717312354,0.003944842452657138
1403637136138319104,50.747872,283.3780681332002,7.591981541666666,-0.0735498749999999,-2.239185083333333,-0.1005309649148733,-0.2736676267127109,-0.0495673507566389,1.0004002053282373,3.843323663752296,-0.08081370642460195
1403637136388318976,50.675393,206.3642013740836,10.019127416666668,-0.1144109166666666,-4.993219291666667,0.0383972435438752,-0.4858996637552213,0.1096066770252439,0.5299194152416523,3.4325151262627105,-0.0806372573464067
1403637136638319104,49.965858,567.0857395348069,12.715956166666665,-0.4576436666666666,-6.317117041666666,-0.0111701072127637,-0.0593411945678072,-0.0027925268031909,0.5858886929501015,3.542433046819703,-0.039024483381854935
1403637136888318976,63.745021,181.9327672065785,9.234595416666666,-0.0653776666666666,-4.4701979583333324,-0.0481710873550434,0.5242969072990966,0.0907571211037051,0.7218724010134949,4.064212129317546,0.08053446439931067
1403637137138319104,39.239407,277.2380717244457,5.303763208333334,-0.2533384583333333,-1.7406803749999995,0.1005309649148733,0.4663519761328848,0.4098033083682685,0.29258283203140295,4.328924502867709,0.04677773901955362
1403637137388318976,49.132824,804.4514204025364,6.210878333333333,-0.2615106666666666,-1.372931,0.0809832772925368,0.046774823953448,0.0509636141582344,0.49967243266777406,3.9471211378696545,-0.08794602592071499
1403637137638319104,49.063445,188.8290290121425,9.201906583333331,-0.0980665,-3.8082490833333327,-0.1563815009786919,-0.5508259119294103,-0.0083775804095727,0.6040739604202762,3.7012965910456925,-0.05852245033897496
1403637137888318976,50.138473,197.67527491884812,12.184762625,0.2043052083333333,-5.655168166666666,0.0726056968829641,-0.28623399732707,0.0132645023151569,1.3348189232835168,3.949230262144676,0.019803237622362246
1403637138138319104,61.020851,191.9384831403267,12.160246,0.3268883333333333,-5.875817791666666,0.1200786525372098,0.2443460952792061,-0.0432841654494593,0.9506283783413995,4.3717535159082335,0.3308276203163567
1403637138388318976,49.804449,190.42830562424427,7.216059958333333,0.44129925,-3.015544875,-0.2178170906488923,0.7379252077432026,0.0698131700797731,0.6130654941341707,4.930642831291292,0.027717113690078676
1403637138638319104,39.077759,810.3096542785208,5.303763208333334,0.1797885833333333,-0.8253930416666666,0.0167551608191455,0.0970403064108847,0.104021623418862,1.2471477514321416,4.755551785682108,-0.3347444202672296
1403637138888318976,49.830675,276.6115630813092,7.730909083333333,-0.1144109166666666,-3.1463002083333333,0.0460766922526503,-0.3155555287605747,0.0446804288510548,0.862356253320804,4.2877773719133145,-0.024662601473694146
1403637139138319104,39.211989,268.2839725290036,10.427737833333332,-0.6047434166666666,-4.26589275,0.1480039205691191,-0.1773254520026238,0.1424188669627373,0.8925149709939048,3.922818959994777,-0.0878230516333276
1403637139388318976,41.774988,299.1144060059882,10.117193916666666,-0.5802267916666666,-4.5519200416666665,0.15079644737231,0.0,-0.0607374579694026,0.7527051139098146,4.098536841047116,-0.028693693640836848
1403637139638319104,61.347008,476.0720564776728,9.054806833333332,-0.3105439166666667,-3.3996386666666667,0.0691150383789754,0.140324471860344,0.0167551608191455,0.7466312528977321,3.6814991180935612,-0.06644874256467581
1403637139888318976,50.780057,355.6990097442622,9.259112041666668,-0.9479761666666666,-3.391466458333333,-0.0432841654494593,0.2541199390903744,0.1494001839707146,0.17965692385849583,3.5201785932656153,-0.08281965319561291
1403637140138319104,38.609505,299.9603540940421,9.586000375,-0.809048625,-2.459834708333333,-0.093549647906896,0.333008821280518,0.1396263401595463,0.3388011831587433,3.3301455621045277,-0.07550823482268365
1403637140388318976,49.706697,566.6644439981552,9.986438583333332,0.024516625,-3.195333458333333,0.0055850536063818,0.093549647906896,0.0376991118430775,0.7303981449125473,3.268412476801318,0.008241934106960613
1403637140638319104,50.175667,580.4900547969817,9.291800875,-0.8008764166666666,-2.606934458333333,0.0125663706143591,0.0251327412287183,0.064926248174189,0.16488055352150335,3.4030407713089814,0.031071780155750073
1403637140888318976,50.085068,578.2237129280962,9.65955025,-0.9398039583333332,-2.533384583333333,-0.0202458193231342,0.0230383461263251,0.0767944870877505,0.05274773976613614,3.447162826432357,0.006429253831658155
1403637141138319104,48.782587,581.4173999789716,9.389867375,-0.7600153749999999,-2.6151066666666667,0.0048869219055841,0.0265290046303138,0.0760963553869527,0.030334107457479945,3.4460329377886816,-0.0033379577541730043
1403637141388318976,51.135778,581.7317730948363,9.406211791666664,-0.6292600416666666,-2.6477955,-0.0020943951023931,0.0195476876223364,0.0795870138909414,0.024404519819579293,3.4274951304694836,-0.005279857561548695
1403637141638319104,50.558328,582.3702158936676,9.455245041666666,-0.6864655000000001,-2.623278875,-0.0006981317007977,0.0188495559215387,0.0788888821901436,0.015983018570018787,3.411497222030869,-0.010912984056647979
1403637141888318976,44.375658,580.6582609743841,9.332661916666666,-0.7273265416666667,-2.606934458333333,-0.0006981317007977,0.0230383461263251,0.0816814089933346,0.026478470707535985,3.3884009305907443,-0.006066327860466902
1403637142138319104,45.738697,581.9008149499962,9.479761666666668,-0.612915625,-2.574245625,-0.0034906585039886,0.0230383461263251,0.0747000919853573,0.029464754496005455,3.387444576867117,0.0028855164257928223
1403637142388318976,48.960925,580.7406857930847,9.340834125,-0.7681875833333334,-2.5660734166666663,-0.0027925268031909,0.0195476876223364,0.0795870138909414,0.03544487975651124,3.3656996865942084,-0.014042628441916616
1403637142638319104,49.672604,581.3630554630864,9.447072833333332,-0.6946377083333333,-2.606934458333333,0.0020943951023931,0.0167551608191455,0.08307767239493,0.006403607220947731,3.3645017027057738,0.006074467715121212
1403637142888318976,48.682212,581.4973497911864,9.414383999999998,-0.7191543333333333,-2.557901208333333,0.0,0.0174532925199432,0.0781907504893459,0.02143596994391104,3.363001571019316,-0.0008518158636179329
1403637143138319104,50.065279,582.1343697695916,9.422556208333331,-0.661948875,-2.574245625,-0.0006981317007977,0.0209439510239319,0.0816814089933346,0.030926215466953334,3.3754929645132754,0.002332365316608076
1403637143388318976,38.612127,582.0661315831318,9.422556208333331,-0.6701210833333332,-2.4843513333333336,-0.0006981317007977,0.0223402144255274,0.0872664625997164,0.022035189315427667,3.3704737522008483,-0.0031063853420452148
1403637143638319104,38.842201,581.0514438160394,9.36535075,-0.6864655000000001,-2.655967708333333,0.0,0.0265290046303138,0.075398223686155,0.015541077960659247,3.3801493834555623,-0.0028772872995190824
1403637143888318976,60.761214,581.6475362149909,9.422556208333331,-0.6456044583333332,-2.5415567916666664,0.0006981317007977,0.0111701072127637,0.0767944870877505,0.040156165422554034,3.3531978661345683,-0.004783054894055727
1403637144138319104,32.65357,521.5048080215158,9.978266375,-1.789713625,-2.639623291666666,-0.1061160185212552,0.0328121899374933,0.0991347015132779,0.056598935512113265,3.4004487422633103,0.016975440308444334
1403637144388318976,45.442104,531.9235100274782,9.128356708333332,0.0653776666666666,-2.557901208333333,0.0970403064108847,0.0237364778271228,0.0495673507566389,0.04886842477826018,3.3806611619844107,0.005554921720380079
1403637144638319104,60.689687,573.9625413817729,9.332661916666666,-0.661948875,-2.4108014583333333,0.0335103216382911,0.0376991118430775,0.0886627260013119,0.014551666443395905,3.383236787269413,-0.009924562351470989
1403637144888318976,46.056271,573.0680686369219,9.26728425,0.1307553333333333,-2.79489525,0.0041887902047863,0.0027925268031909,0.0628318530717958,0.04418816136144036,3.346271453807468,0.012310047301642424
1403637145138319104,49.864769,554.490155997245,10.043644041666663,-0.980665,-2.803067458333333,-0.0705113017805709,0.0146607657167523,0.0956440430092892,0.042936448053079834,3.3099916818105215,-0.01601868018403163
1403637145388318976,60.239553,582.017980692119,9.414383999999998,-1.0215260416666667,-2.476179125,0.0118682389135614,0.0376991118430775,0.0712094334813686,0.05107728803155087,3.2926982339361572,0.003923179660317633
1403637145638319104,36.278964,581.3674422203898,9.226423208333332,-0.4086104166666666,-2.5905900416666663,0.007679448708775,0.0265290046303138,0.0600393262686049,0.021580912747109826,3.292550393970849,0.006534180814140367
1403637145888318976,39.356709,582.7662442337496,9.291800875,-0.8907707083333333,-2.50069575,-0.0020943951023931,0.0174532925199432,0.0851720674973232,0.018554143328824223,3.2953260014525156,-0.003187931228188834
1403637146138319104,39.142132,583.1644060499817,9.716755708333332,-0.7927042083333332,-2.672312125,0.0013962634015954,0.0216420827247296,0.0684169066781777,0.04900204241625098,3.3287242292156574,0.008864476631471607
1403637146388318976,50.076008,574.1928835958414,9.218251,-1.438308666666667,-2.231012875,-0.0390953752446729,0.0614355896702004,0.0747000919853573,0.059623685102573404,3.293018418680507,-0.002699296807933127
1403637146638319104,64.084053,579.257480078972,8.948568125,-1.0215260416666667,-2.3617682083333333,0.0006981317007977,0.0118682389135614,0.0809832772925368,0.044845515770205284,3.3047347249692627,-0.0026536228973750298
1403637146888318976,51.237344,579.1013657905161,9.700411291666663,-0.6456044583333332,-2.6641399166666666,-0.0006981317007977,-0.0090757121103705,0.114493598930828,0.04240919477379808,3.336197564789107,0.004431132359512979
1403637147138319104,60.474157,576.2694002406895,9.308145291666667,-1.1441091666666665,-2.533384583333333,-0.0237364778271228,0.0349065850398865,0.08307767239493,0.025996111601390304,3.315732598528023,-0.00380990716578955
1403637147388318976,50.157785,576.9571893773734,9.242767625,-0.612915625,-2.623278875,-0.0104719755119659,0.0607374579694026,0.0628318530717958,0.036598492469514986,3.3103632932442255,0.0023271284708474838
1403637147638319104,60.397148,581.247165480526,9.994610791666668,-0.612915625,-2.9011339583333333,0.0006981317007977,0.036302848441482,0.0942477796076938,0.026066698837663434,3.305699346973116,-0.019218332111839764
1403637147888318976,60.436011,580.3284220678464,9.471589458333332,-0.7028099166666667,-2.549729,-0.0097738438111682,0.0349065850398865,0.0600393262686049,0.09173239806149443,3.2308273131234486,-0.012883053371021802
1403637148138319104,39.144516,578.4545440438666,9.144701125,-0.809048625,-2.4843513333333336,-0.0041887902047863,0.0272271363311115,0.0963421747100869,0.031011649596757167,3.208044675213753,-0.0016385257509972107
1403637148388318976,39.521456,580.0540047646211,10.386876791666666,-0.5066769166666666,-2.655967708333333,0.0307177948351002,0.0034906585039886,0.1165879940332212,0.021742142828607935,3.2277550490104314,0.004069380352831331
1403637148638319104,60.429335,574.3316439253992,9.724927916666667,-0.9234595416666666,-2.6641399166666666,0.0020943951023931,0.0698131700797731,0.0656243798749867,0.08113451157445065,3.23531367902372,-0.01693556679522734
1403637148888318976,48.357249,570.9562992991895,8.77695175,-0.563882375,-2.1738074166666665,0.0356047167406843,-0.0670206432765822,0.0628318530717958,0.06763527805685322,3.233073708597414,-0.002971629359707073
1403637149138319104,60.883284,567.5891526137445,8.760607333333333,0.0817220833333333,-2.459834708333333,0.0202458193231342,0.0370009801422797,0.0251327412287183,0.17423205846717763,3.1984606164044034,-0.015416299027866565
1403637149388318976,60.622692,569.0782581519878,9.594172583333334,-0.8499096666666667,-2.8766173333333334,0.0062831853071795,-0.0390953752446729,0.0802851455917391,0.3675939062974138,3.210017222594512,0.01199671990751705
1403637149638319104,51.263094,299.90679362519506,7.240576583333333,-0.24516625,-1.52003075,0.1947787445225671,-0.2534218073895766,-0.1347394182539622,0.5532847482175212,3.3440663291118953,0.035975504260920665
1403637149888318976,38.648367,260.5512889564,11.179581,0.1144109166666666,-2.378112625,-0.0809832772925368,-0.278554548618295,-0.122173047639603,0.9906585742399868,3.770295929854286,0.13453298544827685
1403637150138319104,50.817728,292.82825464639603,8.850501625,0.9234595416666666,-3.4813607499999994,-0.1968731396249603,-0.0740019602845595,-0.1117010721276371,1.0873345920883783,3.688967733557686,-0.024483983961664624
1403637150388318976,55.540085,227.48368137436177,8.768779541666666,0.6047434166666666,-3.072750333333333,-0.007679448708775,0.3874630939427411,0.1480039205691191,1.3662825938169576,3.533184213243765,0.034443211908568916
1403637150638319104,39.213896,390.3386786319704,8.482752249999999,-0.0408610416666666,-3.0809225416666663,-0.0314159265358979,0.0439822971502571,0.1193805208364121,0.7265755684457542,3.295295738245167,-0.03208339624821299
1403637150888318976,34.724713,390.568622488307,7.028099166666666,-0.5802267916666666,-2.018535458333333,-0.0230383461263251,0.2192133540504878,0.0551524043630208,0.5395864966958995,3.1252070501211158,-0.009075182401878656
1403637151138319104,54.810524,542.3958184616436,9.684066875,0.3105439166666667,-4.151481833333333,0.0474729556542457,0.1186823891356144,0.054454272662223,0.4363786754885238,3.287905668749084,0.012545386012944526
1403637151388318976,49.876451,689.1846598865346,10.558493166666668,0.2778550833333333,-4.028898708333333,0.1096066770252439,-0.104021623418862,0.3427826650916863,0.8928492606935482,4.1008856186006355,0.16181310870729915
1403637151638319104,49.881696,889.2110258852668,8.074141833333334,0.8499096666666667,-3.097266958333333,-0.018151424220741,0.0837758040957278,-0.0509636141582344,1.0841882410845556,5.094653730550692,0.22075031673410805
1403637151888318976,50.238609,1180.5396179571917,9.422556208333331,0.0408610416666666,-2.655967708333333,-0.0111701072127637,0.0719075651821663,-0.0321140582366956,1.066286130579898,5.848893641906188,0.14760548142559582
1403637152138319104,60.547114,1269.8550811891223,7.142510083333334,-0.4086104166666666,-3.342433208333333,0.0209439510239319,-0.0265290046303138,0.1235693110411985,0.321189721455469,6.130538094209135,0.03386213657443271
1403637152388318976,50.231695,1319.6513439131534,9.308145291666667,-0.0572054583333333,-3.67749375,-0.0174532925199432,-0.0139626340159546,0.0872664625997164,0.6784205138668509,6.474465469820137,0.03916801454791763
1403637152638319104,51.180125,1432.1868093068488,10.043644041666663,0.7273265416666667,-3.4813607499999994,0.0027925268031909,0.0216420827247296,0.1130973355292325,0.5935362260651489,6.166809640814764,-0.23267451978649323
1403637152888318976,39.41226,1038.2507152461626,8.490924458333334,0.6537766666666667,-4.502886791666667,0.0167551608191455,0.0928515162060983,-0.0118682389135614,0.3057879522514388,6.0456693161973,0.027452954284490794
1403637153138319104,33.255816,1295.6183675976306,6.995410333333333,0.8825985,-2.018535458333333,-0.0020943951023931,-0.0460766922526503,0.0677187749773799,0.4187097103359749,6.201371763156689,0.04605672999964572
1403637153388318976,49.023628,1297.1944407245262,10.223432625,0.0,-4.053415333333333,0.0048869219055841,-0.0321140582366956,0.0446804288510548,0.7808921698198182,6.719705193936315,0.11756369356946283
1403637153638319104,49.864292,1098.3450752359151,10.190743791666666,0.2124774166666666,-3.881798958333333,0.0397935069454707,0.08307767239493,0.1242674427419962,0.6891325416403111,7.304217232832902,0.10173958398763627
1403637153888318976,34.429073,1088.8525978577586,8.000591958333333,-0.5883989999999999,-2.9583394166666666,-0.0565486677646162,0.0621337213709981,0.1137954672300302,1.8439306912299593,7.858048426325342,0.047442456177335224
1403637154138319104,38.674116,928.6126585053554,6.913688249999999,1.12776475,-1.6998193333333331,0.1012290966156711,-0.1333431548523667,0.3351032163829112,1.4875588424055346,7.2157522772716725,-0.2799910212822345
1403637154388318976,61.919451,891.3646418163092,8.572646541666666,-0.3350605416666666,-2.557901208333333,-0.0677187749773799,0.1850049007113989,-0.1019272283164688,1.8557004423984582,6.233401625320514,-0.036715171459173135
1403637154638319104,46.325207,797.8294256681748,9.381695166666669,0.220649625,-3.979865458333333,-0.1061160185212552,-0.0921533845053006,-0.0767944870877505,1.0764835347458979,6.360171654576018,0.11479968300854537
1403637154888318976,50.004483,724.6921314485988,9.618689208333333,0.5883989999999999,-4.36395925,-0.2478367537831947,-0.1200786525372098,0.0537561409614253,1.3534087194621827,7.003927497876308,0.1386254425111515
1403637155138319104,39.148569,537.8794256376895,9.496106083333332,0.7600153749999999,-4.592781083333333,-0.2303834612632515,0.2492330171847902,0.2359685148696333,1.582165531490083,7.958974582083133,0.15320131237437984
1403637155388318976,49.925089,597.0057702701191,11.343025166666669,0.0653776666666666,-4.0125542916666666,-0.1752310569002306,0.1382300767579508,0.210835773640915,1.358913169897188,8.784341964216123,0.25500138720388676
1403637155638319104,50.139427,776.6904162010054,8.605335375,-0.0326888333333333,-3.048233708333333,-0.1843067690106012,-0.0767944870877505,0.3106686068549906,1.1728177098202544,9.366260269028306,0.12806633404407464
1403637155888318976,50.048351,579.8426710361894,9.831166624999998,0.4004382083333333,-2.79489525,-0.4314453910929983,0.0069813170079773,0.1591740277818828,1.9909217664313046,10.975882503201394,0.736507319292329
1403637156138319104,50.86875,662.1831714324009,7.412192958333333,-0.6537766666666667,-2.3454237916666667,-0.5138249317871306,0.1172861257340189,0.2701769682087222,2.0040491994422207,12.571538940485707,0.6021977014327486
1403637156388318976,38.314104,697.6169764719758,8.67888525,-0.34323275,-2.745862,-0.5592034923389831,0.0328121899374933,0.2611012560983517,2.1218331492264033,14.25247420763367,0.4180986482018252
1403637156638319104,49.927473,705.0458303553405,7.665531416666666,0.5720545833333333,-4.028898708333333,-0.5298819609054785,0.1172861257340189,0.2234021442552742,1.3224133730151004,14.729530574048077,0.05497554993409359
1403637156888318976,50.02594,694.6615355191516,9.863855458333331,-0.1797885833333333,-4.233203916666667,-0.2820452071222836,-0.1110029404268393,0.018151424220741,0.8129564804333111,14.606077169570183,-0.025326529507621487
1403637157138319104,50.013543,1077.524766603202,9.07115125,-0.2615106666666666,-3.064578125,0.0328121899374933,-0.0502654824574366,0.153588974175501,3.116569668668543,16.04193037946981,0.046166197457162994
1403637157388318976,38.234949,1003.481647393667,10.713765125,-0.0735498749999999,-3.857282333333333,0.1494001839707146,0.0083775804095727,0.3134611336581816,1.7687216983093155,17.01878550778725,-0.03659498687080642
1403637157638319104,49.918413,1169.135916241853,8.817812791666666,0.0408610416666666,-3.652977125,0.0523598775598298,0.0265290046303138,0.0628318530717958,1.3692168760998702,16.04478871748748,-0.08990844478521609
1403637157888318976,49.916029,743.677623246554,8.368341333333333,0.0898942916666666,-2.40262925,-0.028623399732707,0.2261946710584651,-0.0907571211037051,1.2376281136174185,14.483497660663414,-0.2936693101187515
1403637158138319104,49.785375,698.4793685444063,10.182571583333331,0.465815875,-1.7243359583333333,0.0132645023151569,0.0837758040957278,0.028623399732707,1.327949050955348,12.714214059324613,-0.40850985689700536
1403637158388318976,60.836315,332.18816129060565,10.329671333333332,0.6701210833333332,-4.225031708333333,-0.2031563249321399,0.0432841654494593,0.2687807048071267,0.6222901283561971,11.703965119729713,0.04228726284583573
1403637158638319104,49.138308,242.3052326939774,9.283628666666663,-0.4004382083333333,-2.9338227916666666,-0.450294947014537,0.1298524963483781,0.3497639820996636,3.021767327905842,12.568565167165483,0.19434166780067663
1403637158888318976,60.529709,247.92778441099549,10.550320958333334,-0.5148491249999999,-3.505877375,-0.249931148885588,0.0062831853071795,0.057246799465414,3.1039016302503994,13.811683994025412,0.6502785003111136
1403637159138319104,49.818516,276.46852550776947,6.7502440833333335,0.661948875,-2.754034208333333,0.0139626340159546,0.0272271363311115,0.2450442269800038,1.76226602538963,13.69249599362331,-0.1846665026242107
1403637159388318976,65.577746,317.6524538375158,8.237585999999999,-0.4985047083333333,-2.0675687083333334,0.0586430628670094,0.075398223686155,0.0453785605518525,1.5993319198350207,12.559000133124576,-0.09085064612138538
1403637159638319104,40.004731,227.65290875042444,10.54214875,0.4494714583333333,-2.941995,0.0314159265358979,0.0390953752446729,-0.1193805208364121,4.7051452487645165,13.514623880640222,0.2701921517384047
1403637159888318976,50.086499,202.92989343613544,7.853492208333332,-0.2778550833333333,-3.530394,-0.1996656664281513,-0.0747000919853573,0.1473057888683213,0.9358118140802152,13.358941729019175,-0.06828760265541156
1403637160138319104,39.210796,183.376041042216,10.623870833333331,0.3514049583333333,-4.617297708333333,-0.4551818689201211,0.1347394182539622,0.3790855135331683,1.3408149449882074,11.65509778762385,-0.6316965304069537
1403637160388318976,49.528838,168.11567431929822,9.896544291666666,-0.8253930416666666,-3.178989041666666,-0.6164502918043971,-0.0307177948351002,0.3127630019573839,2.9477608739568275,8.512620091957846,-0.4832489067088872
1403637160638319104,49.918174,121.68591010036944,8.180380541666665,-2.034879875,-2.941995,-0.5989969992844539,-0.1549852375770964,0.278554548618295,1.7342070361821178,8.967413788725164,-0.08651129760418996
1403637160888318976,50.633907,475.3704861046564,9.471589458333332,-0.367749375,-3.3506054166666663,-0.2352703831688356,-0.0342084533390888,0.114493598930828,5.091793511848763,6.266688152450913,-0.6386295017837744
1403637161138319104,50.024271,563.7097428009338,8.155863916666666,0.3023717083333333,-2.3617682083333333,0.0335103216382911,0.1361356816555577,0.3881612256435388,4.401444732577507,8.889341526372386,1.2230341918392815
1403637161388318976,47.348499,669.7598601857367,10.460426666666669,0.0081722083333333,-3.505877375,-0.0376991118430775,-0.0174532925199432,-0.0230383461263251,3.5066913308900327,8.50839852033566,-0.36682079240663157
1403637161638319104,50.102949,396.5777210304557,8.311135875,-0.5557101666666666,-3.751043625,-0.2792526803190927,0.0949459113084915,0.0774926187885482,2.5755204249873027,10.189944943581231,0.5053332823430416
1403637161888318976,50.093651,309.8387098454846,7.861664416666666,-0.2369940416666666,-2.6641399166666666,-0.1996656664281513,0.382576172037157,0.0523598775598298,1.4066185321067273,11.649687874336768,0.16159502115615787
1403637162138319104,61.312199,581.717122449981,7.0689602083333325,0.3759215833333333,-2.557901208333333,-0.0069813170079773,0.0733038285837618,0.1891936909161853,1.6299824921489348,12.43506698351816,-0.012947830769419966
1403637162388318976,39.1078,475.1575177564613,8.711574083333332,-0.1879607916666666,-3.4813607499999994,0.1123992038284348,-0.1773254520026238,0.2848377339254746,3.3156170403850798,12.981616047648117,0.331495386655444
1403637162638319104,60.668469,310.7355560504128,7.093476833333334,-0.5311935416666667,-1.6998193333333331,-0.0216420827247296,0.325329372571743,-0.0202458193231342,4.185345930612164,14.001188842475162,0.30105465424428424
1403637162888318976,49.093485,370.2103675632756,8.18855275,0.1307553333333333,-2.6886565416666666,-0.486597795456019,0.1598721594826805,0.1061160185212552,4.809285028196983,13.763921714473367,0.27773986183573207
1403637163138319104,49.750567,345.1032939652355,8.711574083333332,-0.7273265416666667,-3.3260887916666664,-0.7707373976806958,0.1256637061435917,0.1752310569002306,1.7129923764024224,15.103831513757267,0.2909781691833828
1403637163388318976,49.056768,344.78046304709187,7.518431666666666,-1.5363751666666667,-3.702010375,-0.635299847725936,0.007679448708775,0.3790855135331683,3.425134161742993,17.375048459897382,0.5677061133913348
1403637163638319104,54.635048,259.9041109793396,10.305154708333331,-0.367749375,-2.8847895416666667,-0.2422517001768129,-0.2569124658935653,0.325329372571743,4.373573865889822,21.198789194803563,0.7390632736409373
1403637163888318976,39.910316,426.0847677517901,10.403221208333331,0.2615106666666666,-4.192342875,-0.0335103216382911,0.0006981317007977,0.1857030324121966,2.8136873079396856,23.556772752797634,0.5257486160706613
1403637164138319104,49.591065,361.1281433990787,10.321499125,0.3759215833333333,-4.151481833333333,0.0237364778271228,0.179419847105017,-0.0118682389135614,2.777867059324937,25.96285825700466,0.35909314289367344
1403637164388318976,60.101986,351.78577332361897,6.7502440833333335,-0.7191543333333333,-1.1686257916666667,0.0069813170079773,-0.0488692190558412,-0.0886627260013119,3.4478901164537286,28.63481407435084,0.4729635044140821
1403637164638319104,39.543628,415.8540598150103,8.38468575,-1.0296982499999998,-3.7919046666666665,0.0970403064108847,0.0328121899374933,0.0495673507566389,4.403839791146725,31.605669755082445,0.6816399546989267
1403637164888318976,36.386252,257.72229522691265,10.288810291666666,-1.5527195833333332,-3.023717083333333,-0.2387610416728242,0.0370009801422797,-0.0383972435438752,5.7140951527877695,37.17602223943738,1.2427432670696845
1403637165138319104,60.519457,232.4529818341295,7.959730916666666,-1.3320699583333333,-3.742871416666666,-0.4558800006209189,0.2611012560983517,0.1417207352619395,4.705762731913573,41.935893611125636,0.6521462825922839
1403637165388318976,38.964748,178.53711356484655,10.149882749999998,-1.0705592916666666,-3.4486719166666666,-0.4237659423842232,-0.2303834612632515,0.1682497398922533,6.388123252430991,48.32358016301069,0.9897726432179681
1403637165638319104,39.888621,167.33027885111198,8.981256958333333,-0.8499096666666667,-3.603943875,-0.2743657584135086,-0.054454272662223,-0.1165879940332212,7.041162476102136,55.16275111771021,1.1653136988444501
1403637165888318976,49.287081,195.57648679650472,7.224232166666667,0.2778550833333333,-2.745862,-0.007679448708775,0.0607374579694026,-0.1787217154042193,5.896610825224808,61.01424649449169,0.9760928404240587
1403637166138319104,50.263882,233.40695589683293,3.955348833333333,0.0326888333333333,-0.9398039583333332,0.1549852375770964,0.0984365698124801,-0.0293215314335047,5.318630415152673,65.60051510002309,-0.3903789959880015
1403637166388318976,49.986363,160.6208859883973,8.278447041666666,-0.1062387083333333,-3.8164212916666655,0.2743657584135086,0.7609635538695276,0.171740398396242,19.703395583747366,52.341660087220674,-2.401978826887685
1403637166638319104,49.880981,177.2911675141454,7.984247541666667,-0.1879607916666666,-3.023717083333333,0.1054178868204575,-0.5173155902911193,0.0684169066781777,4.452228208737809,55.60982313650818,1.0648349260052967
1403637166888318976,50.104379,179.68612162259856,10.002783,-0.8580818749999999,-2.745862,-0.025830872929516,0.0488692190558412,-0.2631956512007449,9.599838279780878,52.149361749699054,0.306523554891605
1403637167138319104,48.081637,187.11925346091687,9.324489708333331,-0.392266,-3.4486719166666666,-0.0335103216382911,0.333008821280518,-0.1815142422074102,7.7460642808532265,53.27282422743005,0.42525783368658665
1403637167388318976,49.415111,162.56248846149734,7.453054,-0.3105439166666667,-1.7570247916666666,0.0788888821901436,-0.2436479635784084,0.3134611336581816,9.801996713208105,53.20050158024099,0.3346954285470858
1403637167638319104,39.783954,136.89180949894055,9.822994416666669,-0.0735498749999999,-3.669321541666666,0.2359685148696333,-0.1235693110411985,0.6178465552059926,3.0012031025005483,49.65586317016577,-0.8113021082721588
1403637167888318976,49.893141,163.06519746562324,10.583009791666663,0.4249548333333333,-3.113611375,0.2101376419401172,-0.1487020522699168,-0.0684169066781777,2.5421588288546833,46.494919982985934,-0.7374813241805853
1403637168138319104,60.956955,205.43227219871287,7.003582541666666,0.5720545833333333,-1.2340034583333332,0.1766273203018261,-0.0823795406941323,0.1843067690106012,3.0342863753022646,43.49886863943199,-0.5900932715475662
1403637168388318976,39.43491,266.9969766430989,8.629852,0.9479761666666666,-1.9776744166666664,0.0328121899374933,0.4091051766674708,-0.0767944870877505,8.914302688543527,35.37699411425653,-0.6495425399673422
1403637168638319104,49.915075,273.57404677729187,10.370532375,-0.5230213333333333,-4.715364208333333,-0.0146607657167523,-0.15079644737231,0.104021623418862,2.551856569735636,32.8941767586518,-0.6454058911504674
1403637168888318976,49.970865,321.7276832688478,8.302963666666667,1.046042666666667,-2.999200458333333,-0.0998328332140756,-0.0774926187885482,-0.0977384381116824,2.6567349437447865,29.251514907276537,-0.6597554861971027
1403637169138319104,38.982868,322.0586701358618,11.285819708333332,-0.5965712083333333,-4.380303666666666,0.1082104136236484,0.1954768762233649,-0.0104719755119659,3.8843486430408767,26.700649835107036,-0.3268791113394798
1403637169388318976,44.429303,280.10003633898924,11.056997875,0.1470997499999999,-4.2168595,0.4921828490624009,0.1333431548523667,-0.0684169066781777,2.47712159326457,24.709621753217963,-0.18812365238125395
1403637169638319104,60.700416,275.3310638118507,9.782133375,0.220649625,-2.9338227916666666,0.5640904142445673,0.093549647906896,-0.2694788365079245,1.8893049521088083,21.421387781919215,-1.0464651206417237
1403637169888318976,39.16049,331.07977892280337,7.093476833333334,-0.8662540833333333,-2.79489525,0.5305800926062761,0.1975712713257581,-0.1989675347273535,1.6354664127198313,19.008083328423655,-0.34582524766544864
1403637170138319104,39.298772,322.95839148480803,7.935214291666666,0.5965712083333333,-2.353596,0.5089380098815465,0.15079644737231,-0.075398223686155,0.4364383923194977,17.584491404176614,0.2516118135997907
1403637170388318976,45.11261,242.04143800142091,8.409202375,0.8417374583333332,-2.280046125,0.6855653301833726,0.0921533845053006,0.2708750999095199,4.083642094340454,19.46587144125596,0.984725865970919
1403637170638319104,65.681696,257.5901545368957,7.338643083333332,0.7028099166666667,-2.0021910416666664,0.76026542216873,0.5089380098815465,0.1500983156715123,5.512707703037765,23.32088047867505,0.42000058987832034
1403637170888318976,39.327383,405.7701405059015,10.24794925,0.956148375,-2.9256505833333333,0.8063421144213804,-0.0202458193231342,-0.0397935069454707,3.7620271640806715,18.71744169395487,-1.627622260140999
1403637171138319104,37.544966,236.93360597496027,10.280638083333333,0.63743225,-4.592781083333333,0.5871287603708925,-0.1563815009786919,0.0230383461263251,1.8733379324965524,18.897172915198272,-0.2806703779486668
1403637171388318976,38.971662,180.57451241058004,11.089686708333334,1.9041245416666663,-4.143309625,0.1410226035611418,0.0719075651821663,-0.1514945790731078,7.496096301667688,13.609886609187722,-0.4234095304860599
1403637171638319104,38.755893,261.31223015341544,8.074141833333334,1.22583125,-2.778550833333333,-0.0663225115757845,0.0020943951023931,-0.0558505360638185,9.068850001157621,11.737554951133593,0.4834734655320503
1403637171888318976,50.164938,307.5900985224575,8.572646541666666,0.6701210833333332,-2.557901208333333,-0.0893608577021096,0.0293215314335047,0.1410226035611418,4.172112136616666,15.042258873689796,0.9339623675837476
1403637172138319104,50.414086,290.0728695267404,8.098658458333333,1.0705592916666666,-3.178989041666666,0.0383972435438752,-0.0118682389135614,0.3755948550291797,3.036476889195165,17.453962441173044,0.28118159835852197
1403637172388318976,38.798094,142.11117752479674,11.040653458333331,0.5475379583333333,-3.415983083333333,0.0537561409614253,-0.208043246837724,0.4572762640225143,4.587203449253787,17.183910323277154,0.508968870613657
1403637172638319104,50.136089,194.32262505234235,9.030290208333332,0.8417374583333332,-3.211677875,-0.0174532925199432,-0.0579449311662117,0.1933824811209717,2.1470533199972444,17.39689026916753,-0.3100301704303341
1403637172888318976,60.538769,87.116924056412,7.665531416666666,0.9234595416666666,-1.1195925416666666,-0.2659881780039358,-0.4970697709679851,0.1494001839707146,6.764951032911792,15.18136672239396,-0.31791154524339404
1403637173138319104,50.297022,115.19654130049874,7.869836625,0.0653776666666666,-2.9338227916666666,-0.3022910264454179,-0.0027925268031909,0.3546509040052477,4.75808077503014,16.904102266068204,0.28643209689806426
1403637173388318976,35.371542,113.96385493588434,9.054806833333332,0.661948875,-1.9531577916666665,-0.4440117617073574,0.3546509040052477,0.3225368457685521,4.694758871040721,21.60235100218214,1.2023098613450003
1403637173638319104,50.029277,108.76814025433752,10.378704583333333,0.465815875,-3.072750333333333,-0.3469714552964727,0.0118682389135614,0.536165146212658,4.462980631619467,26.1845247732582,0.7688150760369545
1403637173888318976,49.932242,82.54021335447347,11.293991916666666,0.2288218333333333,-4.16782625,-0.4000294645571003,-0.3085742117525974,0.0788888821901436,2.0536119584587973,27.986956342075718,0.31924031813453624
1403637174138319104,35.175085,82.87936359552688,11.03248125,0.4331270416666666,-2.9256505833333333,-0.1626646862858715,0.8126252997285598,-0.1829105056090057,2.34264254750701,27.15427622595341,-0.56017669745302
1403637174388318976,49.767971,166.89854198984813,10.166227166666664,-1.0705592916666666,-3.571255041666667,0.0670206432765822,0.2150245638457014,0.2722713633111154,2.7923732434907356,23.7777387722032,-0.35191371992672416
1403637174638319104,50.275326,177.45278020671205,10.084505083333331,0.367749375,-3.9880376666666666,-0.4551818689201211,0.1333431548523667,-0.0565486677646162,0.4490144947793541,22.96897505539113,-0.23597093934602853
1403637174888318976,61.781883,159.45540948501218,10.370532375,-0.44129925,-3.538566208333333,-0.5857324969692971,-0.189891822616983,0.268082573106329,1.247545764152628,22.162446545354157,-0.40659088872876836
1403637175138319104,55.819035,120.98787950026752,8.834157208333334,-1.2748645,-3.4977051666666665,-0.3281218993749339,0.2694788365079245,0.2401573050744197,2.038699350345969,20.677639266463512,-0.18327661470798873
1403637175388318976,49.232244,197.81288266761177,8.319308083333333,-0.7927042083333332,-2.30456275,-0.0607374579694026,0.1075122819228507,0.1850049007113989,1.6728761452031191,19.937991764808764,-0.24058149417806973
1403637175638319104,44.598103,144.97194328157286,10.24794925,-0.3759215833333333,-2.7376897916666665,0.0202458193231342,-0.2478367537831947,0.1556833692778942,3.2025682425794297,18.254951885411128,-0.3103183509293963
1403637175888318976,39.773226,180.6838891266009,9.299973083333333,-1.1767979999999998,-3.571255041666667,-0.08307767239493,0.0048869219055841,-0.2631956512007449,3.7559914799583503,17.760219107085582,0.14136178797416932
1403637176138319104,39.711952,261.80858973311086,8.997601374999999,1.1359369583333332,-3.955348833333333,0.0628318530717958,0.247138622082397,-0.0083775804095727,3.7455128766272168,18.569832519159192,0.371582096080612
1403637176388318976,49.89171,468.4749495746563,7.453054,-0.4331270416666666,-2.288218333333333,-0.0872664625997164,-0.0865683308989187,0.0314159265358979,2.711098085820424,21.129120631244092,0.6180136382156718
1403637176638319104,65.180063,477.1813698272833,10.133538333333334,0.6292600416666666,-3.742871416666666,-0.2038544566329376,-0.1256637061435917,0.2673844414055313,2.5167159566449744,24.204072771076206,0.5374459187973741
1403637176888318976,51.621437,436.3474315665683,7.690048041666667,0.416782625,-2.2555295,-0.1207767842380075,-0.1172861257340189,0.0635299847725936,2.718573068220748,26.821636755566598,0.5218815203605232
1403637177138319104,32.083273,319.1876687119584,8.572646541666666,-1.0869037083333333,-2.435318083333333,-0.0614355896702004,-0.42167154728183,0.1445132620651305,3.6338930103020166,30.31472592053425,0.7961266957210036
1403637177388318976,65.113306,478.52435281302536,9.782133375,-0.318716125,-2.745862,-0.0663225115757845,-0.0404916386462684,-0.0300196631343024,5.602264122060233,34.56771166229122,1.0201434293906857
1403637177638319104,50.131083,464.3601013473709,9.030290208333332,-0.4331270416666666,-3.064578125,-0.1982694030265558,0.208043246837724,-0.2408554367752175,3.7606324227299393,39.45429422400724,0.8180513039520605
1403637177888318976,45.802117,404.96654194624006,8.38468575,0.3840937916666667,-1.7488525833333333,-0.296705972839036,0.1549852375770964,0.2534218073895766,4.842631643091563,40.78748475956972,0.4765930516299619
1403637178138319104,50.052881,334.154317935667,11.155064374999998,1.3320699583333333,-4.388475875,-0.4628613176288962,0.0663225115757845,0.0349065850398865,5.183631418295333,42.702278467770746,-0.20437882447176747
1403637178388318976,49.837589,368.4472781089476,10.002783,-0.0408610416666666,-4.4211647083333325,-0.2555162024919699,0.1787217154042193,-0.0621337213709981,8.861691053496644,40.77210166039683,-0.622106969661246
1403637178638319104,58.296919,322.84840706033145,7.722736874999999,0.5148491249999999,-1.3565865833333333,0.1675516081914556,0.1165879940332212,0.4775220833456485,6.33413843961592,37.922833757530846,-0.9185013740326085
1403637178888318976,39.074182,290.22828174328384,8.253930416666666,-0.0572054583333333,-2.7213453750000003,0.1577777643802873,0.1870992958137921,0.4733332931408622,3.9729260904627224,34.43889518258463,-0.9815255421252829
1403637179138319104,62.245607,475.6684166449553,9.937405333333334,0.1552719583333333,-3.587599458333333,0.0,-0.1759291886010284,0.0055850536063818,2.843372682448768,36.195593540511275,-0.2640708788606858
1403637179388318976,49.989938,585.4857377850159,10.378704583333333,0.367749375,-4.584608875,0.0167551608191455,0.0139626340159546,-0.064926248174189,1.1264674472274023,34.6074876068169,-0.3801088956845504
1403637179638319104,64.056158,455.7037000714478,7.853492208333332,0.9970094166666666,-2.1411185833333333,-0.0048869219055841,0.1738347934986352,0.0900589894029074,1.0044984045075855,33.08713965010621,-0.12571090794394735
1403637179888318976,60.520172,551.3895004767425,7.951558708333333,-0.8253930416666666,-2.811239666666667,-0.1654572130890624,0.0788888821901436,-0.2541199390903744,2.421497716291955,30.402598122894386,-0.7770149938632791
1403637180138319104,50.139904,332.3325614903794,9.373522958333332,0.0817220833333333,-3.996209875,0.1459095254667259,-0.0251327412287183,0.4349360495969869,4.793539898493189,25.66323546947573,-0.9926237804396578
1403637180388318976,49.849272,300.41330523422846,9.978266375,0.196133,-3.718354791666666,0.0537561409614253,-0.3351032163829112,0.210835773640915,4.535167111257037,21.934414189161835,-0.4104748327522465
1403637180638319104,37.966966,426.733548819509,9.26728425,-0.563882375,-3.693838166666666,-0.15079644737231,0.3260275042725407,-0.3036872898470133,4.8868559125351165,19.14413877191132,-0.8190250773032481
1403637180888318976,48.411608,503.0171364908987,6.905516041666667,0.4331270416666666,-3.6284605,-0.1542871058762987,0.122173047639603,-0.268082573106329,4.595841903560512,17.705463197541498,-0.3190945411799895
1403637181138319104,37.909269,305.5422860809107,11.931424166666664,0.3268883333333333,-4.519231208333333,0.0872664625997164,-0.0160570291183478,0.4286528642898072,4.526959844807803,17.740314223320546,0.13882335460394302
1403637181388318976,49.84212,303.188435864997,10.256121458333332,0.220649625,-3.195333458333333,-0.0509636141582344,0.0844739357965255,0.0251327412287183,3.578972742957751,18.4552839007904,0.11861953294229721
1403637181638319104,33.96368,403.1616215404309,9.447072833333332,-0.7109821249999999,-3.2443667083333327,-0.0781907504893459,-0.0558505360638185,0.0495673507566389,1.790090320344697,17.832089089479823,0.09142968048558231
1403637181888318976,39.135933,331.6408284821728,8.253930416666666,0.5148491249999999,-2.2555295,0.0,0.0349065850398865,0.1549852375770964,2.922392939815443,19.80460189219368,0.19024084372887273
1403637182138319104,50.214291,302.2884703861558,7.444881791666666,0.1634441666666666,-3.8654545416666655,0.1005309649148733,0.1654572130890624,0.2296853295624537,3.4860189444408425,23.009058526283305,0.6752845343775675
1403637182388318976,59.995175,274.6269784765789,8.981256958333333,0.93163175,-2.549729,0.161268422884276,0.2778564169174973,0.2317797246648469,3.208442673334467,26.40408012438839,0.2262315702954325
1403637182638319104,50.165177,390.5036790735626,8.311135875,0.7681875833333334,-3.170816833333333,0.0188495559215387,0.0607374579694026,-0.0390953752446729,2.7009012029820383,29.56316283734109,0.3415728323063476
1403637182888318976,60.982466,416.33579336596665,8.932223708333334,0.6701210833333332,-2.623278875,0.0397935069454707,-0.028623399732707,0.2345722514680378,2.3686791831842706,32.56273733561933,1.0604967178973759
1403637183138319104,54.620981,482.3363220753327,8.3356525,0.4903325,-2.89296175,0.0153588974175501,0.0453785605518525,0.1626646862858715,2.5963220586073517,36.776366572045276,0.7857604411046211
1403637183388318976,51.698208,556.9810211841695,9.896544291666666,0.809048625,-3.4731885416666666,-0.0300196631343024,0.0907571211037051,0.046774823953448,1.4632700963914218,38.63910795552727,0.11808608102818141
1403637183638319104,50.663233,561.8322222849658,8.801468374999999,0.0081722083333333,-3.5957716666666664,0.0146607657167523,-0.0069813170079773,0.1989675347273535,5.851415803926476,35.79812105906009,-1.0718820194244145
1403637183888318976,49.052477,494.2962626956256,9.814822208333332,0.7600153749999999,-2.745862,0.0083775804095727,-0.1570796326794896,0.2415535684760151,2.587791120436393,36.202139010189676,0.23849859450801603
1403637184138319104,49.535513,661.6633358148955,10.599354208333333,-0.1879607916666666,-3.8654545416666655,-0.0481710873550434,-0.0293215314335047,-0.0230383461263251,2.189483083474962,36.95113390050379,0.11469060991235125
1403637184388318976,39.255142,438.3759830718038,8.360169125,-0.5475379583333333,-2.1983240416666665,-0.1417207352619395,-0.0356047167406843,-0.3197443189653611,1.5195326313319137,38.48251680636573,0.23850648299540467
1403637184638319104,52.719831,170.12514091503598,9.692239083333332,0.1389275416666666,-1.9940188333333333,-0.036302848441482,-0.1857030324121966,0.0104719755119659,1.2382103764500778,41.34951140686675,0.9597830216583958
1403637184888318976,65.39321,113.13686165484926,9.765788958333331,0.1144109166666666,-2.165635208333333,0.0006981317007977,-0.1361356816555577,-0.0111701072127637,5.1111169740176505,40.73334215943448,-0.38778254267216994
1403637185138319104,50.179005,173.3328379262419,9.447072833333332,-0.2941994999999999,-2.9338227916666666,0.0090757121103705,0.0251327412287183,0.171740398396242,17.527833392794896,46.04211103620459,0.6681678626742169
1403637185388318976,54.435015,147.65796186869372,7.681875833333333,0.0980665,-2.8847895416666667,-0.0991347015132779,-0.143116998663535,-0.1382300767579508,11.066374040838985,47.29208304507812,0.4468950308108859
1403637185638319104,65.420627,131.43327192239838,10.787315,-0.83356525,-2.7376897916666665,-0.0509636141582344,0.3693116697220001,0.1410226035611418,4.3872228361849075,49.27140447078766,0.47828761473103754
1403637185888318976,61.725616,141.2508153077385,8.866846041666665,0.5720545833333333,-3.97169325,-0.075398223686155,0.2268928027592628,0.0048869219055841,7.272206297801712,50.80313239761518,0.2680098410792269
1403637186138319104,49.942493,195.6517214872031,11.375714,0.0,-4.208687291666666,0.0188495559215387,0.1389282084587486,0.1123992038284348,3.9290919459220106,53.83590030158526,0.6027196797588061
1403637186388318976,38.610935,204.81681775948613,11.310336333333332,0.1797885833333333,-4.453853541666667,-0.0111701072127637,0.0684169066781777,0.1389282084587486,3.230198355824901,56.05505046477678,0.2504442905178692
1403637186638319104,51.655292,290.7463777093872,7.910697666666666,0.3105439166666667,-2.083913125,-0.0195476876223364,0.0188495559215387,0.1165879940332212,2.604280906112394,56.686190044075644,-0.2511977006698132
1403637186888318976,50.360203,355.72825756951977,7.698220249999999,-0.4576436666666666,-3.636632708333333,0.0788888821901436,0.0439822971502571,0.3351032163829112,3.363103854160712,55.99679175609562,-0.11396923682295323
1403637187138319104,49.763917,335.5140721955977,8.77695175,0.7109821249999999,-2.3209071666666663,-0.057246799465414,0.1982694030265558,-0.0195476876223364,1.8850005460744068,56.64246913918001,-0.002784526149433475
1403637187388318976,49.834966,278.1240154129165,9.888372083333332,0.6701210833333332,-2.8602729166666667,-0.1982694030265558,-0.1172861257340189,-0.1382300767579508,3.0605108874510663,56.44462111777491,-0.03259145281464271
1403637187638319104,49.486398,579.4810774596828,8.441891208333333,-0.5311935416666667,-5.173007875,-0.0446804288510548,0.0034906585039886,0.08307767239493,3.0542413071616417,55.78205003659996,-0.2992519508378777
1403637187888318976,49.919605,694.2111721763229,9.398039583333333,-0.53936575,-3.3260887916666664,-0.0767944870877505,-0.0174532925199432,-0.0300196631343024,2.8500091960655176,55.401128132534936,0.31811221655002697
1403637188138319104,49.714804,660.1431196205497,9.929233125,0.9643205833333331,-3.4323274999999995,-0.0642281164733913,0.1773254520026238,-0.0684169066781777,2.5379085911215093,54.66959441289648,-0.16832518528325835
1403637188388318976,49.660921,753.6301341188614,10.574837583333332,-0.34323275,-3.268883333333333,0.0244346095279206,0.2275909344600605,0.2199114857512855,1.999332606213778,55.240970395785396,-0.06005329552019134
1403637188638319104,50.173283,716.2184172017044,8.38468575,0.0408610416666666,-5.189352291666666,-0.1514945790731078,0.0439822971502571,0.4635594493296939,1.9234038632311174,56.36074149835581,0.09288715890242827
1403637188888318976,49.657822,657.1994465798844,9.863855458333331,-0.5475379583333333,-2.50069575,-0.2813470754214859,-0.0300196631343024,0.2122320370425104,4.541754046922666,53.63672767609192,-0.7762833793901649
1403637189138319104,49.9928,582.737699574853,8.441891208333333,-0.1879607916666666,-3.546738416666667,-0.1319468914507713,-0.2841396022246769,0.0321140582366956,7.968860137293027,50.80354603751811,-0.5648239715084671
1403637189388318976,48.994303,501.1531939645383,9.724927916666667,-0.7109821249999999,-3.8164212916666655,0.0481710873550434,0.3804817769347638,0.1214749159388053,3.0093200795060198,51.099763477214644,0.6319282412273068
1403637189638319104,49.587488,626.2671634334336,9.986438583333332,-0.5475379583333333,-4.045243125,-0.007679448708775,0.114493598930828,0.036302848441482,3.234618815511646,50.92539893719539,-0.04533796892586395
1403637189888318976,60.699225,607.034143736892,10.533976541666666,0.44129925,-4.862463958333334,0.0104719755119659,0.0872664625997164,0.0670206432765822,3.5416397483440685,51.42356788552851,0.09364998166622485
1403637190138319104,38.54394,511.8170956829288,9.398039583333333,0.0817220833333333,-1.184970208333333,-0.028623399732707,0.1305506280491758,0.0600393262686049,1.4091926913592294,53.32455149529915,0.6836948571359116
1403637190388318976,39.186239,487.87316372190384,10.166227166666664,-0.73549875,-3.28522775,0.0802851455917391,0.0188495559215387,0.293913446035845,0.6914916130705575,55.037502815506514,0.11697147897561422
1403637190638319104,50.409794,434.67993560709664,8.466407833333333,-0.4903325,-3.751043625,0.0356047167406843,0.0984365698124801,-0.2457423586808016,1.9224466224333274,56.820213006185284,0.2836308695605254
1403637190888318976,39.493322,575.127760128545,8.376513541666666,-0.8499096666666667,-3.0073726666666665,0.2338741197672401,0.0202458193231342,0.0837758040957278,3.133247512940629,57.927019651315526,0.4417086638600267
1403637191138319104,50.481557,613.3780137850179,8.548129916666667,1.0378704583333334,-2.982856041666666,0.1207767842380075,0.1165879940332212,0.0977384381116824,1.9063306082759925,60.13408160084291,0.37634936153302334
1403637191388318976,49.922943,483.4887503558465,10.648387458333334,-1.0705592916666666,-4.633642125,-0.0488692190558412,0.0223402144255274,-0.0174532925199432,2.115049017168234,62.08551873238603,0.3091006340012754
1403637191638319104,50.065518,398.4359769675513,9.332661916666666,0.5148491249999999,-4.895152791666666,-0.0809832772925368,-0.1968731396249603,0.085870199198121,4.706714129133235,64.1198538917642,0.2960801086182414
1403637191888318976,49.79229,345.8977354298528,10.468598874999998,-0.2288218333333333,-3.2443667083333327,-0.1361356816555577,0.1033234917180643,-0.143116998663535,0.8002926096191203,65.62219409020543,0.3782462828264812
1403637192138319104,45.915604,447.9430387207387,10.918070333333333,0.465815875,-3.178989041666666,-0.0251327412287183,-0.1857030324121966,0.0516617458590321,1.455969940329137,67.08019745978308,0.31705193697112577
1403637192388318976,47.04094,436.0421744751066,8.825985,-0.1062387083333333,-3.546738416666667,-0.036302848441482,0.0879645943005142,0.0307177948351002,4.7965955102243205,68.68112536346844,-0.026237611122169824
1403637192638319104,50.354003,469.7883213513962,9.275456458333332,-0.0735498749999999,-2.982856041666666,0.0516617458590321,-0.0767944870877505,0.249931148885588,2.3192691425487526,68.50550437401418,-0.050462997734996407
1403637192888318976,49.76201,412.79474272725327,10.092677291666664,-0.44129925,-4.274064958333334,0.0586430628670094,0.1577777643802873,0.1061160185212552,0.6338947867095143,67.90605836643171,-0.465543728126093
1403637193138319104,49.85857,240.34813826286643,10.378704583333333,-0.8499096666666667,-2.8602729166666667,0.2415535684760151,-0.1640609496874669,0.653451271946677,0.9524874597329884,67.4910381460457,-0.07181910369517652
1403637193388318976,62.134981,337.0756076279595,9.577828166666666,0.5311935416666667,-3.309744375,-0.1137954672300302,0.3029891581462156,-0.2129301687433081,1.1395867607554357,67.28628545375787,0.023288903268351646
1403637193638319104,49.016714,414.9973999391764,8.736090708333332,-0.24516625,-3.881798958333333,-0.0460766922526503,0.0397935069454707,-0.0502654824574366,0.9694171250717019,66.80772519684771,-0.14308511454429151
1403637193888318976,49.768209,407.0662497357862,8.580818749999999,0.2288218333333333,-2.974683833333333,0.0509636141582344,0.0837758040957278,0.1563815009786919,1.0248133481271373,66.34118578409422,-0.14514976607182462
1403637194138319104,39.37912,458.4992186946705,8.000591958333333,0.1307553333333333,-3.072750333333333,-0.0020943951023931,0.0418879020478639,0.0607374579694026,1.1958459278704066,65.7214891514766,-0.11746578804503827
1403637194388318976,33.398628,412.9163463691652,8.629852,0.4903325,-2.705000958333333,-0.0069813170079773,-0.0048869219055841,0.0551524043630208,0.8110199591476802,64.88570153862067,-0.11392701814486372
1403637194638319104,46.367883,394.9433293722573,8.719746291666667,0.4903325,-4.257720541666666,-0.007679448708775,-0.1675516081914556,0.057246799465414,0.9033642439230294,64.29223903610989,-0.11200740566464162
1403637194888318976,50.175667,339.6891002347451,10.059988458333333,0.220649625,-3.4241552916666667,0.0153588974175501,-0.0886627260013119,0.122173047639603,1.1325485915313562,63.56940788070141,-0.17430175610507348
1403637195138319104,50.253391,297.3256898712132,8.842329416666665,-0.8008764166666666,-2.263701708333333,0.0307177948351002,0.1745329251994329,0.1228711793404008,0.9797099533422468,62.40369825543179,-0.22489540407673303
1403637195388318976,50.025225,322.1695360048538,7.84532,-0.3759215833333333,-3.358777625,0.0349065850398865,-0.0244346095279206,0.1186823891356144,0.558316396582075,61.71729279497554,-0.03576793678090695
1403637195638319104,50.004006,271.565627264688,10.828176041666667,0.1144109166666666,-5.663340375,0.1382300767579508,0.0418879020478639,0.0558505360638185,0.46220371859908105,61.65215105499151,-0.08530190090066725
1403637195888318976,49.975156,278.76889727974924,6.799277333333333,0.024516625,-3.211677875,-0.0139626340159546,-0.0055850536063818,-0.1654572130890624,0.49294434565286216,61.65287144232687,-0.04047592124362609
1403637196138319104,50.288678,217.74472637270344,9.038462416666666,0.0735498749999999,-3.4323274999999995,-0.0774926187885482,0.2946115777366427,-0.2359685148696333,0.49399821550869016,60.92757100049986,-0.024403707117571116
1403637196388318976,49.79682,312.4665557585871,5.941195458333333,0.0898942916666666,-2.69682875,-0.0474729556542457,0.0949459113084915,0.007679448708775,3.1908558730484593,62.700286341333744,0.4991206036830036
1403637196638319104,60.643911,308.9070435752579,8.719746291666667,-0.3023717083333333,-2.0593965,0.028623399732707,0.0146607657167523,0.2345722514680378,0.9262483839157765,62.0465318209622,-0.34093194614948175
1403637196888318976,61.988593,283.6242578209656,9.005773583333333,-0.3350605416666666,-3.023717083333333,-0.0321140582366956,0.1075122819228507,0.1500983156715123,0.8482278425860154,60.1424018857158,-0.026264968350169227
1403637197138319104,50.879955,250.02493001706563,8.172208333333334,0.0653776666666666,-4.453853541666667,0.3469714552964727,-0.1780235837034216,0.247138622082397,8.81250745631134,51.21330881119164,-1.9327812308337116
1403637197388318976,50.40145,207.8485286189322,10.83634825,-0.4086104166666666,-5.213868916666666,0.6569419304506656,-0.1996656664281513,-0.0418879020478639,9.68417824582633,41.833181855923144,-0.8710676909072674
1403637197638319104,38.92374,241.8024658534381,7.0689602083333325,1.1195925416666666,-2.909306166666666,0.8775515479027488,0.0949459113084915,-0.3623303527140228,0.9676020307358834,39.934157518738125,-0.12119038060112786
1403637197888318976,50.933599,346.9388851025586,11.007964625,0.4739880833333333,-4.16782625,0.7518878417591571,0.1354375499547599,-0.1745329251994329,4.438563631936339,40.90345919580409,0.0940563537413226
1403637198138319104,32.442093,396.5286673420474,9.80665,0.0817220833333333,-3.293399958333333,0.5543165704333991,0.0593411945678072,-0.1284562329467826,3.1654121378587226,40.72201670856037,0.01496910685965247
1403637198388318976,37.933588,373.2153250992575,8.850501625,0.4249548333333333,-3.9880376666666666,0.382576172037157,0.0928515162060983,-0.2415535684760151,5.554335223457976,37.73374267458539,-2.1834846550353504
1403637198638319104,50.082922,516.646991238003,6.1700172916666665,0.5066769166666666,-1.6344416666666666,0.046774823953448,0.0893608577021096,-0.025830872929516,5.12255494940338,35.28597829417227,-1.082633079874519
1403637198888318976,49.845457,464.7943255742946,10.109021708333332,0.5475379583333333,-4.094276375,-0.0111701072127637,0.2282890661608583,0.249931148885588,4.623464960371888,29.083649151336882,-1.0971076332771155
1403637199138319104,58.428764,487.14581670657225,9.569655958333334,0.3595771666666666,-3.751043625,0.2520255439879811,-0.1130973355292325,0.0607374579694026,4.940470628072637,25.547533529219653,0.1661926649965899
1403637199388318976,51.839113,489.4349454174212,10.419565625,-0.2615106666666666,-3.636632708333333,0.5410520681182421,0.0656243798749867,0.0125663706143591,4.240060816150457,24.180142825054265,-0.4074899301594641
1403637199638319104,44.462442,489.49712123990025,9.112012291666666,-0.1797885833333333,-4.274064958333334,0.6387905062299246,0.0970403064108847,0.1019272283164688,2.761784898644512,22.30195321796686,-0.2749521386534646
1403637199888318976,50.292969,482.83773138706033,9.7085835,-0.2369940416666666,-3.67749375,0.8649851772883896,0.3735004599267865,0.333008821280518,3.2235968902822383,21.774101376757326,0.19606754742463295
1403637200138319104,50.993442,663.4281384338052,10.591182,1.0215260416666667,-5.254729958333334,0.7763224512870777,-0.0712094334813686,-0.0432841654494593,6.340224654914098,24.04788862922251,0.9501789007903341
1403637200388318976,49.559832,478.1312902217412,9.56148375,0.2533384583333333,-4.976874874999999,0.3295181627765294,-0.6723008278682158,-0.2115339053417127,6.1874416107992065,29.79915944561271,-0.6459836326458692
1403637200638319104,49.571514,708.3395274146491,10.182571583333331,1.3320699583333333,-3.3015721666666664,0.0691150383789754,-0.208043246837724,0.2115339053417127,3.9101586219856355,34.03885803539366,1.1901278671416335
1403637200888318976,49.834967,1184.2817773580484,9.487933875,0.24516625,-3.57942725,-0.2052507200345331,0.0635299847725936,0.0886627260013119,3.863439626912022,39.85594676804973,1.1104968326039355
1403637201138319104,50.094128,1225.9714844560413,9.36535075,0.6456044583333332,-2.8439285,-0.2220058808536787,-0.0223402144255274,0.0474729556542457,1.843474894137995,44.300882606132,1.263325874290075
1403637201388318976,70.758343,795.3014428205919,7.714564666666666,-0.24516625,-2.655967708333333,-0.1933824811209717,-0.2401573050744197,0.5654866776461628,7.322467942684365,51.632242057240994,1.5659111878553844
1403637201638319104,61.327696,1005.4340379240862,9.340834125,0.7273265416666667,-3.2525389166666665,-0.153588974175501,0.0314159265358979,0.3371976114853044,4.583442236506185,57.25108846406026,0.5265042540043225
1403637201888318976,59.797525,1140.8540298150997,10.811831625,0.2369940416666666,-3.693838166666666,-0.0942477796076938,0.0670206432765822,0.007679448708775,2.8440149399839716,59.20145617706927,0.3206681742575199
1403637202138319104,50.210476,579.5073496839581,9.994610791666668,0.4739880833333333,-3.857282333333333,-0.0104719755119659,-0.3714060648243933,0.0321140582366956,3.1168458460220174,57.88797353632974,-0.24295614308322655
1403637202388318976,38.778067,705.6743025026927,7.763597916666666,0.1634441666666666,-2.9011339583333333,-0.1417207352619395,-0.0977384381116824,-0.2485348854839925,2.090189017678493,56.85818318806001,-0.45188923696266414
1403637202638319104,50.20523,873.5619842917654,9.594172583333334,0.0326888333333333,-3.67749375,-0.0139626340159546,0.2178170906488923,-0.0167551608191455,1.1137003144965372,55.511708429820864,0.11576246584375127
1403637202888318976,65.415144,955.9508897802074,9.210078791666666,-0.3759215833333333,-3.3506054166666663,-0.0642281164733913,0.0586430628670094,-0.0998328332140756,0.7945639224662848,54.85612604918172,-0.41400554139854506
1403637203138319104,60.270787,996.0566119948654,8.065969625,-0.4903325,-3.391466458333333,-0.0300196631343024,0.028623399732707,-0.0279252680319092,2.006125588627124,52.101139733769585,-0.5707514460554535
1403637203388318976,49.809933,937.2522121411135,7.918869874999999,0.4086104166666666,-2.982856041666666,-0.0523598775598298,0.0593411945678072,0.0272271363311115,1.6888413041792667,49.66568991554985,-0.43394035194263125
1403637203638319104,54.396391,597.1341849913971,10.231604833333332,-1.32389775,-3.906315583333333,0.0097738438111682,0.0446804288510548,0.1096066770252439,1.2150252749078863,47.82422721053638,-0.5171675724173355
1403637203888318976,50.007582,709.401490479406,7.79628675,0.318716125,-4.004382083333333,-0.0418879020478639,-0.0265290046303138,0.093549647906896,1.4866565025944158,45.861726938708436,-0.32662534651777264
1403637204138319104,61.011553,550.030148650093,9.765788958333331,0.0735498749999999,-4.445681333333333,-0.0167551608191455,0.0565486677646162,0.0516617458590321,1.491325265562105,44.02477399692228,-0.22770690793142734
1403637204388318976,55.827141,445.1461205666638,10.117193916666666,-1.005181625,-3.718354791666666,0.0055850536063818,0.1424188669627373,0.1117010721276371,1.1123806075945615,42.864315789770124,-0.26537874181941135
1403637204638319104,39.379835,508.3324535674077,8.499096666666667,-0.5720545833333333,-2.803067458333333,-0.0712094334813686,-0.0663225115757845,0.0383972435438752,1.0472681641767556,42.069805536289664,-0.09651872291335195
1403637204888318976,49.197436,417.71188596364055,10.027299625,-1.054214875,-3.751043625,-0.0370009801422797,-0.1347394182539622,0.1382300767579508,0.8898743487925324,41.41107468954024,-0.21969981376788894
1403637205138319104,50.355911,418.24621850225526,9.798477791666668,0.0408610416666666,-4.347614833333333,-0.0209439510239319,0.0328121899374933,0.0356047167406843,1.1026682345726124,40.5158579317673,-0.13638345344914882
1403637205388318976,49.751997,367.6149909692162,9.283628666666663,0.2124774166666666,-4.208687291666666,0.1242674427419962,0.0349065850398865,-0.0418879020478639,0.24636029896404096,40.51471424886781,0.014239141626397611
1403637205638319104,61.330557,447.302581197849,9.1201845,0.24516625,-3.2280222916666665,0.0788888821901436,0.0886627260013119,0.0670206432765822,0.48334059258049367,41.13463597696368,0.17232607701493663
1403637205888318976,65.067768,505.5550192743503,8.564474333333333,-0.2288218333333333,-1.5363751666666667,0.0034906585039886,0.057246799465414,0.0425860337486616,0.4117325388835942,41.719949956202065,0.0926471970828402
1403637206138319104,61.042547,477.7036539405847,10.24794925,0.3105439166666667,-3.0564059166666664,0.0551524043630208,0.0900589894029074,0.228987197861656,0.46699991711157346,42.32412197841431,0.22464324595814134
1403637206388318976,49.57819,525.9977184216717,10.141710541666669,-0.2369940416666666,-3.0564059166666664,-0.0279252680319092,0.0614355896702004,0.1207767842380075,0.673894404070418,43.358874804427494,0.2677406958851378
1403637206638319104,39.255619,517.5654232278923,8.499096666666667,0.4494714583333333,-2.3372515833333334,-0.0837758040957278,0.0949459113084915,0.0027925268031909,1.1456443231864468,43.17598439220662,0.050652465532884605
1403637206888318976,49.936056,582.9064796471624,8.9240515,-0.5965712083333333,-4.192342875,0.0006981317007977,0.0118682389135614,0.0237364778271228,0.8126921203285056,43.06305066327092,-0.004426683213935689
1403637207138319104,50.333023,588.2762772233805,6.979065916666666,0.7109821249999999,-2.7213453750000003,0.0090757121103705,0.0104719755119659,0.1089085453244461,0.5151936739784011,43.64640929418658,0.07425510911613031
1403637207388318976,49.857617,596.6389373466998,6.9300326666666665,0.0572054583333333,-2.0675687083333334,-0.0446804288510548,0.0195476876223364,0.0733038285837618,1.088337836654587,43.689248513615134,0.03489103932354709
1403637207638319104,50.453425,319.29190756285925,8.956740333333332,0.5148491249999999,-3.4486719166666666,0.0844739357965255,-0.15079644737231,0.3218387140677544,0.5941411202376905,43.61266579614487,0.03773446987415241
1403637207888318976,60.919284,400.7441573338459,11.71894675,0.024516625,-3.407810875,-0.0460766922526503,0.1103048087260416,-0.0251327412287183,0.6076645809483707,44.188132592154474,0.20885092315992893
1403637208138319104,49.7334,482.956387268768,9.643205833333331,0.2941994999999999,-2.8357562916666668,-0.0404916386462684,-0.0977384381116824,0.0195476876223364,1.8803255079677659,45.820974244725434,0.25783507622154644
1403637208388318976,49.821138,506.7359379945117,9.406211791666664,0.0980665,-1.9776744166666664,-0.0328121899374933,0.0293215314335047,0.0949459113084915,0.9735453626221444,45.34631800149438,-0.027829033996830788
1403637208638319104,60.291529,526.197570874339,8.523613291666665,-0.0898942916666666,-2.3454237916666667,-0.0670206432765822,-0.0013962634015954,0.0209439510239319,0.8444638244423655,46.38269734495911,0.09330601441561726
1403637208888318976,53.570509,487.9938162231831,8.7279185,-0.220649625,-3.857282333333333,-0.0509636141582344,-0.0809832772925368,-0.0481710873550434,0.576317584814,47.146637032803156,0.15543218218087418
1403637209138319104,61.43403,422.0518698304472,10.877209291666668,-0.44129925,-3.3506054166666663,0.1919862177193762,-0.0195476876223364,0.0914552528045028,0.5771909916729406,47.56732795732744,0.0297178547462309
1403637209388318976,60.604334,292.6512026715742,10.501287708333331,0.6292600416666666,-3.0564059166666664,0.2841396022246769,-0.1815142422074102,0.0809832772925368,0.39879876475819326,47.874453858639306,0.06999775819063103
1403637209638319104,50.122976,336.684922855658,9.487933875,-0.0817220833333333,-5.025908124999999,0.1172861257340189,-0.2164208272472968,0.0237364778271228,1.3495699830842594,49.41310516438579,0.15550151242473476
1403637209888318976,39.372682,565.7276623005268,7.837147791666666,-0.0163444166666666,-3.636632708333333,0.0279252680319092,-0.1277581012459849,0.1082104136236484,0.5562755718305407,49.32210275841139,-0.1515024742057065
1403637210138319104,50.0381,470.3305521984146,8.948568125,0.5475379583333333,-3.2770555416666665,0.0062831853071795,-0.1675516081914556,0.1103048087260416,0.6420793913926544,49.58813857364443,0.0014156886458494
1403637210388318976,50.869227,762.6337541839522,11.056997875,0.0735498749999999,-3.718354791666666,-0.0111701072127637,-0.0621337213709981,0.0823795406941323,1.019041320409347,49.07590214059617,-0.1077485340172828
1403637210638319104,50.349712,606.7447177330788,8.801468374999999,-0.0898942916666666,-3.317916583333333,0.0167551608191455,0.2241002759560719,0.114493598930828,0.5299004936503111,48.83724870874248,0.0397244074620815
1403637210888318976,61.478615,561.6550019323657,10.256121458333332,0.4331270416666666,-2.1002575416666667,0.140324471860344,0.3218387140677544,0.3651228795172137,0.8731553657451276,48.74599792228486,-0.14517543419643886
1403637211138319104,65.579891,762.542670987215,10.484943291666664,0.2778550833333333,-3.669321541666666,-0.1417207352619395,0.2520255439879811,-0.210835773640915,0.719278686958113,48.22327634834932,-0.04040544698875692
1403637211388318976,62.762976,796.6621831813045,9.389867375,0.392266,-2.5905900416666663,-0.0886627260013119,0.2422517001768129,-0.0188495559215387,0.8532480186908091,47.78568099156607,0.5505603168172541
1403637211638319104,50.154448,849.6893674580473,10.779142791666663,-0.2369940416666666,-3.1299557916666663,-0.0069813170079773,-0.0956440430092892,0.1158898623324234,0.9446675606890201,46.84451493840166,-0.6030092966473575
1403637211888318976,49.998998,777.1792747007967,11.612708041666664,-0.5475379583333333,-4.797086291666667,-0.0244346095279206,-0.0740019602845595,0.0216420827247296,1.514910429781795,46.04152027511958,0.15634319558171939
1403637212138319104,49.845934,420.4451332257991,8.989429166666666,0.367749375,-4.772569666666667,-0.1033234917180643,0.3972369377539094,-0.0411897703470661,1.9289157319402777,46.491832716019324,0.07811397695800082
1403637212388318976,49.824476,726.2443565934768,9.234595416666666,-0.220649625,-5.401829708333333,-0.0879645943005142,0.1284562329467826,0.0474729556542457,1.5116402332983438,45.5670974670488,0.12110098360011534
1403637212638319104,66.114902,582.9018289753907,10.223432625,-1.4464808749999998,-4.486542375,-0.0174532925199432,-0.4049163864626844,0.0872664625997164,3.598476923135023,42.8175920370167,-0.6833475201378079
1403637212888318976,37.647724,733.2085613009466,9.880199875,0.0980665,-3.832765708333333,0.0069813170079773,0.0342084533390888,0.0844739357965255,3.014671880032191,40.86271059634047,0.18497677374146804
1403637213138319104,34.809113,735.5666468962006,7.060788,0.6782932916666666,-2.7376897916666665,0.0621337213709981,0.0195476876223364,0.1200786525372098,3.6872795641202987,38.92878690487752,-0.7449226450750643
1403637213388318976,65.066576,728.0867951692869,9.291800875,0.2124774166666666,-3.963521041666666,0.0349065850398865,0.0586430628670094,0.124965574442794,4.33321898068695,36.75128819105476,-0.6845479038820415
1403637213638319104,50.146818,701.1081268114372,7.2487487916666655,0.5066769166666666,-4.486542375,-0.0837758040957278,-0.0747000919853573,-0.1766273203018261,0.873128592948352,38.951789264081235,0.06365955541645008
1403637213888318976,49.484253,754.2082926478262,9.152873333333332,-0.1797885833333333,-4.960530458333333,0.0146607657167523,-0.054454272662223,0.0516617458590321,2.3876237160600207,42.66525606227049,0.09018273637266105
1403637214138319104,50.040722,460.32807459434304,9.553311541666666,-0.6456044583333332,-3.260711125,0.2799508120198904,0.1870992958137921,0.2254965393576673,1.2372370597309106,44.621243248292394,0.28825721348827216
1403637214388318976,50.040722,424.7722823170605,9.112012291666666,-0.3840937916666667,-4.339442625,0.3979350694547071,0.1480039205691191,-0.3008947630438224,1.9232741522201564,46.18851557044466,0.9454682967596142
1403637214638319104,60.495615,495.306583104707,11.0815145,0.3023717083333333,-4.0615875416666665,0.3316125578789226,0.1933824811209717,-0.2569124658935653,2.0846215847228846,50.55181141449282,0.8795960603614361
1403637214888318976,50.441981,604.3783346094503,9.945577541666664,1.0950759166666666,-2.827584083333333,0.1347394182539622,0.1235693110411985,0.0216420827247296,4.606786445687398,50.17925607951052,-0.798772872370229
1403637215138319104,58.048725,578.8775117212845,8.695229666666666,0.1797885833333333,-3.3996386666666667,0.0146607657167523,0.2317797246648469,0.0872664625997164,3.361782020955343,50.664945862147505,0.26315763594389097
1403637215388318976,50.651551,457.9763304849816,10.288810291666666,-0.4903325,-4.045243125,0.3204424506661589,0.1689478715930511,0.364424747816416,2.1273921494934944,53.844623300519466,0.39664525195593825
1403637215638319104,50.324678,398.666358146516,9.75761675,0.318716125,-3.489532958333333,0.5501277802286126,-0.1151917306316257,-0.0439822971502571,2.524290820592654,55.104721229846106,0.28992080269868836
1403637215888318976,50.216913,359.4069480199177,9.635033625,0.5720545833333333,-3.7673880416666665,0.5201081170943103,-0.0921533845053006,0.025830872929516,2.0594835989217763,56.782614048663824,0.2698335896984929
1403637216138319104,57.849884,358.5095973182695,8.77695175,0.63743225,-2.729517583333333,0.4475024202113461,0.0628318530717958,0.1410226035611418,4.451236195134438,58.08310321939514,0.14909218207084507
1403637216388318976,42.27829,414.2561042714648,9.978266375,0.4004382083333333,-2.868445125,0.0900589894029074,0.1333431548523667,0.0963421747100869,1.2495610530706518,58.39521900256132,-0.03904183640248249
1403637216638319104,57.636738,497.1554927053317,8.572646541666666,-0.3514049583333333,-2.3862848333333333,-0.007679448708775,0.1850049007113989,0.1919862177193762,2.7473542307488543,58.06321496182765,-0.09134536555893646
1403637216888318976,57.40714,624.7141856361943,10.599354208333333,0.0326888333333333,-3.5957716666666664,-0.0949459113084915,0.0844739357965255,0.0132645023151569,1.8206398740557947,57.2662224069167,-0.28341110092732436
1403637217138319104,54.817677,519.4291678762258,9.953749749999998,0.0326888333333333,-3.391466458333333,0.0251327412287183,-0.0551524043630208,0.3741985916275842,1.4398197442137284,55.250651571956276,-0.2550039544674263
1403637217388318976,48.692703,626.5587509512088,9.226423208333332,0.6701210833333332,-2.4189736666666666,-0.0404916386462684,-0.0146607657167523,0.1919862177193762,3.1497504468821726,54.839630650277485,-0.032785720045154676
1403637217638319104,48.809529,499.0371241198363,10.721937333333331,-0.6946377083333333,-2.329079375,0.1026253600172665,0.1089085453244461,-0.4181808887778414,2.9331458403660604,54.817894241335615,0.02265558959744851
1403637217888318976,41.903496,360.7301317570916,8.866846041666665,0.0408610416666666,-4.208687291666666,0.403520123061089,-0.143116998663535,-0.2345722514680378,1.1388746368455582,53.50699657849416,-0.40865019294020755
1403637218138319104,50.787926,413.4521885431943,8.842329416666665,0.392266,-3.669321541666666,0.2282890661608583,-0.1263618378443894,-0.0314159265358979,1.823083785362208,49.12075549836683,-1.1766617798096846
1403637218388318976,57.038068,447.4288324533584,8.082314041666667,0.8907707083333333,-3.546738416666667,0.0356047167406843,0.0293215314335047,0.0530580092606276,1.9499185070781262,44.44290665621869,-0.6934797841376295
1403637218638319104,49.935818,398.70939317181256,9.56148375,0.171616375,-2.2473572916666664,-0.028623399732707,0.0111701072127637,0.0963421747100869,0.7390893764213641,41.480893042314,0.3385811180835603
1403637218888318976,42.640209,435.24162271232063,8.588990958333333,0.416782625,-3.2035056666666666,-0.0823795406941323,0.0376991118430775,-0.1110029404268393,1.7259689225024717,39.61150012052572,-0.7931049513429187
1403637219138319104,52.128314,644.2846495891199,10.133538333333334,1.2912089166666665,-2.30456275,-0.0167551608191455,0.0565486677646162,0.0321140582366956,1.7500099863980756,36.63824661635144,-0.29291262902282256
1403637219388318976,55.272818,615.2596797834243,11.089686708333334,-0.5066769166666666,-2.4189736666666666,0.0342084533390888,-0.064926248174189,0.1689478715930511,2.7440506403851703,32.75216308413739,-0.9254964570029998
1403637219638319104,44.449806,596.9213421935407,8.057797416666666,-0.34323275,-2.165635208333333,-0.0300196631343024,-0.189891822616983,0.0523598775598298,5.444398014189622,28.255536110483725,0.8645803177331075
1403637219888318976,60.115099,783.5218396440941,11.833357666666666,0.8662540833333333,-2.018535458333333,0.0013962634015954,0.0516617458590321,0.1836086373098034,9.53841128126461,38.30748476427479,1.7624906038131343
1403637220138319104,50.01998,864.7440564270538,9.863855458333331,-0.0408610416666666,-3.4813607499999994,0.0565486677646162,-0.0321140582366956,0.1277581012459849,4.095839522686099,44.06156803994249,1.4810033622572618
1403637220388318976,60.858965,719.6660698330049,9.095667875,1.3402421666666664,-2.8357562916666668,0.0621337213709981,0.2541199390903744,0.317649923862968,1.8298737144686203,48.49576068136142,2.5097531269421367
1403637220638319104,34.327746,938.7625596120156,7.959730916666666,-0.04903325,-2.3699404166666667,0.0,-0.0244346095279206,0.0893608577021096,7.485766165764943,58.5862236761849,1.685242643424857
1403637220888318976,38.851261,1139.470633268896,9.308145291666667,-0.0653776666666666,-2.1983240416666665,-0.0502654824574366,0.0279252680319092,0.0307177948351002,8.959605560138558,57.37255814795943,-3.728771888628131
1403637221138319104,50.71187,1098.0380960574596,9.054806833333332,0.1470997499999999,-2.974683833333333,-0.257610597594363,-0.1047197551196597,0.1361356816555577,1.5167468419424281,61.57493300221726,0.2104028365344064
1403637221388318976,48.946142,1780.8481621981275,11.408402833333332,-0.0735498749999999,-3.751043625,-0.2031563249321399,0.0663225115757845,0.2324778563656447,3.553705145196604,60.78119136116405,0.3244983743060956
1403637221638319104,67.122459,1804.3533142684732,9.095667875,-0.04903325,-3.268883333333333,-0.1263618378443894,0.0139626340159546,0.1375319450571531,6.219022751739108,58.93017437893185,-1.2146314184868459
1403637221888318976,48.785687,1433.5143592357856,9.046634625,0.0653776666666666,-4.208687291666666,-0.2094395102393195,-0.0404916386462684,0.1870992958137921,3.5684180898928712,58.54374648289318,-0.2722471989459194
1403637222138319104,61.203241,1115.6017099590997,9.26728425,0.196133,-3.92266,-0.5047492196767601,0.08307767239493,0.1864011641129944,1.6572691661226264,58.650670398145444,0.20102593648486788
1403637222388318976,62.931538,2268.43634603748,10.550320958333334,-0.0653776666666666,-2.181979625,-0.2562143341927675,0.3427826650916863,0.1696460032938488,1.0554659273638587,58.94682149139605,-0.1530560646930894
1403637222638319104,51.083565,1693.235419269978,8.97308475,-0.465815875,-3.366949833333333,-0.1103048087260416,0.0153588974175501,-0.0795870138909414,1.5195571928564133,58.675386969148406,-0.05709384822767305
1403637222888318976,49.320221,1156.1480855447517,9.610517,0.024516625,-3.857282333333333,0.0146607657167523,-0.2485348854839925,0.0216420827247296,1.4743622272487131,59.3172693750257,0.5003778854531475
1403637223138319104,48.565149,2593.646169615186,10.2969825,-0.0081722083333333,-4.453853541666667,0.0747000919853573,0.0691150383789754,0.0411897703470661,2.0441105851326515,59.26983995502502,-0.21495693759756307
1403637223388318976,50.350666,1352.0225849578612,10.509459916666668,0.0081722083333333,-4.486542375,0.0628318530717958,0.1619665545850737,0.0516617458590321,1.9369112960234012,59.22447290473395,-0.07904928348948204
1403637223638319104,49.441815,1687.6142592742533,7.984247541666667,0.0163444166666666,-2.606934458333333,0.0062831853071795,0.0020943951023931,0.0900589894029074,4.200842372690952,61.35175746093991,-0.12976116165315688
1403637223888318976,69.994688,2165.0561126317552,8.817812791666666,0.465815875,-4.429336916666666,0.036302848441482,0.0760963553869527,0.1054178868204575,1.8912407299050589,62.62767435088139,0.13174572370326842
1403637224138319104,38.59973,2701.87649860781,8.662540833333333,0.6047434166666666,-3.4323274999999995,-0.0027925268031909,0.0244346095279206,0.0370009801422797,0.7932039293142672,62.930082396044796,-0.07268000236894068
1403637224388318976,44.553042,2105.2354414959186,7.036271375,0.5475379583333333,-1.8796079166666664,-0.075398223686155,0.0223402144255274,-0.0614355896702004,0.30168767572798516,62.955883647231445,0.1253592600977882
1403637224638319104,51.006317,2632.2638347024586,11.465608291666666,0.367749375,-4.617297708333333,0.0586430628670094,-0.018151424220741,0.2401573050744197,0.3476369785853545,63.22872126383206,0.018538995898445876
1403637224888318976,50.490856,2547.8668486783167,8.703401874999999,1.201314625,-2.827584083333333,-0.057246799465414,0.1591740277818828,-0.1096066770252439,0.9531334785259927,63.09823398719596,-0.03773868331054331
1403637225138319104,35.835505,2699.656268510705,8.139519499999999,-0.0817220833333333,-2.6641399166666666,-0.0041887902047863,0.007679448708775,0.0342084533390888,1.0934712538318854,62.51348266745374,0.09271445626102803
1403637225388318976,64.931154,2660.2025627342223,8.597163166666666,0.4331270416666666,-3.97169325,0.0530580092606276,0.1082104136236484,0.036302848441482,0.9525692180171494,62.76877138032396,0.23869276687302943
1403637225638319104,50.043344,2248.025285781945,9.504278291666663,-0.2533384583333333,-3.08909475,0.0125663706143591,-0.1850049007113989,0.1075122819228507,0.42322167720192244,62.94123824491079,-0.2219543193243041
1403637225888318976,61.744213,1935.864416583082,9.36535075,0.4086104166666666,-3.4731885416666666,0.0439822971502571,0.1340412865531645,0.0642281164733913,1.1926635576484177,62.63679102885737,-0.243779450971509
1403637226138319104,49.833775,1285.3703468268568,7.444881791666666,-0.196133,-3.1299557916666663,-0.0006981317007977,0.1549852375770964,0.0795870138909414,1.0410255296129884,63.21408800127082,0.3670634051696524
1403637226388318976,54.312468,1961.1029074063676,9.700411291666663,0.3350605416666666,-3.530394,-0.0167551608191455,-0.2555162024919699,0.0439822971502571,1.2245037723703653,64.96804130595913,0.45874425760071347
1403637226638319104,49.693584,2639.03708998042,9.16921775,0.1634441666666666,-3.554910625,0.0097738438111682,-0.1291543646475804,0.1375319450571531,0.2815192749154438,65.82477130528794,0.19323642338594027
1403637226888318976,39.836645,1631.9208358924357,8.368341333333333,0.4249548333333333,-2.3699404166666667,0.0446804288510548,0.1158898623324234,0.1940806128217694,1.2986694963182353,67.84151929393202,0.5240734823503885
1403637227138319104,50.237894,1478.2732177859557,8.564474333333333,0.0817220833333333,-2.729517583333333,0.0279252680319092,0.0970403064108847,0.2520255439879811,0.5608311757988931,68.75327727911541,0.3904975846607357
1403637227388318976,44.737339,2875.094310959405,8.597163166666666,0.171616375,-4.715364208333333,-0.0816814089933346,-0.0844739357965255,-0.0760963553869527,0.5183162589096503,69.46794709160788,-0.0765664364429881
1403637227638319104,49.853325,2708.6509328519514,8.319308083333333,0.0980665,-1.8060580416666667,-0.0244346095279206,-0.0139626340159546,0.1891936909161853,1.829338008487233,69.35736319114405,-0.01078384432874202
1403637227888318976,49.703359,2145.206591970017,8.294791458333332,1.005181625,-3.7919046666666665,-0.0781907504893459,0.1954768762233649,-0.0698131700797731,0.4698688219116176,69.18114280867921,0.1462347182631163
1403637228138319104,50.14658,2695.0997010318006,8.033280791666666,-0.6946377083333333,-3.669321541666666,-0.0069813170079773,0.0677187749773799,0.0390953752446729,0.2209166676221919,68.97666029397433,0.06179917762639775
1403637228388318976,49.669265,2738.723817862646,8.638024208333333,-0.0653776666666666,-3.2443667083333327,-0.0055850536063818,-0.0279252680319092,0.0865683308989187,0.26804049979185357,68.86660326633263,0.04396420730438422
1403637228638319104,55.218935,2492.693949451844,8.5317855,0.1470997499999999,-3.9390044166666662,0.028623399732707,0.0474729556542457,0.0321140582366956,0.43387174231521736,69.3712820730289,0.1756840270989386
1403637228888318976,60.178518,2559.3542612116307,7.50208725,0.6047434166666666,-2.582417833333333,0.0013962634015954,-0.064926248174189,0.1026253600172665,1.0567356890097155,70.46868348306425,0.2744015391119632
1403637229138319104,65.704346,2462.956036476046,7.019926958333333,0.3514049583333333,-2.79489525,-0.0167551608191455,0.0977384381116824,-0.0607374579694026,0.4237458494046945,70.61193122342362,0.03366198562723355
1403637229388318976,51.398992,1396.6912295221996,8.858673833333333,-0.0735498749999999,-3.661149333333333,-0.1494001839707146,-0.2457423586808016,0.4454080251089529,0.7603487855002273,70.50967510052183,-0.1859142867978676
1403637229638319104,49.602747,953.7219183505875,8.025108583333333,-0.83356525,-2.966511625,-0.4726351614400644,-0.1242674427419962,0.5019566928735693,1.852430614844952,70.72196617260128,0.10110700097239089
1403637229888318976,50.27914,627.8393571222579,8.572646541666666,-0.171616375,-3.0400615,-0.728849495632832,0.2757620218151041,0.0516617458590321,0.914158309590981,71.02822144729359,-0.12186663309240942
1403637230138319104,60.369253,802.1496021419531,9.013945791666666,0.1062387083333333,-2.729517583333333,-0.5033529562751646,-0.1089085453244461,0.3986332011555048,0.505659295689167,70.57476713112897,-0.11281524789541209
1403637230388318976,50.037146,2121.485807882578,10.370532375,0.3268883333333333,-4.617297708333333,-0.208043246837724,0.1640609496874669,0.1884955592153876,0.046830737496787705,70.46670739074004,0.02506069194510019
1403637230638319104,40.307045,1899.316145359813,9.880199875,0.0081722083333333,-3.2525389166666665,-0.2275909344600605,0.1089085453244461,0.2429498318776106,2.844708106657894,71.03191680758007,0.03789615657997558
1403637230888318976,62.078714,838.7144958059461,8.139519499999999,0.5230213333333333,-2.3372515833333334,-0.5431464632206354,-0.2352703831688356,0.3686135380212024,0.7059833481218852,70.60421402428861,-0.06818995233622616
1403637231138319104,60.512305,710.0636453616546,6.52142225,0.8172208333333333,-1.2748645,-0.6904522520889568,0.0188495559215387,0.4677482395344803,1.825531842289509,68.91558897500894,-0.34744603100500626
1403637231388318976,39.237977,666.2148454288123,9.152873333333332,-0.784532,-2.705000958333333,-0.814719694830953,0.1075122819228507,0.4635594493296939,0.4527552563262428,68.50726803115447,0.015351573797403262
1403637231638319104,39.60228,552.556149558501,10.877209291666668,0.4739880833333333,-4.600953291666666,-0.9201375816514104,0.1500983156715123,0.4509930787153347,1.5265878016914949,66.9363654981547,-0.13642934940983764
1403637231888318976,34.484148,491.99241547114406,11.416575041666665,-0.0817220833333333,-4.225031708333333,-0.7030186227033159,-0.1110029404268393,0.2988003679414292,5.486911742158698,61.32889021371495,-1.643165888306207
1403637232138319104,50.034761,470.2412793585133,10.362360166666663,-0.7191543333333333,-5.0013915,-0.543844594921433,0.4279547325890095,0.4314453910929983,4.387683019262305,56.76842191393826,-0.9566755457913629
1403637232388318976,36.849499,483.7928325293232,8.613507583333332,0.4331270416666666,-3.571255041666667,-0.5550147021341968,0.1968731396249603,0.1605702911834783,3.5736007411562256,53.43692751952075,-0.5407682472203774
1403637232638319104,34.466982,473.2611303627356,9.013945791666666,-1.3565865833333333,-4.184170666666667,-0.5340707511102649,-0.2171189589480945,0.4740314248416599,3.297184876365041,51.741406387122346,-0.3206417992182793
1403637232888318976,38.640737,449.4611369404549,9.07115125,0.0653776666666666,-4.208687291666666,-0.4300491276914028,-0.2911209192326541,0.1179842574348166,4.384899882939428,50.13967476725435,-0.3910093557113825
1403637233138319104,50.037623,580.1065879870974,7.567464916666665,0.1879607916666666,-3.08909475,-0.1466076571675237,-0.1870992958137921,-0.018151424220741,4.852337675810838,49.82846559830285,0.04886853877942343
1403637233388318976,48.715591,702.4933198164379,8.164036124999999,0.122583125,-3.097266958333333,0.0097738438111682,-0.0774926187885482,-0.0300196631343024,2.7489100297812206,51.72934559482159,0.3980424700240093
1403637233638319104,50.286055,352.7989084068764,8.768779541666666,-1.2340034583333332,-3.636632708333333,-0.2450442269800038,0.629714794119554,-0.6583381938522611,1.6804763683849862,56.214332577344614,0.8806923294087667
1403637233888318976,39.652825,416.4458456379837,7.3549875,-0.2860272916666666,-3.048233708333333,-0.1633628179866692,0.2534218073895766,-0.2429498318776106,5.815891099446318,62.36307151530377,1.273946081479771
1403637234138319104,33.108235,489.86174557707113,7.453054,0.4004382083333333,-4.3721314583333335,-0.1361356816555577,0.0998328332140756,-0.2059488517353309,6.7362580025172845,67.2220265831472,0.4630815506320829
1403637234388318976,38.802624,329.5749317403394,10.501287708333331,-0.9724927916666666,-4.4129925,0.1661553447898601,0.0167551608191455,0.4558800006209189,2.1637449063700207,65.69884925718635,0.20223279465932364
1403637234638319104,60.579061,272.7608690321227,6.954549291666666,1.1195925416666666,-3.685665958333333,0.4063126498642799,0.1424188669627373,0.2771582852166995,4.36831033331266,66.83044986197261,-0.14439908019018333
1403637234888318976,34.578323,289.4622911982347,8.343824708333333,0.4086104166666666,-2.1983240416666665,0.5787511799613196,0.0216420827247296,0.4244640740850209,0.7100509295002606,65.35239757097332,-0.44885285685714393
1403637235138319104,39.931058,390.183814735733,10.697420708333333,0.3105439166666667,-2.966511625,0.4049163864626844,0.0125663706143591,-0.1626646862858715,0.9942408670864112,64.02553347660135,-0.23304836511957205
1403637235388318976,50.697565,338.48370210681264,11.155064374999998,-0.4249548333333333,-4.184170666666667,0.1947787445225671,-0.4042182547618868,-0.054454272662223,1.1099385053116315,61.80674708330562,-0.321471225255479
1403637235638319104,62.256098,531.572008782755,10.73828175,0.3514049583333333,-3.742871416666666,0.2338741197672401,0.0195476876223364,0.0041887902047863,2.7106304181866294,61.19072038069721,-0.29537867287034913
1403637235888318976,48.191547,388.93655117326,10.991620208333332,-0.5230213333333333,-3.505877375,0.249931148885588,0.268082573106329,-0.4775220833456485,1.2628806525096887,59.559379402284186,-0.648506374177046
1403637236138319104,41.399241,420.1304353185388,10.770970583333334,-0.122583125,-2.7213453750000003,0.4139920985730549,0.0767944870877505,-0.1738347934986352,1.4343430462901965,58.04390242324563,-0.18654720775664657
1403637236388318976,57.936669,359.7685815052688,11.187753208333334,0.5557101666666666,-3.407810875,0.4537856055185256,0.0593411945678072,0.1075122819228507,3.742483862671967,58.03745087818697,-0.31475508579433864
1403637236638319104,50.485611,307.9507238302274,8.580818749999999,-0.4086104166666666,-4.0615875416666665,0.1864011641129944,0.3029891581462156,0.0523598775598298,2.269339227975317,55.854477806733115,-0.7977737412715271
1403637236888318976,49.809933,269.1705017702008,10.476771083333333,0.7436709583333333,-4.1024485833333335,0.3881612256435388,0.4028219913602912,0.2296853295624537,2.1758635863791507,53.16694855833774,-0.416257964195367
1403637237138319104,37.115574,341.8693705470447,9.316317499999998,0.3759215833333333,-2.8439285,0.3239331091701475,0.3490658503988659,0.2701769682087222,0.9908084420893304,47.45448699621389,-0.9405950667066563
1403637237388318976,40.520429,630.7032625269569,8.932223708333334,0.0898942916666666,-4.037070916666667,0.3190461872645634,-0.0481710873550434,0.1731366617978375,4.196708036945278,45.25725214326508,-0.3583693995556132
1403637237638319104,52.396298,609.6426133258925,9.586000375,0.7273265416666667,-4.56009225,0.2073451151369263,-0.0621337213709981,0.4070107815650776,4.135155031059899,42.19324216370845,-0.924812701417089
1403637237888318976,49.405336,981.7777993828902,7.771770125,-0.024516625,-3.955348833333333,-0.1200786525372098,-0.2254965393576673,0.3295181627765294,4.036419991460885,35.73009109356719,-1.3219522206585879
1403637238138319104,50.124884,1127.892766805756,8.196724958333332,1.0378704583333334,-2.680484333333333,-0.3860668305411457,-0.2352703831688356,0.5843362335677015,4.201686518152731,30.156509996753623,-0.7747938099593945
1403637238388318976,41.773319,503.9086907132765,9.16921775,0.1062387083333333,-3.268883333333333,-0.6199409503083859,0.0055850536063818,0.6583381938522611,1.4329740602185965,28.10391878016787,-0.23693651826132012
1403637238638319104,45.285702,126.2855485946742,8.106830666666665,-0.2369940416666666,-2.745862,-0.6157521601035995,-0.3001966313430246,0.4300491276914028,4.979890438829417,26.17389393916612,-0.4142439710191894
1403637238888318976,42.533874,94.73618155127964,10.607526416666667,-0.3350605416666666,-3.930832208333333,-0.3378957431861022,-0.5731661263549379,0.278554548618295,6.585884722064732,23.82999236361342,-0.27721997644150775
1403637239138319104,58.897495,93.7489177795306,10.337843541666668,-0.5802267916666666,-4.16782625,-0.432143522793796,0.3944444109507184,-0.4551818689201211,2.308095977168082,25.869523329817657,0.893445777501455
1403637239388318976,50.192833,102.07042804070817,8.588990958333333,-0.8172208333333333,-3.8245935,-0.3735004599267865,0.2617993877991494,0.1668534764906579,2.014195148362693,31.290637457753657,1.2600101728832769
1403637239638319104,49.598456,99.87387080594596,8.964912541666667,-0.1307553333333333,-3.881798958333333,-0.5815437067645106,0.3260275042725407,0.296705972839036,3.4021482309073585,39.585754770230714,1.5532359499448347
1403637239888318976,52.114248,128.73870787238758,8.981256958333333,0.2860272916666666,-4.16782625,-0.6555456670490701,0.5424483315198376,0.1354375499547599,1.9264159729099783,46.30257457711367,0.9427045302987977
1403637240138319104,52.280665,457.5222800669401,7.028099166666666,-1.6344416666666666,-2.999200458333333,-0.6269222673163632,0.0712094334813686,0.2848377339254746,2.0991163230832584,52.1011504509087,1.2022788441931525
1403637240388318976,49.721002,356.9260886592164,11.334852958333332,-0.5883989999999999,-5.058596958333333,-0.4468042885105484,-0.418879020478639,0.0642281164733913,2.856726843662707,57.70146369801778,1.011253837349713
1403637240638319104,50.261736,491.9271253681084,9.961921958333331,-0.0326888333333333,-3.5957716666666664,-0.0851720674973232,0.0593411945678072,0.0013962634015954,4.658461906732596,60.873360922250164,0.7815013934997737
1403637240888318976,35.446167,317.6454354814651,9.929233125,-0.2124774166666666,-3.072750333333333,-0.0041887902047863,0.4928809807631986,-0.0670206432765822,3.7576823298569706,64.87929882935144,0.6129518270746814
1403637241138319104,63.469171,537.9883657169336,9.201906583333331,0.0898942916666666,-3.18716125,0.08307767239493,-0.1061160185212552,0.0802851455917391,2.229934535696345,69.02518228133557,0.5096830427768992
1403637241388318976,38.724185,387.3344081519584,10.533976541666666,-0.367749375,-3.6448049166666654,-0.0027925268031909,0.0949459113084915,-0.0663225115757845,1.521891078163138,73.32182279771551,1.0419457823200418
1403637241638319104,49.379825,281.2778503959443,7.346815291666666,0.465815875,-1.8060580416666667,-0.0216420827247296,0.2848377339254746,0.0034906585039886,1.158527319137509,77.09705536133647,0.7660674974155484
1403637241888318976,39.04295,290.28570134189914,9.144701125,-0.4739880833333333,-4.429336916666666,0.1186823891356144,0.3239331091701475,0.3714060648243933,3.1319879792576355,79.90882165747695,0.5718264335861107
1403637242138319104,60.821533,321.3638340233765,9.201906583333331,0.83356525,-2.7622064166666664,-0.0635299847725936,0.0216420827247296,-0.1012290966156711,2.1744533442981107,81.36852787900804,0.2976141880938883
1403637242388318976,23.204803,255.89854696172205,8.057797416666666,-0.2124774166666666,-3.1054391666666663,-0.1242674427419962,0.0816814089933346,-0.1563815009786919,0.8565356406037132,82.5338588555314,0.1927348318572939
1403637242638319104,49.886226,203.0755945660416,9.234595416666666,-0.0653776666666666,-2.8439285,0.2715732316103177,0.1026253600172665,0.1082104136236484,0.3441374641007169,83.39531954175322,0.12304427752417268
1403637242888318976,39.023161,197.2543683119825,8.956740333333332,0.661948875,-3.178989041666666,0.3134611336581816,0.1968731396249603,0.132645023151569,1.210097448455878,83.10600354492496,-0.06764089120281369
1403637243138319104,50.289154,235.28907840367836,8.97308475,-0.3105439166666667,-2.819411875,0.0984365698124801,-0.2513274122871834,0.0279252680319092,2.3626425746558395,82.20083312860487,-0.1782084972148965
1403637243388318976,39.243221,274.5212841000818,8.311135875,0.83356525,-3.57942725,-0.0006981317007977,-0.124965574442794,0.2115339053417127,3.780322853921974,81.75798479896197,-0.33356069707195957
1403637243638319104,49.039363,268.3501350869016,9.635033625,0.6047434166666666,-3.546738416666667,0.0356047167406843,-0.2513274122871834,0.2520255439879811,1.2042833268135096,78.64229897213248,-0.5837039278607676
1403637243888318976,60.314179,286.79330106233385,9.577828166666666,0.2533384583333333,-3.710182583333333,0.0425860337486616,-0.1584758960810851,0.2799508120198904,1.040834623808334,75.78276221925782,-0.5693923446036422
1403637244138319104,39.239407,424.1885564495634,10.869037083333334,0.8662540833333333,-3.3015721666666664,-0.0230383461263251,0.1110029404268393,0.0991347015132779,1.4505533391474108,73.65733794120092,-0.244935934361024
1403637244388318976,50.167083,434.2047939979128,11.473780499999998,0.3759215833333333,-3.8082490833333327,0.085870199198121,-0.1228711793404008,0.0209439510239319,2.2195366538768497,71.30704129294035,-0.3805348433660356
1403637244638319104,56.384564,429.4808444487791,8.858673833333333,0.7273265416666667,-3.1299557916666663,0.228987197861656,-0.0390953752446729,-0.2241002759560719,1.1184412664646144,69.7531637411547,0.4835042393593625
1403637244888318976,38.2514,380.7077843060927,6.815621749999999,0.3023717083333333,-1.838746875,0.1577777643802873,0.0342084533390888,0.0055850536063818,1.1834416053288028,67.81515888191679,-0.40953430090897314
1403637245138319104,39.393425,341.90729036939706,7.224232166666667,1.3402421666666664,-3.268883333333333,0.1158898623324234,-0.2296853295624537,0.3316125578789226,1.2461244815920691,65.52026171801513,-0.5805800831494707
1403637245388318976,49.806118,530.8950199512218,9.635033625,0.3514049583333333,-3.4650163333333333,-0.0397935069454707,0.1382300767579508,-0.1417207352619395,2.133771039651673,63.02176225998145,-0.1414880759073256
1403637245638319104,50.542593,399.52055577701947,7.779942333333333,-0.04903325,-2.7131731666666665,0.2624975194999471,-0.0495673507566389,-0.0349065850398865,1.5956035302459828,63.300145829431585,0.18919895175661594
1403637245888318976,39.051295,286.600131690664,10.83634825,-0.2369940416666666,-4.290409374999999,0.6087708430956222,0.3371976114853044,-0.1137954672300302,1.782684815670484,64.28998915843927,-0.15431221072891788
1403637246138319104,48.551559,379.9720656685891,7.428537374999999,0.2288218333333333,-2.3699404166666667,0.8272860654453121,0.0307177948351002,-0.2729694950119131,1.363416675272522,62.5650975160318,-0.36048169619869697
1403637246388318976,50.817013,323.3802310535943,9.929233125,0.3595771666666666,-3.048233708333333,0.8852309966115239,0.260403124397554,-0.4852015320544235,0.9702709793148372,61.691157852193044,0.48928176314820604
1403637246638319104,49.045562,366.884484981508,7.150682291666666,-0.1552719583333333,-2.4843513333333336,0.7672467391767073,0.3406882699892931,-0.3574434308084387,1.0718878934804867,61.94881784123963,0.2828984327618329
1403637246888318976,33.789635,469.59667049854073,9.9047165,-0.4903325,-4.682675375,0.7120943348136864,-0.0083775804095727,-0.0914552528045028,2.1659947587719075,62.468238131478984,0.19757043590929868
1403637247138319104,39.400101,421.1144515909394,9.7085835,-0.2043052083333333,-3.57942725,0.325329372571743,-0.182212373908208,0.1466076571675237,2.339322650434281,63.3721197795164,0.23714102172751694
1403637247388318976,50.223112,325.18291662832195,8.425546791666665,-0.2533384583333333,-2.99102825,0.0,0.6646213791594406,0.0760963553869527,4.130749841866011,64.54005215031395,0.1735903578775151
1403637247638319104,48.365355,655.3436319134743,7.89435325,0.7763597916666666,-1.9776744166666664,0.0984365698124801,0.0774926187885482,-0.2101376419401172,5.360255929465828,57.95890976617062,-1.7610702082211347
1403637247888318976,51.252842,586.5185600162566,9.831166624999998,-0.4494714583333333,-2.7622064166666664,0.3909537524467298,0.1891936909161853,0.0907571211037051,3.7257103777936895,52.481215619777565,-0.29215714598112186
1403637248138319104,38.758516,378.1107094143748,8.785123958333333,0.5311935416666667,-2.705000958333333,0.382576172037157,-0.3120648702565861,0.0628318530717958,2.4174104691040066,51.42100598215487,-0.07555900492901202
1403637248388318976,49.02649,436.1760440833593,7.624670374999999,-0.4004382083333333,-2.4516625,0.15079644737231,0.028623399732707,0.1410226035611418,2.25027191247426,49.35948570795784,-0.564189724279565
1403637248638319104,51.011563,236.89774578615808,9.308145291666667,0.0326888333333333,-3.2361945,-0.0719075651821663,0.025830872929516,-0.0635299847725936,0.7377447886070628,46.18759095318362,-0.6262915353248459
1403637248888318976,38.746595,251.2126274003355,11.310336333333332,0.0735498749999999,-4.862463958333334,-0.0013962634015954,0.0,0.2261946710584651,3.820029362368223,44.39650825046667,-0.5826158057117468
1403637249138319104,38.802863,242.6501670630866,8.539957708333333,0.6782932916666666,-2.1492907916666666,-0.0900589894029074,0.0314159265358979,0.028623399732707,4.25865510122601,40.55007474769633,-1.051189685139505
1403637249388318976,38.308859,247.8970993691686,8.38468575,0.5230213333333333,-3.849110125,0.0097738438111682,0.0376991118430775,0.1682497398922533,6.895253416313288,36.205910228052154,-0.8171203943468868
1403637249638319104,39.435625,255.90872437124392,8.253930416666666,-0.1144109166666666,-1.7978858333333332,-0.0020943951023931,-0.0376991118430775,0.1487020522699168,4.005305074533118,30.32742421072055,-1.449304747584229
1403637249888318976,49.946785,273.5375239056588,9.299973083333333,0.0081722083333333,-2.132946375,0.1605702911834783,0.0279252680319092,-0.0265290046303138,2.782643932691032,23.75522670365401,-1.2359273130252006
1403637250138319104,49.823284,222.82439849648597,8.376513541666666,0.6456044583333332,-3.072750333333333,0.2569124658935653,-0.075398223686155,0.0111701072127637,2.2967306531549796,17.424965985611102,-0.9998761672983676
1403637250388318976,50.506115,270.68338683243144,9.152873333333332,-0.1307553333333333,-3.849110125,0.1731366617978375,-0.0565486677646162,0.1668534764906579,2.899311932504332,12.836141609038041,-0.8520852828951568
1403637250638319104,60.49776,410.0002502266108,12.69961175,1.3157255416666664,-3.8164212916666655,0.0879645943005142,-0.054454272662223,-0.0118682389135614,1.8341688061106163,10.187163221501692,-0.4429406062667187
1403637250888318976,54.273605,876.4704664492549,7.763597916666666,0.9398039583333332,-3.317916583333333,0.0551524043630208,-0.0474729556542457,0.1382300767579508,0.9126913850093631,8.119703366335468,-0.7081206372910547
1403637251138319104,38.355112,779.6574216465211,10.795487208333332,0.2369940416666666,-2.974683833333333,0.1626646862858715,-0.085870199198121,0.1284562329467826,1.431695350870959,7.73341822931283,-0.2264890752571178
1403637251388318976,50.471783,770.8835083969035,7.755425708333333,-0.4086104166666666,-3.4486719166666666,0.1438151303643327,0.0453785605518525,-0.1473057888683213,8.859447425270158,4.429976400577669,1.1671049574438142
1403637251638319104,68.964958,793.7554631694322,9.888372083333332,0.6537766666666667,-3.7673880416666665,0.2485348854839925,0.0921533845053006,-0.0760963553869527,1.741465275084473,7.475821586179982,0.7000694978264139
1403637251888318976,50.004959,930.9153170703996,8.016936375,0.0081722083333333,-3.08909475,0.0551524043630208,0.1277581012459849,-0.1668534764906579,1.4104458150556904,8.074616629514193,0.11225081553394123
1403637252138319104,35.401105,1084.5528197058388,10.068160666666666,0.8253930416666666,-4.151481833333333,0.0495673507566389,0.1061160185212552,0.1256637061435917,1.9608411956118739,7.682258847162293,-0.1729137375130776
1403637252388318976,50.499201,932.4538722639004,7.469398416666666,0.563882375,-2.754034208333333,0.025830872929516,-0.1514945790731078,0.1368338133563554,1.3216960178656214,7.776747696732,0.33635955925975214
1403637252638319104,60.484171,807.1265615971363,7.992419749999999,0.2043052083333333,-2.5660734166666663,0.0146607657167523,-0.2338741197672401,0.1996656664281513,1.4332040127854275,8.51525070585423,0.09277950410374913
1403637252888318976,50.041437,1105.754942512188,10.484943291666664,0.0326888333333333,-2.778550833333333,-0.0733038285837618,0.1752310569002306,-0.0565486677646162,2.297906225866776,10.600997618691496,0.31897458845508453
1403637253138319104,65.539837,1196.4824100928522,9.56148375,-0.196133,-3.4323274999999995,-0.0188495559215387,0.1012290966156711,0.0579449311662117,0.7785562245609043,11.360631072588665,0.4619412707398496
1403637253388318976,61.156273,1183.5932787681618,7.436709583333332,0.2369940416666666,-3.710182583333333,-0.0502654824574366,0.0062831853071795,0.0202458193231342,0.46477400743340735,11.858390543258936,0.09835559354960388
1403637253638319104,31.786442,1196.8359564004218,8.580818749999999,0.24516625,-2.508867958333333,-0.0390953752446729,0.0432841654494593,-0.0656243798749867,0.7834171000308702,11.504275559281961,0.08796077677559921
1403637253888318976,51.046372,1198.9660777022457,8.458235625,0.8825985,-2.8766173333333334,-0.0230383461263251,0.0998328332140756,0.025830872929516,0.30480788352780824,11.401879020106952,0.16302773078819754
1403637254138319104,50.172091,1118.751981279703,9.193734375,-0.2369940416666666,-2.705000958333333,0.1179842574348166,0.0069813170079773,0.0062831853071795,0.8892106603608816,11.608737108010736,0.1922601537315085
1403637254388318976,46.282529,923.1671742534276,7.0689602083333325,0.024516625,-2.6886565416666666,0.1836086373098034,-0.0502654824574366,0.0376991118430775,0.633084641135344,12.694072335796628,0.18748098734583962
1403637254638319104,49.594879,1090.8336887040066,8.891362666666666,-0.3595771666666666,-2.79489525,0.0991347015132779,0.0293215314335047,0.0740019602845595,1.0400249233868115,13.72588540990802,0.08544609465985253
1403637254888318976,49.818755,1212.509910321393,9.062979041666669,-0.4821602916666666,-2.7867230416666664,-0.0027925268031909,0.0041887902047863,0.1054178868204575,0.5219937155096577,14.301247341540208,0.059596806866149876
1403637255138319104,60.459852,1027.3519820883473,8.964912541666667,-0.1389275416666666,-2.2555295,0.153588974175501,0.0160570291183478,-0.0677187749773799,0.714456583361523,15.270419795652407,0.281557747318562
1403637255388318976,65.525055,887.4683753913097,8.237585999999999,-0.0326888333333333,-3.317916583333333,0.2213077491528809,-0.1103048087260416,0.0244346095279206,0.8354220420374391,15.858849119929339,0.18165015348153268
1403637255638319104,60.380698,831.3404455248661,7.649186999999999,-0.024516625,-1.7815414166666663,0.3134611336581816,-0.0223402144255274,-0.0893608577021096,0.6940841680021528,17.29829548570634,0.2615381156494401
1403637255888318976,45.544863,693.975275737616,10.403221208333331,0.3595771666666666,-3.1217835833333334,0.411199571769864,-0.0048869219055841,-0.1256637061435917,1.3543961725697928,18.982087969086013,0.3946687473003081
1403637256138319104,51.566839,658.1256539378587,9.022118,0.9152873333333332,-3.342433208333333,0.1738347934986352,0.1968731396249603,0.025830872929516,1.059182700761149,21.025265945945613,0.2981585542946803
1403637256388318976,50.299168,885.5202380873966,7.510259458333333,-0.4903325,-1.397447625,0.0027925268031909,0.0593411945678072,0.0788888821901436,1.0225128345663572,23.107109399426005,0.24280051608150188
1403637256638319104,60.256004,620.9243858649086,9.912888708333332,-0.4004382083333333,-4.249548333333333,0.0328121899374933,-0.2415535684760151,0.2590068609959585,0.778547600849386,25.042865620930556,0.4481257175350777
1403637256888318976,50.136089,889.9852438374218,7.493915041666666,0.6701210833333332,-3.1217835833333334,0.0321140582366956,0.0328121899374933,0.0104719755119659,0.7380103754432326,27.810905797811447,0.46040504896818746
1403637257138319104,38.72776,829.3759944342715,10.1008495,0.2860272916666666,-2.6151066666666667,0.1731366617978375,0.1452113937659282,-0.0719075651821663,0.8592679509159368,30.64305308615584,0.7641070049253784
1403637257388318976,51.47314,921.1581762608664,9.790305583333332,0.3759215833333333,-3.612116083333333,0.0607374579694026,-0.0593411945678072,0.007679448708775,0.44739293638735145,32.737343095788916,0.12018624090554653
1403637257638319104,49.534083,777.5040064193023,9.103840083333331,-0.9152873333333332,-2.8847895416666667,0.0977384381116824,-0.1466076571675237,0.1473057888683213,0.7136760214518525,35.421741879248344,0.347472777167539
1403637257888318976,50.252438,678.2451277508096,8.507268875,-0.3759215833333333,-4.184170666666667,0.2143264321449036,-0.132645023151569,0.0963421747100869,1.2157520136689284,36.38135723185652,0.0705682106468899
1403637258138319104,49.026728,445.968552892756,8.654368624999998,0.4821602916666666,-4.396648083333333,0.393048147549123,0.1033234917180643,-0.1228711793404008,3.250925853494325,37.22145678881013,0.2038030149644996
1403637258388318976,47.752142,408.8436417621125,9.201906583333331,0.1307553333333333,-2.4108014583333333,0.2317797246648469,0.0781907504893459,0.046774823953448,8.2535858041109,40.98178574069253,0.15547426300592093
1403637258638319104,50.038576,570.2499703127942,10.403221208333331,-1.1441091666666665,-4.045243125,0.0307177948351002,0.1165879940332212,0.1089085453244461,9.479298256478511,43.2121728616838,1.166975489235206
1403637258888318976,50.447464,574.4466293832766,9.152873333333332,0.0572054583333333,-2.312734958333333,-0.0055850536063818,0.0684169066781777,0.1480039205691191,19.633465555461953,56.90658830135851,4.418066486142784
1403637259138319104,46.258688,616.3524307169696,9.487933875,0.6210878333333334,-3.718354791666666,-0.0390953752446729,-0.0139626340159546,0.0942477796076938,10.884536536080603,65.75368135660791,-1.105606244844168
1403637259388318976,38.378001,655.0749443661757,8.025108583333333,0.7109821249999999,-2.132946375,-0.0244346095279206,0.0837758040957278,0.1368338133563554,10.533574195667345,57.531076819988925,0.628005359757978
1403637259638319104,35.103559,884.7626088541949,8.850501625,0.1307553333333333,-2.69682875,-0.0432841654494593,0.0481710873550434,-0.0342084533390888,2.1901684110099024,60.02718998405804,0.19696466305769889
1403637259888318976,50.231695,817.7928752122186,7.428537374999999,0.7028099166666667,-2.7867230416666664,0.0488692190558412,0.1368338133563554,0.1661553447898601,7.990315655926169,59.81306334007248,0.025419086649300482
1403637260138319104,48.760891,730.082128005382,8.981256958333333,0.2124774166666666,-3.38329425,-0.0223402144255274,-0.0537561409614253,-0.0418879020478639,2.8716788922886107,59.01748935566415,-0.2621931702259701
1403637260388318976,50.157547,660.2534257813483,8.433719,0.0898942916666666,-3.0809225416666663,-0.0760963553869527,0.0691150383789754,-0.2122320370425104,3.2743300975033343,56.10803359743068,-0.6607560652834437
1403637260638319104,44.410944,403.4209429866172,10.558493166666668,0.122583125,-2.999200458333333,-0.0230383461263251,-0.2066469834361286,0.1123992038284348,4.717023544406551,51.96065961077792,-0.9108285688279878
1403637260888318976,42.378902,660.1252823027173,10.967103583333332,-0.5802267916666666,-3.9390044166666662,0.0125663706143591,0.124965574442794,0.1242674427419962,3.700025211690693,48.6429300430127,-0.1788930141694891
1403637261138319104,50.4179,309.45367789715993,10.517632125,-0.1307553333333333,-3.612116083333333,-0.0027925268031909,-0.2729694950119131,0.0670206432765822,2.6718389450687363,48.17650974083774,-0.055774213804873796
1403637261388318976,50.461531,508.0384834617583,8.572646541666666,0.4576436666666666,-2.59876225,0.0328121899374933,0.2771582852166995,0.1647590813882647,2.058153399583049,48.336184783708816,-0.07958721998450358
1403637261638319104,45.902014,419.2821138186453,9.112012291666666,0.563882375,-2.5660734166666663,-0.0370009801422797,-0.1989675347273535,0.0160570291183478,1.59396969087995,47.2733512026124,-0.00751546087856525
1403637261888318976,59.688568,562.0641261334715,7.297782041666666,0.318716125,-3.2035056666666666,0.0216420827247296,0.1591740277818828,0.1312487597499735,3.6374294901601165,47.82148696288099,0.4835510686914972
1403637262138319104,49.754382,593.9280943065019,11.138719958333333,0.0898942916666666,-3.8245935,0.0006981317007977,0.0663225115757845,0.15079644737231,2.27134786767978,47.87028152634316,-0.16439100319470867
1403637262388318976,50.749779,199.51460722665055,18.493707458333333,1.4301364583333334,-4.339442625,-0.796568270610212,-0.973893722612836,-0.7044148861049113,4.047739028738487,48.54189101405675,1.3765302195764448
1403637262638319104,46.012878,400.3473013452258,3.505877375,-0.04903325,-0.24516625,-0.0579449311662117,-0.7079055446089001,0.3839724354387525,1.7112260138479403,47.60355204609785,-0.04110222979823419
1403637262888318976,50.672531,709.1216568244063,9.030290208333332,0.8744262916666666,-3.317916583333333,-0.1117010721276371,-0.0425860337486616,0.0788888821901436,0.35813090829640526,47.8815889828858,-0.050084838326498016
1403637263138319104,49.62182,726.8246055307153,9.422556208333331,-0.2288218333333333,-2.4189736666666666,-0.0251327412287183,-0.0034906585039886,-0.007679448708775,0.24698960522261626,48.091307911144575,0.03384856617740439
1403637263388318976,58.671237,742.6963527317296,8.97308475,-0.416782625,-2.680484333333333,0.0104719755119659,0.0251327412287183,0.0740019602845595,0.1285286552525735,48.17003804640519,-0.0018994791672639622
1403637263638319104,61.862469,742.7754806850809,9.545139333333331,-0.465815875,-2.6641399166666666,0.0125663706143591,0.0209439510239319,0.1068141502220529,0.05919528920557128,48.17881165275299,0.0056361952405978855
1403637263888318976,41.944504,744.9574325041613,9.1201845,-0.1634441666666666,-2.7213453750000003,-0.0013962634015954,0.0069813170079773,0.0921533845053006,0.06361279826611388,48.14299561844686,0.0032566178777315713
1403637264138319104,49.710751,744.653007846017,9.487933875,-0.4494714583333333,-2.5415567916666664,-0.0069813170079773,0.0167551608191455,0.064926248174189,0.04955179465242836,48.171284906184255,0.013453864843910424
1403637264388318976,50.384998,745.7144284793042,9.520622708333333,-0.4576436666666666,-2.606934458333333,-0.0055850536063818,0.0132645023151569,0.085870199198121,0.0856543444716752,48.1987436023597,0.01281271318343613
