stamp,img_delta,blur,lin_acc.x,lin_acc.y,lin_acc.z,ang_vel.x,ang_vel.y,ang_vel.z,rpe,ate,drift
1403637133138319104,49.832583,614.6451505979545,9.610517,-0.4086104166666666,-2.288218333333333,0.0174532925199432,0.0314159265358979,0.0970403064108847,7.000518213101692,378.30841640294153,-1.6862604863187016
1403637133388318976,49.863815,514.8504848180705,9.136528916666666,-0.6456044583333332,-2.4843513333333336,-0.1528908424747032,-0.075398223686155,0.0844739357965255,47.70624077864391,359.1665965634971,-9.293228544325984
1403637133638319104,48.928023,566.9091153594354,10.386876791666666,-0.392266,-3.415983083333333,-0.1026253600172665,-0.0760963553869527,0.0879645943005142,74.59541262625986,327.2328124805437,-6.429400286768384
1403637133888318976,41.855097,380.9937969481648,11.310336333333332,-0.8744262916666666,-3.759215833333333,-0.1382300767579508,-0.0900589894029074,0.1926843494201739,203.13928796754882,187.8260359543564,-40.483149539812786
1403637134138319104,41.886092,374.8012880294906,8.850501625,-0.2288218333333333,-2.582417833333333,-0.2464404903815993,0.1019272283164688,-0.1033234917180643,141.22101008880884,90.69162807158037,-11.412800367072535
1403637134388318976,49.722194,353.5186705167905,6.668522,0.0408610416666666,-1.6753027083333332,-0.0851720674973232,0.3316125578789226,0.1368338133563554,50.19273770924247,68.45526221389446,-1.4997326709180356
1403637134638319104,50.398112,422.4511662896354,6.611316541666667,0.2369940416666666,-1.6262694583333333,-0.0139626340159546,-0.2443460952792061,0.0300196631343024,2.6656847030240343,69.41487684025024,1.4735569509437454
1403637134888318976,50.188303,190.48364122128936,9.80665,-0.04903325,-4.26589275,0.0781907504893459,-0.4565781323217166,0.2911209192326541,51.50965518593781,95.86388329042656,9.092946119547108
1403637135138319104,38.628579,302.52626278056545,11.547330375,-0.4331270416666666,-5.0013915,0.0027925268031909,-0.1207767842380075,0.0509636141582344,103.3602204263391,175.99214161702133,20.266121404500524
1403637135388318976,51.401853,199.0774915648546,11.195925416666665,-0.3023717083333333,-5.115802416666666,-0.104021623418862,0.3469714552964727,-0.0251327412287183,45.56661272846852,142.7567397194989,-20.974852035955763
1403637135638319104,50.224781,229.1203861627808,8.000591958333333,-0.1062387083333333,-2.999200458333333,-0.1675516081914556,0.468446371235278,0.0537561409614253,94.52772101560001,78.80125357427565,-6.3539882406437584
1403637135888318976,49.48163,775.7703960080731,5.287418791666666,0.3105439166666667,-1.184970208333333,-0.0565486677646162,0.0677187749773799,0.1305506280491758,30.309899563911724,68.20495818656745,-0.43885137721754575
1403637136138319104,50.747872,283.3780681332002,7.591981541666666,-0.0735498749999999,-2.239185083333333,-0.1005309649148733,-0.2736676267127109,-0.0495673507566389,12.598055369025888,68.74515337323656,0.8464451793859809
1403637136388318976,50.675393,206.3642013740836,10.019127416666668,-0.1144109166666666,-4.993219291666667,0.0383972435438752,-0.4858996637552213,0.1096066770252439,60.894520923407356,100.09368568745725,10.928148161655756
1403637136638319104,49.965858,567.0857395348069,12.715956166666665,-0.4576436666666666,-6.317117041666666,-0.0111701072127637,-0.0593411945678072,-0.0027925268031909,91.40542340871893,171.0252135751335,2.1566694482108915
1403637136888318976,63.745021,181.9327672065785,9.234595416666666,-0.0653776666666666,-4.4701979583333324,-0.0481710873550434,0.5242969072990966,0.0907571211037051,94.0247713629116,99.2194777359598,-11.426279856419669
1403637137138319104,39.239407,277.2380717244457,5.303763208333334,-0.2533384583333333,-1.7406803749999995,0.1005309649148733,0.4663519761328848,0.4098033083682685,56.802330035557425,71.92757214864197,-9.633190754906678
1403637137388318976,49.132824,804.4514204025364,6.210878333333333,-0.2615106666666666,-1.372931,0.0809832772925368,0.046774823953448,0.0509636141582344,3.6938986567173417,71.99638606946006,0.23627722447936605
1403637137638319104,49.063445,188.8290290121425,9.201906583333331,-0.0980665,-3.8082490833333327,-0.1563815009786919,-0.5508259119294103,-0.0083775804095727,42.80759658285812,76.57202698603803,2.9361947367181216
1403637137888318976,50.138473,197.67527491884812,12.184762625,0.2043052083333333,-5.655168166666666,0.0726056968829641,-0.28623399732707,0.0132645023151569,46.31905653179862,96.61733420305646,6.110142387911665
1403637138138319104,61.020851,191.9384831403267,12.160246,0.3268883333333333,-5.875817791666666,0.1200786525372098,0.2443460952792061,-0.0432841654494593,13.173160920139255,97.02146053889822,-5.762785296342528
1403637138388318976,49.804449,190.42830562424427,7.216059958333333,0.44129925,-3.015544875,-0.2178170906488923,0.7379252077432026,0.0698131700797731,26.90484857232635,99.63098063524298,-3.271746440860724
1403637138638319104,39.077759,810.3096542785208,5.303763208333334,0.1797885833333333,-0.8253930416666666,0.0167551608191455,0.0970403064108847,0.104021623418862,49.071312090817024,70.01268220980906,0.09922592015441012
1403637138888318976,49.830675,276.6115630813092,7.730909083333333,-0.1144109166666666,-3.1463002083333333,0.0460766922526503,-0.3155555287605747,0.0446804288510548,21.734023048547495,73.09441085538525,1.7267527588692246
1403637139138319104,39.211989,268.2839725290036,10.427737833333332,-0.6047434166666666,-4.26589275,0.1480039205691191,-0.1773254520026238,0.1424188669627373,58.8263665894001,104.06276573029858,8.507600392201468
1403637139388318976,41.774988,299.1144060059882,10.117193916666666,-0.5802267916666666,-4.5519200416666665,0.15079644737231,0.0,-0.0607374579694026,101.27239468720536,180.2586209059055,13.245302972271162
1403637139638319104,61.347008,476.0720564776728,9.054806833333332,-0.3105439166666667,-3.3996386666666667,0.0691150383789754,0.140324471860344,0.0167551608191455,51.661603799783784,222.6477355704719,5.676065210125785
1403637139888318976,50.780057,355.6990097442622,9.259112041666668,-0.9479761666666666,-3.391466458333333,-0.0432841654494593,0.2541199390903744,0.1494001839707146,39.25903607533937,255.59319421222008,3.230608112159672
1403637140138319104,38.609505,299.9603540940421,9.586000375,-0.809048625,-2.459834708333333,-0.093549647906896,0.333008821280518,0.1396263401595463,25.847453104448643,231.20528528881673,-0.17122553114393213
1403637140388318976,49.706697,566.6644439981552,9.986438583333332,0.024516625,-3.195333458333333,0.0055850536063818,0.093549647906896,0.0376991118430775,9.167576396637793,238.07477032911382,-0.8584175163741747
1403637140638319104,50.175667,580.4900547969817,9.291800875,-0.8008764166666666,-2.606934458333333,0.0125663706143591,0.0251327412287183,0.064926248174189,2.2449250914065395,236.33466765601963,0.041461823124564035
1403637140888318976,50.085068,578.2237129280962,9.65955025,-0.9398039583333332,-2.533384583333333,-0.0202458193231342,0.0230383461263251,0.0767944870877505,0.1721586363151319,236.17760501346748,-0.018840831658110346
1403637141138319104,48.782587,581.4173999789716,9.389867375,-0.7600153749999999,-2.6151066666666667,0.0048869219055841,0.0265290046303138,0.0760963553869527,0.0534877389809285,236.2011973928975,0.053638874526996005
1403637141388318976,51.135778,581.7317730948363,9.406211791666664,-0.6292600416666666,-2.6477955,-0.0020943951023931,0.0195476876223364,0.0795870138909414,0.05565417396858522,236.18128767295988,0.007521156978327781
1403637141638319104,50.558328,582.3702158936676,9.455245041666666,-0.6864655000000001,-2.623278875,-0.0006981317007977,0.0188495559215387,0.0788888821901436,0.08926277690065162,236.24235640683332,0.028929011837391272
1403637141888318976,44.375658,580.6582609743841,9.332661916666666,-0.7273265416666667,-2.606934458333333,-0.0006981317007977,0.0230383461263251,0.0816814089933346,0.07850216082176935,236.31862591866889,0.05200625297365491
1403637142138319104,45.738697,581.9008149499962,9.479761666666668,-0.612915625,-2.574245625,-0.0034906585039886,0.0230383461263251,0.0747000919853573,0.051488507059352775,236.27496424666998,-0.0550544137302893
1403637142388318976,48.960925,580.7406857930847,9.340834125,-0.7681875833333334,-2.5660734166666663,-0.0027925268031909,0.0195476876223364,0.0795870138909414,0.08214650290617594,236.3464118780347,0.05945331877470039
1403637142638319104,49.672604,581.3630554630864,9.447072833333332,-0.6946377083333333,-2.606934458333333,0.0020943951023931,0.0167551608191455,0.08307767239493,0.08129439195350778,236.28101198535444,-0.03180519241780644
1403637142888318976,48.682212,581.4973497911864,9.414383999999998,-0.7191543333333333,-2.557901208333333,0.0,0.0174532925199432,0.0781907504893459,0.09840126594907199,236.3845620187098,0.05269732324725851
1403637143138319104,50.065279,582.1343697695916,9.422556208333331,-0.661948875,-2.574245625,-0.0006981317007977,0.0209439510239319,0.0816814089933346,0.023341602688783554,236.3613374118994,-0.0044152050031129875
1403637143388318976,38.612127,582.0661315831318,9.422556208333331,-0.6701210833333332,-2.4843513333333336,-0.0006981317007977,0.0223402144255274,0.0872664625997164,0.052097767455878984,236.39582934448833,0.035908184940296906
1403637143638319104,38.842201,581.0514438160394,9.36535075,-0.6864655000000001,-2.655967708333333,0.0,0.0265290046303138,0.075398223686155,0.025784444197530676,236.3612631176674,0.02823936931810067
1403637143888318976,60.761214,581.6475362149909,9.422556208333331,-0.6456044583333332,-2.5415567916666664,0.0006981317007977,0.0111701072127637,0.0767944870877505,0.043012727696272963,236.38303975124612,-0.017858300850548403
1403637144138319104,32.65357,521.5048080215158,9.978266375,-1.789713625,-2.639623291666666,-0.1061160185212552,0.0328121899374933,0.0991347015132779,0.17052102170600741,236.290273875733,-0.04642154486123218
1403637144388318976,45.442104,531.9235100274782,9.128356708333332,0.0653776666666666,-2.557901208333333,0.0970403064108847,0.0237364778271228,0.0495673507566389,0.015482034963643011,236.26170513128062,0.00659519681164511
1403637144638319104,60.689687,573.9625413817729,9.332661916666666,-0.661948875,-2.4108014583333333,0.0335103216382911,0.0376991118430775,0.0886627260013119,0.08778739653603218,236.3005738100518,-0.03245414303529515
1403637144888318976,46.056271,573.0680686369219,9.26728425,0.1307553333333333,-2.79489525,0.0041887902047863,0.0027925268031909,0.0628318530717958,0.14830115243610673,236.2134752104178,-0.06437565423118485
1403637145138319104,49.864769,554.490155997245,10.043644041666663,-0.980665,-2.803067458333333,-0.0705113017805709,0.0146607657167523,0.0956440430092892,0.2697262083424139,236.4285642208487,0.07766334135683906
1403637145388318976,60.239553,582.017980692119,9.414383999999998,-1.0215260416666667,-2.476179125,0.0118682389135614,0.0376991118430775,0.0712094334813686,0.05743937625593003,236.35919292859717,-0.003917919936185399
1403637145638319104,36.278964,581.3674422203898,9.226423208333332,-0.4086104166666666,-2.5905900416666663,0.007679448708775,0.0265290046303138,0.0600393262686049,0.07621871966279031,236.2747704549289,-0.03741609839329385
1403637145888318976,39.356709,582.7662442337496,9.291800875,-0.8907707083333333,-2.50069575,-0.0020943951023931,0.0174532925199432,0.0851720674973232,0.02485772333072925,236.3051723018887,0.03171700956497148
1403637146138319104,39.142132,583.1644060499817,9.716755708333332,-0.7927042083333332,-2.672312125,0.0013962634015954,0.0216420827247296,0.0684169066781777,0.044028206995499565,236.3395768587048,0.022363851891810782
1403637146388318976,50.076008,574.1928835958414,9.218251,-1.438308666666667,-2.231012875,-0.0390953752446729,0.0614355896702004,0.0747000919853573,0.20056502795279177,236.24616065544356,-0.294110340338932
1403637146638319104,64.084053,579.257480078972,8.948568125,-1.0215260416666667,-2.3617682083333333,0.0006981317007977,0.0118682389135614,0.0809832772925368,0.33102557666554766,236.4166146325746,0.19258657364059673
1403637146888318976,51.237344,579.1013657905161,9.700411291666663,-0.6456044583333332,-2.6641399166666666,-0.0006981317007977,-0.0090757121103705,0.114493598930828,0.10312152555708697,236.34592966638363,-0.01906816298458125
1403637147138319104,60.474157,576.2694002406895,9.308145291666667,-1.1441091666666665,-2.533384583333333,-0.0237364778271228,0.0349065850398865,0.08307767239493,0.036315175233932864,236.3751012317113,0.010873239740533336
1403637147388318976,50.157785,576.9571893773734,9.242767625,-0.612915625,-2.623278875,-0.0104719755119659,0.0607374579694026,0.0628318530717958,0.06164682016604055,236.34095960418753,-0.04835824802663069
1403637147638319104,60.397148,581.247165480526,9.994610791666668,-0.612915625,-2.9011339583333333,0.0006981317007977,0.036302848441482,0.0942477796076938,0.1035035937422088,236.40852507360418,0.09402378058615568
1403637147888318976,60.436011,580.3284220678464,9.471589458333332,-0.7028099166666667,-2.549729,-0.0097738438111682,0.0349065850398865,0.0600393262686049,0.08383294290652551,236.37673757274396,0.008618790308560165
1403637148138319104,39.144516,578.4545440438666,9.144701125,-0.809048625,-2.4843513333333336,-0.0041887902047863,0.0272271363311115,0.0963421747100869,0.03165709470117199,236.39783064266106,0.027069558657018433
1403637148388318976,39.521456,580.0540047646211,10.386876791666666,-0.5066769166666666,-2.655967708333333,0.0307177948351002,0.0034906585039886,0.1165879940332212,0.04764916669287471,236.3730799090178,-0.0770552866719072
1403637148638319104,60.429335,574.3316439253992,9.724927916666667,-0.9234595416666666,-2.6641399166666666,0.0020943951023931,0.0698131700797731,0.0656243798749867,0.3431744486130051,236.67688790722988,0.24348930108362765
1403637148888318976,48.357249,570.9562992991895,8.77695175,-0.563882375,-2.1738074166666665,0.0356047167406843,-0.0670206432765822,0.0628318530717958,0.17202606157635095,236.83827763214552,0.0035124790710767684
1403637149138319104,60.883284,567.5891526137445,8.760607333333333,0.0817220833333333,-2.459834708333333,0.0202458193231342,0.0370009801422797,0.0251327412287183,0.5311948331973346,237.31278460752011,0.12885475554807613
1403637149388318976,60.622692,569.0782581519878,9.594172583333334,-0.8499096666666667,-2.8766173333333334,0.0062831853071795,-0.0390953752446729,0.0802851455917391,0.7676677823159136,238.02087125299266,0.1429944222239783
1403637149638319104,51.263094,299.90679362519506,7.240576583333333,-0.24516625,-1.52003075,0.1947787445225671,-0.2534218073895766,-0.1347394182539622,4.073225617478406,241.47827801930063,1.7697172131012167
1403637149888318976,38.648367,260.5512889564,11.179581,0.1144109166666666,-2.378112625,-0.0809832772925368,-0.278554548618295,-0.122173047639603,13.689185206489032,251.97958442034948,3.556557813488496
1403637150138319104,50.817728,292.82825464639603,8.850501625,0.9234595416666666,-3.4813607499999994,-0.1968731396249603,-0.0740019602845595,-0.1117010721276371,57.623073155101004,274.73347953785503,2.184469124088082
1403637150388318976,55.540085,227.48368137436177,8.768779541666666,0.6047434166666666,-3.072750333333333,-0.007679448708775,0.3874630939427411,0.1480039205691191,141.56211883989923,237.96737769438846,-13.250419283675853
1403637150638319104,39.213896,390.3386786319704,8.482752249999999,-0.0408610416666666,-3.0809225416666663,-0.0314159265358979,0.0439822971502571,0.1193805208364121,139.15013253212658,179.96115933473698,-10.639814199148788
1403637150888318976,34.724713,390.568622488307,7.028099166666666,-0.5802267916666666,-2.018535458333333,-0.0230383461263251,0.2192133540504878,0.0551524043630208,78.19984424948298,146.18154637972503,-5.887506555892855
1403637151138319104,54.810524,542.3958184616436,9.684066875,0.3105439166666667,-4.151481833333333,0.0474729556542457,0.1186823891356144,0.054454272662223,56.39017654962323,132.48890584988905,-1.630258159280885
1403637151388318976,49.876451,689.1846598865346,10.558493166666668,0.2778550833333333,-4.028898708333333,0.1096066770252439,-0.104021623418862,0.3427826650916863,38.319150440065435,126.2012324484,-1.4060884638897875
1403637151638319104,49.881696,889.2110258852668,8.074141833333334,0.8499096666666667,-3.097266958333333,-0.018151424220741,0.0837758040957278,-0.0509636141582344,21.8619806022792,118.7172789537748,-1.317919219314149
1403637151888318976,50.238609,1180.5396179571917,9.422556208333331,0.0408610416666666,-2.655967708333333,-0.0111701072127637,0.0719075651821663,-0.0321140582366956,12.717000789784244,114.09105159347064,-0.7342634997491473
1403637152138319104,60.547114,1269.8550811891223,7.142510083333334,-0.4086104166666666,-3.342433208333333,0.0209439510239319,-0.0265290046303138,0.1235693110411985,10.292347233038212,110.23914119082481,-0.9144134923126757
1403637152388318976,50.231695,1319.6513439131534,9.308145291666667,-0.0572054583333333,-3.67749375,-0.0174532925199432,-0.0139626340159546,0.0872664625997164,14.391336961173504,108.89738656720085,-0.48655951645183393
1403637152638319104,51.180125,1432.1868093068488,10.043644041666663,0.7273265416666667,-3.4813607499999994,0.0027925268031909,0.0216420827247296,0.1130973355292325,5.578256877082654,107.49714307416802,-0.1843620277124387
1403637152888318976,39.41226,1038.2507152461626,8.490924458333334,0.6537766666666667,-4.502886791666667,0.0167551608191455,0.0928515162060983,-0.0118682389135614,5.516302457376476,105.16844840917663,-0.5771161991574303
1403637153138319104,33.255816,1295.6183675976306,6.995410333333333,0.8825985,-2.018535458333333,-0.0020943951023931,-0.0460766922526503,0.0677187749773799,13.439769986923336,105.3270384756831,-0.5584833379612064
1403637153388318976,49.023628,1297.1944407245262,10.223432625,0.0,-4.053415333333333,0.0048869219055841,-0.0321140582366956,0.0446804288510548,6.750674870604115,102.87417070764384,-0.4552051062304088
1403637153638319104,49.864292,1098.3450752359151,10.190743791666666,0.2124774166666666,-3.881798958333333,0.0397935069454707,0.08307767239493,0.1242674427419962,7.664332278582239,101.35124816634485,-0.5354332363992995
1403637153888318976,34.429073,1088.8525978577586,8.000591958333333,-0.5883989999999999,-2.9583394166666666,-0.0565486677646162,0.0621337213709981,0.1137954672300302,9.415596598347628,98.37189754991951,-0.5739101117605259
1403637154138319104,38.674116,928.6126585053554,6.913688249999999,1.12776475,-1.6998193333333331,0.1012290966156711,-0.1333431548523667,0.3351032163829112,4.850329368242669,96.32376043730979,-0.33655629682225197
1403637154388318976,61.919451,891.3646418163092,8.572646541666666,-0.3350605416666666,-2.557901208333333,-0.0677187749773799,0.1850049007113989,-0.1019272283164688,4.498026103678005,94.52328872217703,-0.5082462892612511
1403637154638319104,46.325207,797.8294256681748,9.381695166666669,0.220649625,-3.979865458333333,-0.1061160185212552,-0.0921533845053006,-0.0767944870877505,7.518556164766007,91.28207912562118,-0.7793193924058528
1403637154888318976,50.004483,724.6921314485988,9.618689208333333,0.5883989999999999,-4.36395925,-0.2478367537831947,-0.1200786525372098,0.0537561409614253,7.253993935236713,87.57561974499296,-0.7466270100064776
1403637155138319104,39.148569,537.8794256376895,9.496106083333332,0.7600153749999999,-4.592781083333333,-0.2303834612632515,0.2492330171847902,0.2359685148696333,10.666729272693992,86.42155004366725,-0.11135811835708864
1403637155388318976,49.925089,597.0057702701191,11.343025166666669,0.0653776666666666,-4.0125542916666666,-0.1752310569002306,0.1382300767579508,0.210835773640915,14.535742989602918,86.61545820977977,0.8264165598435227
1403637155638319104,50.139427,776.6904162010054,8.605335375,-0.0326888333333333,-3.048233708333333,-0.1843067690106012,-0.0767944870877505,0.3106686068549906,10.357072141605334,85.54840611904152,-0.28500167888347505
1403637155888318976,50.048351,579.8426710361894,9.831166624999998,0.4004382083333333,-2.79489525,-0.4314453910929983,0.0069813170079773,0.1591740277818828,11.650155769233749,89.05232618409242,-0.31201188840229577
1403637156138319104,50.86875,662.1831714324009,7.412192958333333,-0.6537766666666667,-2.3454237916666667,-0.5138249317871306,0.1172861257340189,0.2701769682087222,7.882819639487561,87.12482938176377,-0.36438190389027625
1403637156388318976,38.314104,697.6169764719758,8.67888525,-0.34323275,-2.745862,-0.5592034923389831,0.0328121899374933,0.2611012560983517,10.938054283474154,84.7300747502284,-0.618603105469731
1403637156638319104,49.927473,705.0458303553405,7.665531416666666,0.5720545833333333,-4.028898708333333,-0.5298819609054785,0.1172861257340189,0.2234021442552742,14.49576985385491,82.94011638513183,-0.7123974916375744
1403637156888318976,50.02594,694.6615355191516,9.863855458333331,-0.1797885833333333,-4.233203916666667,-0.2820452071222836,-0.1110029404268393,0.018151424220741,15.757547620466203,79.10737753382988,-0.7632832031614356
1403637157138319104,50.013543,1077.524766603202,9.07115125,-0.2615106666666666,-3.064578125,0.0328121899374933,-0.0502654824574366,0.153588974175501,15.670183778740851,75.16021172223815,-0.7968068948681406
1403637157388318976,38.234949,1003.481647393667,10.713765125,-0.0735498749999999,-3.857282333333333,0.1494001839707146,0.0083775804095727,0.3134611336581816,16.073083405988676,70.91524434693366,-0.8954005095352784
1403637157638319104,49.918413,1169.135916241853,8.817812791666666,0.0408610416666666,-3.652977125,0.0523598775598298,0.0265290046303138,0.0628318530717958,20.837647814393996,66.06695967642159,-0.9827791308514549
1403637157888318976,49.916029,743.677623246554,8.368341333333333,0.0898942916666666,-2.40262925,-0.028623399732707,0.2261946710584651,-0.0907571211037051,26.7134658708306,59.786109897474894,-1.2684072238058022
1403637158138319104,49.785375,698.4793685444063,10.182571583333331,0.465815875,-1.7243359583333333,0.0132645023151569,0.0837758040957278,0.028623399732707,29.353664253359124,53.21434200884331,-1.3257729434751866
1403637158388318976,60.836315,332.18816129060565,10.329671333333332,0.6701210833333332,-4.225031708333333,-0.2031563249321399,0.0432841654494593,0.2687807048071267,31.52602179981284,46.95583681961777,-1.188496154500065
1403637158638319104,49.138308,242.3052326939774,9.283628666666663,-0.4004382083333333,-2.9338227916666666,-0.450294947014537,0.1298524963483781,0.3497639820996636,32.259384999191354,40.42396467884116,-0.9363182643491399
1403637158888318976,60.529709,247.92778441099549,10.550320958333334,-0.5148491249999999,-3.505877375,-0.249931148885588,0.0062831853071795,0.057246799465414,34.27817858766763,34.9993618519067,-1.0052848403229788
1403637159138319104,49.818516,276.46852550776947,6.7502440833333335,0.661948875,-2.754034208333333,0.0139626340159546,0.0272271363311115,0.2450442269800038,34.96037501874231,29.904905369436026,-1.1372597889320026
1403637159388318976,65.577746,317.6524538375158,8.237585999999999,-0.4985047083333333,-2.0675687083333334,0.0586430628670094,0.075398223686155,0.0453785605518525,34.83256267521858,24.843101985178645,-0.9149481269328952
1403637159638319104,40.004731,227.65290875042444,10.54214875,0.4494714583333333,-2.941995,0.0314159265358979,0.0390953752446729,-0.1193805208364121,37.73496802735276,20.97565418927574,-0.5473554280772674
1403637159888318976,50.086499,202.92989343613544,7.853492208333332,-0.2778550833333333,-3.530394,-0.1996656664281513,-0.0747000919853573,0.1473057888683213,39.160098103748226,19.302693173615364,-0.21610929280513602
1403637160138319104,39.210796,183.376041042216,10.623870833333331,0.3514049583333333,-4.617297708333333,-0.4551818689201211,0.1347394182539622,0.3790855135331683,39.25593964988007,19.78772991282007,0.4759234362336002
1403637160388318976,49.528838,168.11567431929822,9.896544291666666,-0.8253930416666666,-3.178989041666666,-0.6164502918043971,-0.0307177948351002,0.3127630019573839,36.83047945855286,22.800633281870454,0.6809471210123235
1403637160638319104,49.918174,121.68591010036944,8.180380541666665,-2.034879875,-2.941995,-0.5989969992844539,-0.1549852375770964,0.278554548618295,33.273600537154664,27.069735261669337,0.8631242859341022
1403637160888318976,50.633907,475.3704861046564,9.471589458333332,-0.367749375,-3.3506054166666663,-0.2352703831688356,-0.0342084533390888,0.114493598930828,29.355222999566973,30.525626304779145,1.1878620270793476
1403637161138319104,50.024271,563.7097428009338,8.155863916666666,0.3023717083333333,-2.3617682083333333,0.0335103216382911,0.1361356816555577,0.3881612256435388,23.657448356723176,37.25043551300968,1.4515291757927287
1403637161388318976,47.348499,669.7598601857367,10.460426666666669,0.0081722083333333,-3.505877375,-0.0376991118430775,-0.0174532925199432,-0.0230383461263251,30.593403028227506,42.872271477656454,1.1994991862276692
1403637161638319104,50.102949,396.5777210304557,8.311135875,-0.5557101666666666,-3.751043625,-0.2792526803190927,0.0949459113084915,0.0774926187885482,36.94030067799122,48.65221864822287,1.244759781667483
1403637161888318976,50.093651,309.8387098454846,7.861664416666666,-0.2369940416666666,-2.6641399166666666,-0.1996656664281513,0.382576172037157,0.0523598775598298,37.48184111109422,54.32907536544139,0.5258151393920585
1403637162138319104,61.312199,581.717122449981,7.0689602083333325,0.3759215833333333,-2.557901208333333,-0.0069813170079773,0.0733038285837618,0.1891936909161853,30.992154533402932,60.44564648607494,1.1494160554484054
1403637162388318976,39.1078,475.1575177564613,8.711574083333332,-0.1879607916666666,-3.4813607499999994,0.1123992038284348,-0.1773254520026238,0.2848377339254746,27.679974086336756,65.28851392339891,0.8996313653894106
1403637162638319104,60.668469,310.7355560504128,7.093476833333334,-0.5311935416666667,-1.6998193333333331,-0.0216420827247296,0.325329372571743,-0.0202458193231342,32.13819675841042,69.57360329569764,0.7078758192767083
1403637162888318976,49.093485,370.2103675632756,8.18855275,0.1307553333333333,-2.6886565416666666,-0.486597795456019,0.1598721594826805,0.1061160185212552,38.37125114489901,68.35720115692145,0.5110008096775118
1403637163138319104,49.750567,345.1032939652355,8.711574083333332,-0.7273265416666667,-3.3260887916666664,-0.7707373976806958,0.1256637061435917,0.1752310569002306,41.26935318186911,70.30661485863826,0.25596378384479124
1403637163388318976,49.056768,344.78046304709187,7.518431666666666,-1.5363751666666667,-3.702010375,-0.635299847725936,0.007679448708775,0.3790855135331683,42.27848767567976,69.98219350584591,-0.13442099718228917
1403637163638319104,54.635048,259.9041109793396,10.305154708333331,-0.367749375,-2.8847895416666667,-0.2422517001768129,-0.2569124658935653,0.325329372571743,41.036255460637385,70.42766782850168,0.03515716176127626
1403637163888318976,39.910316,426.0847677517901,10.403221208333331,0.2615106666666666,-4.192342875,-0.0335103216382911,0.0006981317007977,0.1857030324121966,43.35812945376556,69.97950665897848,-0.14778245052541195
1403637164138319104,49.591065,361.1281433990787,10.321499125,0.3759215833333333,-4.151481833333333,0.0237364778271228,0.179419847105017,-0.0118682389135614,51.28746030911624,69.23194102855912,-0.1971462330273397
1403637164388318976,60.101986,351.78577332361897,6.7502440833333335,-0.7191543333333333,-1.1686257916666667,0.0069813170079773,-0.0488692190558412,-0.0886627260013119,59.47213416391447,67.9301562493033,-0.3304687302485547
1403637164638319104,39.543628,415.8540598150103,8.38468575,-1.0296982499999998,-3.7919046666666665,0.0970403064108847,0.0328121899374933,0.0495673507566389,61.707891739150924,67.93807957073888,0.08019410938464944
1403637164888318976,36.386252,257.72229522691265,10.288810291666666,-1.5527195833333332,-3.023717083333333,-0.2387610416728242,0.0370009801422797,-0.0383972435438752,66.11437321034764,69.24897401407445,0.24834614034762126
1403637165138319104,60.519457,232.4529818341295,7.959730916666666,-1.3320699583333333,-3.742871416666666,-0.4558800006209189,0.2611012560983517,0.1417207352619395,68.0103363948374,71.85507910849537,0.6802915874816762
1403637165388318976,38.964748,178.53711356484655,10.149882749999998,-1.0705592916666666,-3.4486719166666666,-0.4237659423842232,-0.2303834612632515,0.1682497398922533,66.92816895388262,75.70092919079198,0.8337494001620058
1403637165638319104,39.888621,167.33027885111198,8.981256958333333,-0.8499096666666667,-3.603943875,-0.2743657584135086,-0.054454272662223,-0.1165879940332212,63.32741260916943,80.84269409893503,1.154000365196012
1403637165888318976,49.287081,195.57648679650472,7.224232166666667,0.2778550833333333,-2.745862,-0.007679448708775,0.0607374579694026,-0.1787217154042193,58.105005556603274,86.56256837228355,1.2060703736501637
1403637166138319104,50.263882,233.40695589683293,3.955348833333333,0.0326888333333333,-0.9398039583333332,0.1549852375770964,0.0984365698124801,-0.0293215314335047,47.49473348704075,93.40023024304878,1.6187352178818202
1403637166388318976,49.986363,160.6208859883973,8.278447041666666,-0.1062387083333333,-3.8164212916666655,0.2743657584135086,0.7609635538695276,0.171740398396242,37.076466043344084,101.08597297959076,1.4069996758180991
1403637166638319104,49.880981,177.2911675141454,7.984247541666667,-0.1879607916666666,-3.023717083333333,0.1054178868204575,-0.5173155902911193,0.0684169066781777,27.212655090119647,107.27485715850375,1.1478193991976724
1403637166888318976,50.104379,179.68612162259856,10.002783,-0.8580818749999999,-2.745862,-0.025830872929516,0.0488692190558412,-0.2631956512007449,19.17466880871539,111.97004476539239,0.8300612277890878
1403637167138319104,48.081637,187.11925346091687,9.324489708333331,-0.392266,-3.4486719166666666,-0.0335103216382911,0.333008821280518,-0.1815142422074102,8.259496890200491,113.92053628459631,-0.14332419261253904
1403637167388318976,49.415111,162.56248846149734,7.453054,-0.3105439166666667,-1.7570247916666666,0.0788888821901436,-0.2436479635784084,0.3134611336581816,17.601065279683095,111.19086896765917,-0.7510847074001106
1403637167638319104,39.783954,136.89180949894055,9.822994416666669,-0.0735498749999999,-3.669321541666666,0.2359685148696333,-0.1235693110411985,0.6178465552059926,35.15917338542214,107.27231776912582,-0.8905265044365791
1403637167888318976,49.893141,163.06519746562324,10.583009791666663,0.4249548333333333,-3.113611375,0.2101376419401172,-0.1487020522699168,-0.0684169066781777,43.64183105106416,102.82339968284784,-0.8317460453978498
1403637168138319104,60.956955,205.43227219871287,7.003582541666666,0.5720545833333333,-1.2340034583333332,0.1766273203018261,-0.0823795406941323,0.1843067690106012,44.76025671046848,98.20593477909235,-0.7915610504942947
1403637168388318976,39.43491,266.9969766430989,8.629852,0.9479761666666666,-1.9776744166666664,0.0328121899374933,0.4091051766674708,-0.0767944870877505,51.96876811401959,87.68612180432763,-0.8012541572662286
1403637168638319104,49.915075,273.57404677729187,10.370532375,-0.5230213333333333,-4.715364208333333,-0.0146607657167523,-0.15079644737231,0.104021623418862,48.30021546633504,84.0183062636713,-1.0280739652803703
1403637168888318976,49.970865,321.7276832688478,8.302963666666667,1.046042666666667,-2.999200458333333,-0.0998328332140756,-0.0774926187885482,-0.0977384381116824,48.4699249984545,80.38433159866423,-0.7437405212963881
1403637169138319104,38.982868,322.0586701358618,11.285819708333332,-0.5965712083333333,-4.380303666666666,0.1082104136236484,0.1954768762233649,-0.0104719755119659,49.41381044184321,77.53175868724831,-0.4297224973377496
1403637169388318976,44.429303,280.10003633898924,11.056997875,0.1470997499999999,-4.2168595,0.4921828490624009,0.1333431548523667,-0.0684169066781777,53.22923069290676,74.59071319360395,-0.5400585132731095
1403637169638319104,60.700416,275.3310638118507,9.782133375,0.220649625,-2.9338227916666666,0.5640904142445673,0.093549647906896,-0.2694788365079245,58.537817183650056,72.01512439612107,-0.44550565498781225
1403637169888318976,39.16049,331.07977892280337,7.093476833333334,-0.8662540833333333,-2.79489525,0.5305800926062761,0.1975712713257581,-0.1989675347273535,60.04981686527147,66.03950862307647,-0.3179738864970716
1403637170138319104,39.298772,322.95839148480803,7.935214291666666,0.5965712083333333,-2.353596,0.5089380098815465,0.15079644737231,-0.075398223686155,65.2787333472721,64.4146774426729,-0.16610707256113244
1403637170388318976,45.11261,242.04143800142091,8.409202375,0.8417374583333332,-2.280046125,0.6855653301833726,0.0921533845053006,0.2708750999095199,69.52686615532585,63.244069884642364,-0.11785652739898467
1403637170638319104,65.681696,257.5901545368957,7.338643083333332,0.7028099166666667,-2.0021910416666664,0.76026542216873,0.5089380098815465,0.1500983156715123,73.10312881510329,63.34094426860777,0.2659188509475996
1403637170888318976,39.327383,405.7701405059015,10.24794925,0.956148375,-2.9256505833333333,0.8063421144213804,-0.0202458193231342,-0.0397935069454707,68.41802832110358,61.2234475185239,-0.7795151626850298
1403637171138319104,37.544966,236.93360597496027,10.280638083333333,0.63743225,-4.592781083333333,0.5871287603708925,-0.1563815009786919,0.0230383461263251,58.52608887929877,55.15905353928681,-0.9632730820100974
1403637171388318976,38.971662,180.57451241058004,11.089686708333334,1.9041245416666663,-4.143309625,0.1410226035611418,0.0719075651821663,-0.1514945790731078,50.910468404586,49.47333720636233,-1.5875944543801168
1403637171638319104,38.755893,261.31223015341544,8.074141833333334,1.22583125,-2.778550833333333,-0.0663225115757845,0.0020943951023931,-0.0558505360638185,57.32496409536336,31.45723503243616,-1.7212245891652955
1403637171888318976,50.164938,307.5900985224575,8.572646541666666,0.6701210833333332,-2.557901208333333,-0.0893608577021096,0.0293215314335047,0.1410226035611418,53.47791700107819,23.31019644064451,-1.812031356191845
1403637172138319104,50.414086,290.0728695267404,8.098658458333333,1.0705592916666666,-3.178989041666666,0.0383972435438752,-0.0118682389135614,0.3755948550291797,60.40447517181897,21.925361342259023,4.745455726414505
1403637172388318976,38.798094,142.11117752479674,11.040653458333331,0.5475379583333333,-3.415983083333333,0.0537561409614253,-0.208043246837724,0.4572762640225143,54.86749236905602,17.9457200209185,-0.3010193976109825
1403637172638319104,50.136089,194.32262505234235,9.030290208333332,0.8417374583333332,-3.211677875,-0.0174532925199432,-0.0579449311662117,0.1933824811209717,57.91354896092832,25.476733505233973,0.21309828999390845
1403637172888318976,60.538769,87.116924056412,7.665531416666666,0.9234595416666666,-1.1195925416666666,-0.2659881780039358,-0.4970697709679851,0.1494001839707146,44.7138145268655,28.511869630098897,0.6665868368048002
1403637173138319104,50.297022,115.19654130049874,7.869836625,0.0653776666666666,-2.9338227916666666,-0.3022910264454179,-0.0027925268031909,0.3546509040052477,33.31425005057612,33.83120422572763,1.1370429030291618
1403637173388318976,35.371542,113.96385493588434,9.054806833333332,0.661948875,-1.9531577916666665,-0.4440117617073574,0.3546509040052477,0.3225368457685521,37.297330264764874,32.703212394222156,0.7650189907230676
1403637173638319104,50.029277,108.76814025433752,10.378704583333333,0.465815875,-3.072750333333333,-0.3469714552964727,0.0118682389135614,0.536165146212658,15.880822474143807,34.75828830832272,0.47102762559278233
1403637173888318976,49.932242,82.54021335447347,11.293991916666666,0.2288218333333333,-4.16782625,-0.4000294645571003,-0.3085742117525974,0.0788888821901436,13.590971232410595,37.67319005963877,0.3480826549091205
1403637174138319104,35.175085,82.87936359552688,11.03248125,0.4331270416666666,-2.9256505833333333,-0.1626646862858715,0.8126252997285598,-0.1829105056090057,20.294892730785822,37.428150012967244,-0.3923535814907808
1403637174388318976,49.767971,166.89854198984813,10.166227166666664,-1.0705592916666666,-3.571255041666667,0.0670206432765822,0.2150245638457014,0.2722713633111154,26.086082001130773,35.84497891558896,-0.2629986706622347
1403637174638319104,50.275326,177.45278020671205,10.084505083333331,0.367749375,-3.9880376666666666,-0.4551818689201211,0.1333431548523667,-0.0565486677646162,30.893571829840578,38.35272153315532,-0.09557506630839185
1403637174888318976,61.781883,159.45540948501218,10.370532375,-0.44129925,-3.538566208333333,-0.5857324969692971,-0.189891822616983,0.268082573106329,36.25809918686368,39.58202738515685,0.3524218601788007
1403637175138319104,55.819035,120.98787950026752,8.834157208333334,-1.2748645,-3.4977051666666665,-0.3281218993749339,0.2694788365079245,0.2401573050744197,37.75953781402074,41.46436442213302,0.7679786290356319
1403637175388318976,49.232244,197.81288266761177,8.319308083333333,-0.7927042083333332,-2.30456275,-0.0607374579694026,0.1075122819228507,0.1850049007113989,38.364500472016836,46.934662720792645,1.2594630480152276
1403637175638319104,44.598103,144.97194328157286,10.24794925,-0.3759215833333333,-2.7376897916666665,0.0202458193231342,-0.2478367537831947,0.1556833692778942,44.383873926773774,52.41156587988134,-0.6838848293874307
1403637175888318976,39.773226,180.6838891266009,9.299973083333333,-1.1767979999999998,-3.571255041666667,-0.08307767239493,0.0048869219055841,-0.2631956512007449,47.73079462216502,61.248903104336584,1.9200483651253464
1403637176138319104,39.711952,261.80858973311086,8.997601374999999,1.1359369583333332,-3.955348833333333,0.0628318530717958,0.247138622082397,-0.0083775804095727,52.67853837071026,71.23296127477974,2.144740218596638
1403637176388318976,49.89171,468.4749495746563,7.453054,-0.4331270416666666,-2.288218333333333,-0.0872664625997164,-0.0865683308989187,0.0314159265358979,54.59127491196231,83.37541257674576,2.5568548752403757
1403637176638319104,65.180063,477.1813698272833,10.133538333333334,0.6292600416666666,-3.742871416666666,-0.2038544566329376,-0.1256637061435917,0.2673844414055313,56.20084578324661,97.22163296556097,2.8138203573456906
1403637176888318976,51.621437,436.3474315665683,7.690048041666667,0.416782625,-2.2555295,-0.1207767842380075,-0.1172861257340189,0.0635299847725936,58.21079936130834,111.29324657601659,2.800186746892493
1403637177138319104,32.083273,319.1876687119584,8.572646541666666,-1.0869037083333333,-2.435318083333333,-0.0614355896702004,-0.42167154728183,0.1445132620651305,59.85543648122831,124.92563796463418,2.633075001905567
1403637177388318976,65.113306,478.52435281302536,9.782133375,-0.318716125,-2.745862,-0.0663225115757845,-0.0404916386462684,-0.0300196631343024,60.844677862166854,137.8938368880626,2.6137906076550053
1403637177638319104,50.131083,464.3601013473709,9.030290208333332,-0.4331270416666666,-3.064578125,-0.1982694030265558,0.208043246837724,-0.2408554367752175,60.19978458743823,150.13614826696556,2.4550529773556775
1403637177888318976,45.802117,404.96654194624006,8.38468575,0.3840937916666667,-1.7488525833333333,-0.296705972839036,0.1549852375770964,0.2534218073895766,53.7625320177729,159.86099194640218,1.6942991067571143
1403637178138319104,50.052881,334.154317935667,11.155064374999998,1.3320699583333333,-4.388475875,-0.4628613176288962,0.0663225115757845,0.0349065850398865,44.392813238762606,165.15679176751974,0.5338191722921692
1403637178388318976,49.837589,368.4472781089476,10.002783,-0.0408610416666666,-4.4211647083333325,-0.2555162024919699,0.1787217154042193,-0.0621337213709981,28.786154300898925,164.43201868988746,-0.4191248211302536
1403637178638319104,58.296919,322.84840706033145,7.722736874999999,0.5148491249999999,-1.3565865833333333,0.1675516081914556,0.1165879940332212,0.4775220833456485,14.301400515871782,160.0774192088874,-0.9231439464284108
1403637178888318976,39.074182,290.22828174328384,8.253930416666666,-0.0572054583333333,-2.7213453750000003,0.1577777643802873,0.1870992958137921,0.4733332931408622,17.61353171168511,154.05981338434088,-1.3554362425851423
1403637179138319104,62.245607,475.6684166449553,9.937405333333334,0.1552719583333333,-3.587599458333333,0.0,-0.1759291886010284,0.0055850536063818,20.769077146806364,152.89966782525673,-0.9357968143697803
1403637179388318976,49.989938,585.4857377850159,10.378704583333333,0.367749375,-4.584608875,0.0167551608191455,0.0139626340159546,-0.064926248174189,22.495670088268565,147.35536078966834,-1.1566778405668288
1403637179638319104,64.056158,455.7037000714478,7.853492208333332,0.9970094166666666,-2.1411185833333333,-0.0048869219055841,0.1738347934986352,0.0900589894029074,28.863262534020627,141.7880802340786,-1.0597149470884801
1403637179888318976,60.520172,551.3895004767425,7.951558708333333,-0.8253930416666666,-2.811239666666667,-0.1654572130890624,0.0788888821901436,-0.2541199390903744,29.616533244723932,136.45116778265913,-1.05048329533264
1403637180138319104,50.139904,332.3325614903794,9.373522958333332,0.0817220833333333,-3.996209875,0.1459095254667259,-0.0251327412287183,0.4349360495969869,38.454497591042944,131.43414644149394,-0.9904824406228556
1403637180388318976,49.849272,300.41330523422846,9.978266375,0.196133,-3.718354791666666,0.0537561409614253,-0.3351032163829112,0.210835773640915,43.64669989268152,126.48776444687965,-1.1544910369914874
1403637180638319104,37.966966,426.733548819509,9.26728425,-0.563882375,-3.693838166666666,-0.15079644737231,0.3260275042725407,-0.3036872898470133,37.08215484793817,116.20465375604832,-1.238101333003243
1403637180888318976,48.411608,503.0171364908987,6.905516041666667,0.4331270416666666,-3.6284605,-0.1542871058762987,0.122173047639603,-0.268082573106329,45.843690604563015,110.84170806162352,-1.2372423480076833
1403637181138319104,37.909269,305.5422860809107,11.931424166666664,0.3268883333333333,-4.519231208333333,0.0872664625997164,-0.0160570291183478,0.4286528642898072,52.43489794714476,104.80474804679756,-0.8878289079575836
1403637181388318976,49.84212,303.188435864997,10.256121458333332,0.220649625,-3.195333458333333,-0.0509636141582344,0.0844739357965255,0.0251327412287183,58.72931065813979,98.05284219992527,-1.277747206188451
1403637181638319104,33.96368,403.1616215404309,9.447072833333332,-0.7109821249999999,-3.2443667083333327,-0.0781907504893459,-0.0558505360638185,0.0495673507566389,62.17618808629541,93.99830234670351,-1.2651082410367422
1403637181888318976,39.135933,331.6408284821728,8.253930416666666,0.5148491249999999,-2.2555295,0.0,0.0349065850398865,0.1549852375770964,63.34284954216108,87.74491851228196,-0.7211668247217347
1403637182138319104,50.214291,302.2884703861558,7.444881791666666,0.1634441666666666,-3.8654545416666655,0.1005309649148733,0.1654572130890624,0.2296853295624537,62.92688872477724,83.43384036428081,-0.7904873997574384
1403637182388318976,59.995175,274.6269784765789,8.981256958333333,0.93163175,-2.549729,0.161268422884276,0.2778564169174973,0.2317797246648469,60.39760795290786,79.37018143989998,-0.7606327767454388
1403637182638319104,50.165177,390.5036790735626,8.311135875,0.7681875833333334,-3.170816833333333,0.0188495559215387,0.0607374579694026,-0.0390953752446729,56.64962013692316,75.92104041212528,-0.8201368609436628
1403637182888318976,60.982466,416.33579336596665,8.932223708333334,0.6701210833333332,-2.623278875,0.0397935069454707,-0.028623399732707,0.2345722514680378,52.27981984901575,71.7012654727474,-0.9372807656511384
1403637183138319104,54.620981,482.3363220753327,8.3356525,0.4903325,-2.89296175,0.0153588974175501,0.0453785605518525,0.1626646862858715,46.48178319539799,67.37262611201027,-0.9887236027656598
1403637183388318976,51.698208,556.9810211841695,9.896544291666666,0.809048625,-3.4731885416666666,-0.0300196631343024,0.0907571211037051,0.046774823953448,40.12191261908078,61.64063592624635,-0.9007743283966434
1403637183638319104,50.663233,561.8322222849658,8.801468374999999,0.0081722083333333,-3.5957716666666664,0.0146607657167523,-0.0069813170079773,0.1989675347273535,33.84574479656778,58.69992324749052,-0.6501401382556011
1403637183888318976,49.052477,494.2962626956256,9.814822208333332,0.7600153749999999,-2.745862,0.0083775804095727,-0.1570796326794896,0.2415535684760151,26.513670951885654,53.03563758546057,-0.9929644237117969
1403637184138319104,49.535513,661.6633358148955,10.599354208333333,-0.1879607916666666,-3.8654545416666655,-0.0481710873550434,-0.0293215314335047,-0.0230383461263251,19.03701505093193,46.559962263479534,-1.31730577326789
1403637184388318976,39.255142,438.3759830718038,8.360169125,-0.5475379583333333,-2.1983240416666665,-0.1417207352619395,-0.0356047167406843,-0.3197443189653611,24.665768357783037,40.64018474609847,-1.7190073675522513
1403637184938319104,34.470558,120.92614969191662,8.515441083333332,-0.0572054583333333,-2.4189736666666666,0.025830872929516,-0.025830872929516,0.0837758040957278,130.79673909615215,56.798355306179296,4.324662978287975
1403637195688318976,49.399137,297.01391125843026,10.174399375,0.2369940416666666,-4.445681333333333,0.0733038285837618,-0.0020943951023931,-0.0537561409614253,816.0416099949916,157.42359250666829,-0.7693730053337902
1403637195938319104,49.841404,257.8991689492606,10.010955208333332,0.5148491249999999,-4.75622525,-0.0425860337486616,0.0872664625997164,-0.1905899543177807,26.357352504082098,153.41631758657394,-0.7736200719847943
1403637196188318976,49.779653,221.50674144841005,8.981256958333333,-0.5965712083333333,-3.1299557916666663,-0.0963421747100869,0.3064798166502042,-0.1710422666954443,28.934101315107846,147.6896764835456,-1.0739148687838167
1403637196438319104,39.365769,291.4391290519212,7.935214291666666,0.5720545833333333,-2.508867958333333,-0.0328121899374933,0.1361356816555577,0.1082104136236484,35.769182329489176,142.12731913043388,-1.2284980287237204
1403637196688318976,39.121866,297.493820319647,10.256121458333332,0.4004382083333333,-4.4701979583333324,0.0579449311662117,0.0404916386462684,0.2373647782712288,46.44326663146459,135.29543999253036,-1.445216851367661
1403637196938319104,42.18316,287.64258775640354,8.793296166666666,0.34323275,-4.110620791666666,0.0356047167406843,0.1103048087260416,0.2925171826342496,55.190267172644894,127.60260556175633,-1.6442622005375398
1403637197188318976,65.307617,245.4129991365417,10.149882749999998,0.809048625,-1.887780125,0.4049163864626844,-0.0139626340159546,0.1123992038284348,61.09668309705821,119.78289106922253,-1.683152267779903
1403637197438319104,61.551094,200.5093777035864,9.5124505,0.7600153749999999,-5.0912857916666665,0.7672467391767073,-0.1445132620651305,-0.1640609496874669,64.52037360429789,113.20056188230679,-1.060726933268441
1403637202838319104,50.660371,905.679103787462,8.7279185,0.0735498749999999,-1.9204689583333328,-0.0872664625997164,0.0342084533390888,-0.1619665545850737,570.8475666382118,45.73426692671629,-0.43083099271149905
1403637203088318976,50.22788,1036.235467680887,9.013945791666666,0.1062387083333333,-2.50069575,-0.0097738438111682,0.0055850536063818,0.179419847105017,22.24842255475357,43.516978171452294,-0.4662957088866335
1403637203338319104,50.109148,968.6844678178916,8.989429166666666,-0.5475379583333333,-3.930832208333333,-0.0062831853071795,0.0307177948351002,0.1123992038284348,20.197415191095004,41.517259728594965,-0.35361980747977384
1403637203588318976,50.12846,863.9005403557337,8.670713041666666,0.024516625,-4.486542375,-0.0656243798749867,0.0293215314335047,-0.0397935069454707,17.931517841290212,38.12804643019058,-2.195028798106968
1403637203838319104,33.549309,696.2489738475178,9.765788958333331,0.9152873333333332,-3.342433208333333,0.0048869219055841,0.0321140582366956,0.0488692190558412,15.496011230193965,37.04593134547759,-0.28331707685837415
1403637204088318976,49.559355,557.3412820888782,8.629852,-0.53936575,-3.8082490833333327,0.0083775804095727,0.0893608577021096,0.054454272662223,14.354069717111443,36.00174594418415,-0.1260134700646347
1403637204338319104,50.16923,496.9512763241091,10.877209291666668,-0.0898942916666666,-4.020726499999999,-0.0321140582366956,0.0097738438111682,0.1556833692778942,9.645735220575165,36.92606169380632,1.2441285118491692
1403637204588318976,60.491323,492.4590515263818,11.432919458333332,-0.196133,-3.9144877916666654,-0.0551524043630208,-0.1103048087260416,0.15079644737231,6.017915101787393,37.59480068279794,0.06424942183303273
1403637204838319104,49.78466,400.6167831142217,9.210078791666666,0.24516625,-2.231012875,-0.0642281164733913,-0.0502654824574366,-0.0272271363311115,5.528284229852376,38.20341358758884,0.2260726734755707
1403637205088318976,49.861908,397.9210513363149,8.360169125,0.4494714583333333,-4.069759749999999,-0.0027925268031909,-0.0293215314335047,0.0970403064108847,3.258839710695079,38.715130850933505,0.12055086023146089
1403637205338319104,33.968926,371.4416498245048,10.918070333333333,0.2941994999999999,-3.138128,0.1207767842380075,-0.0153588974175501,0.0237364778271228,3.586805686839261,41.233874644554305,0.09203079594743713
1403637205588318976,49.665928,416.0161060347336,9.9047165,0.3105439166666667,-3.9880376666666666,0.0900589894029074,0.0474729556542457,0.0356047167406843,1.4252001294249477,41.69550826540668,0.07825271277439327
1403637205838319104,39.295674,475.0163301857768,9.496106083333332,1.12776475,-3.947176625,0.0314159265358979,0.0740019602845595,0.122173047639603,4.1284834034564355,42.30755432920085,0.1139823335964607
1403637206088318976,38.208723,483.330004252076,8.564474333333333,0.5965712083333333,-3.6202882916666654,0.0621337213709981,-0.0188495559215387,0.1186823891356144,6.821560792073648,43.1436082829045,0.26375151481351367
1403637206338319104,50.587416,511.51516901018056,10.272465875,0.63743225,-2.124774166666666,0.0209439510239319,0.0314159265358979,0.036302848441482,5.339360979588373,44.89278321055554,0.2881533576271167
1403637206588318976,61.726809,507.531100518291,8.041452999999999,0.0980665,-2.574245625,-0.018151424220741,-0.0774926187885482,0.0474729556542457,6.375367000883473,45.88366422605457,0.19506748767827276
1403637206838319104,50.73142,578.7888309731152,9.046634625,0.2369940416666666,-2.8847895416666667,-0.0342084533390888,0.0809832772925368,0.0293215314335047,4.241442556463372,46.95836413301894,0.22212613456706265
1403637207088318976,49.592972,561.2515719070461,11.947768583333332,0.0163444166666666,-3.530394,-0.0607374579694026,0.0809832772925368,0.1598721594826805,4.966436902596529,48.90036271930238,0.18431975162445013
1403637207338319104,50.125837,586.516162807376,7.730909083333333,0.4004382083333333,-4.788914083333333,0.025830872929516,0.0691150383789754,0.122173047639603,4.123586880743352,50.193205755014304,0.2560955727872454
1403637207588318976,34.743547,334.5942457634445,8.964912541666667,0.0653776666666666,-3.9880376666666666,0.0684169066781777,-0.208043246837724,0.3085742117525974,7.313888454433906,51.718369661388586,0.31638666987507946
1403637207838319104,49.936533,448.0812185267155,10.893553708333332,0.465815875,-3.8899711666666654,-0.0677187749773799,0.1005309649148733,-0.0020943951023931,5.523487780010903,53.48301814759,0.43125452195732805
1403637208088318976,40.01093,458.5549148448588,11.016136833333332,-0.5311935416666667,-4.151481833333333,-0.0663225115757845,0.0509636141582344,0.0062831853071795,2.9963544675496037,53.78551856358108,-0.07617092916332524
1403637208338319104,46.40913,465.6572783369199,8.768779541666666,0.171616375,-2.1411185833333333,0.0404916386462684,0.0977384381116824,0.2345722514680378,6.470770250251759,54.98573338683141,0.31596889019604646
1403637208588318976,49.637317,482.8428724744932,8.401030166666667,-0.2941994999999999,-2.4434902916666665,-0.1005309649148733,0.1179842574348166,-0.1137954672300302,2.193779993213903,55.83196005309436,0.14362102490417072
1403637208838319104,61.151981,519.7740469666281,7.297782041666666,0.1062387083333333,-2.50069575,-0.0593411945678072,0.0272271363311115,-0.046774823953448,2.843524182867582,56.50846868715051,0.17313643451769423
1403637209088318976,50.713063,432.6078471003348,12.707783958333334,-0.1144109166666666,-3.906315583333333,-0.0530580092606276,-0.0656243798749867,-0.1808161105066125,6.958149232245431,57.09547290834103,0.12480086125754042
1403637209338319104,50.191879,342.66389361021044,9.545139333333331,0.122583125,-4.4701979583333324,0.2911209192326541,-0.0383972435438752,0.0586430628670094,7.733854231183444,58.375719768290594,0.3278222958439869
1403637209588318976,38.681746,265.02947946089773,8.466407833333333,-0.1470997499999999,-2.083913125,0.1235693110411985,-0.3344050846821135,-0.0195476876223364,7.693676945681896,58.61579301743309,0.3093062217121201
1403637209838319104,44.93475,595.6301669762281,8.425546791666665,0.3759215833333333,-3.1544724166666662,0.0397935069454707,-0.064926248174189,0.1075122819228507,9.79360042625193,59.576195134353085,0.08981858155858902
1403637210088318976,50.071239,469.84458097331344,9.324489708333331,-0.1552719583333333,-4.0615875416666665,-0.0069813170079773,-0.2422517001768129,0.0893608577021096,11.166975903272771,57.942974994502514,0.021740769784813097
1403637210338319104,49.29471,656.897633184016,10.027299625,0.1797885833333333,-3.138128,0.0516617458590321,0.0055850536063818,0.200363798128949,11.912128578017308,54.6322635992423,-0.34539262781725455
1403637210588318976,47.545433,462.17565319006974,10.378704583333333,1.1931424166666666,-4.257720541666666,0.0809832772925368,0.3860668305411457,0.143116998663535,19.426296448450547,49.60709208563309,-0.6178707579853224
1403637210838319104,39.412737,737.266384891955,8.744262916666667,-0.4903325,-3.4486719166666666,0.057246799465414,0.1424188669627373,0.2799508120198904,23.06636345936105,45.84107586348525,-0.794574602191318
1403637211088318976,50.275088,591.6656654880273,9.667722458333332,0.2369940416666666,-4.46202575,0.057246799465414,0.2401573050744197,0.2799508120198904,20.779811119145837,41.230395385065584,-0.8422358078579038
1403637211338319104,48.952579,727.6238746785746,11.318508541666665,-0.83356525,-4.1024485833333335,-0.0642281164733913,0.2045525883337354,0.0488692190558412,13.824759568954276,35.88091702977497,-0.95191822626321
1403637211588318976,50.632,833.6525103887707,10.24794925,-0.122583125,-2.950167208333333,0.0404916386462684,-0.114493598930828,0.1591740277818828,9.685670925014083,31.529295295916675,-0.747584592687339
1403637211838319104,50.582409,752.3288650991158,10.909898125,0.2369940416666666,-2.8357562916666668,0.1082104136236484,-0.1123992038284348,0.3295181627765294,10.464431185055583,27.85793267509077,-0.536390130962026
1403637212088318976,34.652948,461.6725133148112,10.076332875,0.6701210833333332,-5.099458,0.0104719755119659,0.374896723328382,-0.0356047167406843,19.022817709955568,25.77301813663903,-0.1842337476962399
1403637212338319104,39.563418,703.761115349272,9.536967125,0.8172208333333333,-4.519231208333333,-0.0097738438111682,0.1375319450571531,0.0635299847725936,23.678472595054675,26.500942531323883,0.3791130140860517
1403637212588318976,39.934635,820.6362865041868,8.580818749999999,0.196133,-5.05042475,0.0041887902047863,-0.1333431548523667,0.1480039205691191,22.883024869095443,30.040811617255304,0.7145049464743565
1403637212838319104,59.157371,720.1512652614293,9.970094166666666,-0.5311935416666667,-2.018535458333333,-0.0642281164733913,-0.0760963553869527,-0.0432841654494593,25.554114980665695,34.33094916023079,0.9382548072707166
1403637213088318976,65.398931,717.8823126383414,8.793296166666666,0.34323275,-2.9011339583333333,0.0747000919853573,0.054454272662223,0.122173047639603,28.92357070415803,39.75159503421139,1.099997330461484
1403637213338319104,49.821377,677.1488006213876,8.450063416666666,0.3759215833333333,-2.6641399166666666,0.0069813170079773,0.0879645943005142,0.0872664625997164,25.909102207556035,45.73514668593715,1.2329785175725192
1403637213588318976,49.762011,674.8886883467555,8.539957708333333,0.024516625,-2.378112625,-0.0788888821901436,0.1752310569002306,-0.1703441349946465,22.027093910278968,51.99883105236419,1.3020732797148753
1403637213838319104,50.477743,740.519163680508,8.629852,0.024516625,-4.993219291666667,-0.0453785605518525,-0.0174532925199432,-0.0293215314335047,16.123299577559603,58.058162448669535,0.9607755207731898
1403637214088318976,37.875891,510.2292193013071,7.886181041666666,0.956148375,-2.827584083333333,0.2031563249321399,0.0928515162060983,0.2317797246648469,15.726190254612016,63.60079464962518,1.1533936021645488
1403637214338319104,60.462952,490.3439122225177,8.67888525,0.318716125,-4.0125542916666666,0.3818780403363593,0.1584758960810851,-0.1877974275145898,20.77137196322243,69.95515337917844,1.5070949789722476
1403637214588318976,49.49212,473.9392881315702,10.280638083333333,-0.8172208333333333,-2.8602729166666667,0.3602359576116296,0.2045525883337354,-0.4000294645571003,22.188146719711902,75.98415318007088,1.126613444996181
1403637214838319104,50.218105,595.5379715069356,7.559292708333333,-0.4004382083333333,-3.2443667083333327,0.1850049007113989,0.0516617458590321,-0.025830872929516,24.356816594694877,81.52265471501319,0.9095396873226917
1403637215088318976,49.144745,612.3207700269732,7.338643083333332,0.9724927916666666,-3.0073726666666665,-0.0383972435438752,0.1466076571675237,0.0628318530717958,27.837285092509994,84.8329482333191,0.4811668947385641
1403637215338319104,49.191236,521.9084097289807,8.850501625,0.220649625,-2.0267076666666664,0.189891822616983,0.1165879940332212,0.1996656664281513,33.210894565033776,86.4253417303687,0.1974682676284658
1403637215588318976,49.841404,450.9038497108255,11.481952708333331,-0.63743225,-4.837947333333333,0.4572762640225143,0.08307767239493,0.007679448708775,39.02216072368751,87.23803254612677,0.11154941918442773
1403637215838319104,36.786556,305.017632533662,9.545139333333331,-0.34323275,-3.28522775,0.5557128338349946,-0.2743657584135086,0.0411897703470661,43.11312444797078,87.39449930286948,0.017398992699767746
1403637216088318976,50.539971,388.00060111182506,9.455245041666666,-0.1797885833333333,-3.685665958333333,0.3741985916275842,-0.0509636141582344,0.0788888821901436,46.785175519994134,87.88790288443535,0.11427952848538325
1403637216338319104,57.606697,446.2567329592936,9.283628666666663,-0.5230213333333333,-2.508867958333333,0.1235693110411985,0.1912880860185785,0.0551524043630208,46.35241865027882,88.24279499709017,0.04839948165655983
1403637216588318976,36.711216,513.3541726137261,10.991620208333332,0.0326888333333333,-2.7213453750000003,0.0202458193231342,0.0809832772925368,0.1619665545850737,43.103307803998604,87.93902747696553,-0.32821306268969863
1403637216838319104,50.64559,543.1893077837102,9.798477791666668,0.3268883333333333,-3.8245935,-0.1005309649148733,0.1563815009786919,0.0272271363311115,39.7212646916643,86.96209887863489,-0.18082661680952583
1403637217088318976,58.511734,470.7664526834751,8.139519499999999,0.5230213333333333,-2.165635208333333,0.028623399732707,-0.2213077491528809,0.3714060648243933,36.190155864272896,86.22395094079748,-0.2333189132278619
1403637217338319104,36.010027,598.200848394313,8.302963666666667,0.1144109166666666,-3.023717083333333,-0.0160570291183478,-0.0397935069454707,0.2478367537831947,31.545454346204277,84.64371859676596,-0.4155406523783398
1403637217588318976,50.377369,615.1396214083906,7.1588545,0.2860272916666666,-2.034879875,0.1005309649148733,0.0062831853071795,-0.1110029404268393,26.57037705797479,81.65035707840424,-0.7322603458172807
1403637217838319104,50.296783,373.7524818148637,10.958931375,0.3595771666666666,-3.8409379166666655,0.4167846253762458,-0.0230383461263251,-0.4488986836129415,22.66369294301083,77.53449112200693,-0.7860673868377859
1403637218088318976,36.543131,392.9421761295811,9.880199875,0.5965712083333333,-3.317916583333333,0.3441789284932817,-0.0481710873550434,0.1054178868204575,21.578148345249378,72.61138815587897,-1.054637481840544
1403637218338319104,50.866127,435.56573990652566,8.368341333333333,0.2124774166666666,-2.941995,0.0265290046303138,-0.0223402144255274,-0.0425860337486616,27.549066867433186,66.81975689416487,-1.1517309352639273
1403637218588318976,42.049169,285.3387150895776,9.496106083333332,1.046042666666667,-2.4189736666666666,0.0083775804095727,0.0370009801422797,0.1466076571675237,32.96870932770176,60.22130002014217,-1.1820674544597267
1403637218838319104,58.634281,411.57880825285446,9.373522958333332,0.5148491249999999,-3.015544875,-0.0914552528045028,-0.0691150383789754,-0.0244346095279206,36.7922785991384,55.78933749506869,-0.9629405095761285
1403637219088318976,49.607754,605.4452685020982,11.22861425,0.220649625,-4.339442625,-0.007679448708775,0.0293215314335047,0.0621337213709981,42.88739350805258,50.46586868803614,-1.0401612275571637
1403637219338319104,60.337543,678.2058988987327,10.141710541666669,-0.0653776666666666,-2.9338227916666666,-0.0223402144255274,-0.0251327412287183,0.1452113937659282,44.97226759356364,44.62024312919144,-1.1661303414317956
1403637219588318976,56.244135,383.17774319234815,9.986438583333332,0.63743225,-3.2443667083333327,0.0097738438111682,-0.3853686988403479,0.1542871058762987,39.6196072797941,41.283207813958924,-0.4348230886846096
1403637219838319104,39.623738,957.049558987602,8.049625208333332,-0.3268883333333333,-3.3996386666666667,0.025830872929516,0.1054178868204575,0.0879645943005142,45.30689872069486,40.97573568972843,0.08841888214659832
1403637220088318976,40.120124,976.279853247174,10.54214875,-0.1797885833333333,-2.7131731666666665,-0.0795870138909414,0.0663225115757845,0.0837758040957278,43.38417382850889,42.95479651442699,0.5128416940128844
1403637220338319104,49.321413,672.9559964153583,8.752435125,0.269682875,-3.57942725,0.0886627260013119,0.2813470754214859,0.314857397059777,41.19420171147222,46.499154499415496,0.8356948784583835
1403637220588318976,54.884195,842.0190266742574,8.106830666666665,0.6864655000000001,-1.2830367083333332,0.0251327412287183,0.1096066770252439,0.0928515162060983,38.84171204562576,50.64728746027664,0.9652551900969044
1403637220838319104,60.705662,1011.7605083055996,8.065969625,0.6782932916666666,-2.966511625,-0.0418879020478639,-0.0523598775598298,0.0551524043630208,36.60227048257351,54.65994188517194,0.7449647622170588
1403637221088318976,60.963869,1190.5040019960115,8.866846041666665,-0.2288218333333333,-2.427145875,-0.189891822616983,-0.0607374579694026,0.1773254520026238,31.85935430609166,59.08495874676469,0.6431179887777745
1403637221338319104,39.374352,1651.7912314695088,8.548129916666667,0.367749375,-1.96133,-0.2324778563656447,0.0209439510239319,0.2038544566329376,29.91677998635385,61.50601793043459,0.6072643408235123
1403637221588318976,38.467884,1690.9590133446638,8.204897166666667,-0.0653776666666666,-2.3862848333333333,-0.1521927107739055,-0.0230383461263251,0.0788888821901436,26.933237782063046,63.922778434447295,0.4012441580033723
1403637221838319104,55.283069,2188.110946954416,8.564474333333333,0.8662540833333333,-2.5905900416666663,-0.1158898623324234,0.0048869219055841,0.2164208272472968,26.019684882770733,64.80058387806918,0.18236845079803743
1403637222088318976,50.331354,1037.9786158816837,8.858673833333333,-0.4086104166666666,-3.268883333333333,-0.418879020478639,-0.0370009801422797,0.2659881780039358,24.007958765886634,64.81501936077959,0.056759518019333655
1403637222338319104,52.088975,2332.131374372339,8.915879291666666,0.53936575,-2.280046125,-0.3022910264454179,0.2150245638457014,0.2436479635784084,22.01488859545063,64.363344301289,-0.07561490697048612
1403637222588318976,49.292326,2096.972015167178,6.987238125,-0.1470997499999999,-3.097266958333333,-0.1724385300970397,0.0565486677646162,0.0879645943005142,18.508046471397932,63.90035163682568,-0.04118754710351169
1403637222838319104,38.779973,1433.4645456136618,10.926242541666667,0.661948875,-3.489532958333333,-0.0118682389135614,-0.2024581932313422,0.075398223686155,10.749185187122052,64.20195257302129,0.04177045889056785
1403637223088318976,51.809549,2850.562395996712,9.26728425,-0.612915625,-2.239185083333333,-0.0244346095279206,-0.0153588974175501,0.0237364778271228,2.9542647488184715,64.52723875657259,0.1483229678322857
1403637223338319104,61.209679,1088.204230090425,10.681076291666663,0.2615106666666666,-3.015544875,0.0356047167406843,0.2869321290278678,0.0188495559215387,9.031101685431842,67.03155715894849,0.301725784084212
1403637223588318976,49.508333,1473.9199031057842,7.722736874999999,0.612915625,-2.1411185833333333,0.0167551608191455,0.1850049007113989,-0.0111701072127637,14.702408193871786,68.61391379593886,0.30075663783885886
1403637223838319104,50.848008,2274.709218147661,8.932223708333334,-0.0653776666666666,-3.407810875,-0.0174532925199432,0.085870199198121,0.0460766922526503,11.62229329571031,69.39843066133,0.12015049494181085
1403637224088318976,64.884901,2632.1307695062965,9.545139333333331,-0.2288218333333333,-3.4650163333333333,-0.0349065850398865,0.0837758040957278,0.0809832772925368,5.61557444236499,69.63299056334665,0.01236976555399849
1403637224338319104,62.870264,2706.490561655072,9.814822208333332,0.34323275,-2.950167208333333,0.0153588974175501,0.0279252680319092,0.0802851455917391,0.6953255385141758,69.4129812163419,-0.05826207217184276
1403637224588318976,48.601389,2707.153655734039,9.087495666666666,-0.269682875,-3.4241552916666667,0.0446804288510548,0.0774926187885482,0.1354375499547599,5.993951731104582,68.78439859807114,-0.14975564387610518
1403637224838319104,49.42441,2829.909087248749,9.692239083333332,-0.04903325,-4.690847583333333,-0.0160570291183478,0.0230383461263251,0.0139626340159546,4.9352399644503135,68.81627765591631,0.06985471675068311
1403637225088318976,56.275367,2511.0170801974564,9.643205833333331,0.04903325,-4.339442625,0.0,0.0579449311662117,-0.0097738438111682,4.195912565603699,68.617660157591,-0.07175015068828827
1403637225338319104,38.939476,2393.8143476830987,10.158054958333333,-0.5148491249999999,-3.5957716666666664,-0.0397935069454707,0.046774823953448,0.0760963553869527,8.94087150785582,68.16717591885195,-0.08888390023551551
1403637225588318976,59.463024,2548.0106372996165,10.109021708333332,0.612915625,-2.9338227916666666,0.0020943951023931,-0.0900589894029074,0.0614355896702004,7.134344586776054,68.45417802143628,0.18295617424142563
1403637225838319104,48.889875,2584.0343011051173,11.310336333333332,0.3268883333333333,-3.6448049166666654,0.0216420827247296,-0.0670206432765822,0.1375319450571531,5.528161506251544,70.00248066353029,0.4207641290532109
1403637226088318976,50.232887,1474.5116206605005,10.076332875,0.2860272916666666,-3.2443667083333327,0.0041887902047863,0.1005309649148733,0.0991347015132779,10.940546753050478,72.33506862881376,0.45426808244441474
1403637226338319104,49.977302,2230.416694044869,7.191543333333333,0.8907707083333333,-3.554910625,0.0048869219055841,-0.1905899543177807,0.0069813170079773,10.550937586285466,74.44052524289661,0.3909034800457931
1403637226588318976,50.307751,2657.6180187444584,11.334852958333332,0.122583125,-4.347614833333333,-0.0027925268031909,0.0139626340159546,-0.0055850536063818,10.597548130293335,76.12731677384372,0.3357213075243237
1403637226838319104,59.903145,2549.985892233564,8.940395916666665,-0.7763597916666666,-3.710182583333333,-0.0013962634015954,0.007679448708775,0.1452113937659282,12.16667849667619,78.33729175622788,0.4791444603472428
1403637227088318976,32.641411,1210.6543459131074,11.481952708333331,-0.8662540833333333,-4.037070916666667,0.08307767239493,0.1103048087260416,0.4105014400690662,13.235528381988807,81.17263694541906,0.5268344914297387
1403637227338319104,67.208767,2822.758912260241,9.022118,0.0163444166666666,-3.587599458333333,-0.1193805208364121,0.0621337213709981,-0.0684169066781777,10.099437170581359,83.14421440006844,0.31890916215535015
1403637227588318976,50.400019,2384.016962881899,8.5317855,0.2533384583333333,-3.8654545416666655,0.0356047167406843,-0.046774823953448,0.189891822616983,7.390923655985723,84.45284889592861,0.2393118478049132
1403637227838319104,50.253153,2625.122882036783,9.062979041666669,-0.4576436666666666,-4.053415333333333,0.0041887902047863,0.1996656664281513,-0.0069813170079773,4.61964488779862,85.16036498177458,0.003041427676791386
1403637228088318976,50.14658,2526.193193633436,10.2969825,-0.0326888333333333,-4.519231208333333,0.0265290046303138,0.1968731396249603,0.0760963553869527,3.48697859814255,85.07050055596748,-0.05113261848151751
1403637228338319104,50.451756,2776.2601513869577,10.133538333333334,0.6047434166666666,-3.759215833333333,0.0132645023151569,-0.0209439510239319,-0.0314159265358979,3.771611098895902,85.09711916524607,0.048561170279654675
1403637228588318976,50.0319,2731.404248727654,10.337843541666668,-0.7191543333333333,-3.742871416666666,-0.0418879020478639,0.0502654824574366,-0.0090757121103705,2.701215656234707,85.6352104608509,0.17983658932233482
1403637228838319104,50.399542,2320.9704345816635,9.161045541666669,-0.93163175,-3.652977125,0.0202458193231342,-0.200363798128949,0.208043246837724,5.298943471456412,86.72475617554706,0.23311608098079262
1403637229088318976,49.951077,2571.6088807132905,9.880199875,-0.1144109166666666,-4.535575625,-0.0195476876223364,0.0453785605518525,0.0265290046303138,4.8021597655505195,87.46595501118114,0.14908572301290235
1403637229338319104,33.277512,1815.965124531858,9.422556208333331,0.3023717083333333,-4.143309625,-0.1473057888683213,-0.0139626340159546,0.2345722514680378,7.056301790173837,88.16319085165959,0.15590337729081227
1403637229588318976,39.958477,1168.526153058935,8.825985,0.5148491249999999,-3.0073726666666665,-0.4056145181634821,-0.2031563249321399,0.5892231554732855,10.103067518832695,89.52515102321182,0.16844349133323533
1403637229838319104,50.032139,533.5262110725808,9.291800875,0.1552719583333333,-3.1463002083333333,-0.7407177345463933,0.3141592653589793,-0.0272271363311115,9.611190840858134,89.88791690177467,-0.10024842380764198
1403637230088318976,49.984217,698.5414742383856,7.183371125,0.1552719583333333,-2.7131731666666665,-0.5612978874413763,-0.1947787445225671,0.2988003679414292,9.822276452858727,88.9258912413625,-0.1271086345452801
1403637230338319104,39.673567,1895.516320397104,10.288810291666666,0.3840937916666667,-3.57942725,-0.228987197861656,0.122173047639603,0.1473057888683213,5.349407563467543,88.92869233053469,0.044082198292556996
1403637230588318976,49.54052,1898.49549655502,11.841529875,0.6864655000000001,-4.36395925,-0.2101376419401172,0.1877974275145898,0.1926843494201739,4.126079612670546,89.13640970013212,0.03743839894758594
1403637230838319104,60.085297,954.9668609488588,8.695229666666666,0.0,-2.3862848333333333,-0.476125819944053,-0.3546509040052477,0.3769911184307752,8.040056947097865,89.88673874151573,0.18774685815348846
1403637231088318976,39.455652,647.5223706522561,7.878008833333333,-0.1634441666666666,-2.811239666666667,-0.7127924665144842,-0.0991347015132779,0.3371976114853044,6.1884507085327565,90.24339245590593,-0.04491153768287859
1403637231338319104,60.826778,655.2993288720769,6.676694208333332,0.980665,-1.936813375,-0.8398524360596713,0.1340412865531645,0.4670501078336825,7.175511342646293,90.07406046065589,0.10135266592929781
1403637231588318976,44.554234,549.6830204667649,9.863855458333331,0.8499096666666667,-4.85429175,-0.901288025729872,0.0174532925199432,0.4328416544945937,16.511963242590596,88.52439510240121,-0.6081651330465121
1403637231838319104,65.509319,519.5832581839238,11.637224666666668,-0.269682875,-4.633642125,-0.7463027881527753,-0.0418879020478639,0.3441789284932817,19.839416626307138,86.79729546303179,-0.4607619602283677
1403637232088318976,39.204598,389.7891327322127,9.022118,0.8008764166666666,-3.6284605,-0.543844594921433,0.5354670145118603,0.4000294645571003,16.5325368530417,81.3855632557142,-2.633403146009485
1403637232338319104,66.274881,448.3083264589268,8.866846041666665,-0.3840937916666667,-2.999200458333333,-0.5738642580557356,0.2024581932313422,0.0237364778271228,17.67361637769809,77.20190060188922,-0.7346133500060432
1403637232588318976,64.954757,482.2844468964118,10.386876791666666,0.4576436666666666,-3.170816833333333,-0.5305800926062761,-0.2136283004441059,0.4712388980384689,21.960881400243455,75.67155055189961,-0.3979626782834771
1403637232838319104,49.721956,450.953423196357,10.370532375,-0.04903325,-4.772569666666667,-0.4356341812977846,-0.2764601535159017,0.2722713633111154,26.333899125007036,72.59635261020908,-0.5830238996978778
1403637233088318976,60.5371,527.7182201379625,8.123175083333333,-0.0653776666666666,-3.097266958333333,-0.1989675347273535,-0.1452113937659282,-0.0740019602845595,35.25519873503015,69.50044030597438,-0.548566654238769
1403637233338319104,49.690008,739.153554669694,8.09048625,1.4709975,-3.636632708333333,0.0216420827247296,-0.2408554367752175,0.0090757121103705,36.787500477335286,82.45702630841704,0.17504464890168947
1403637233588318976,48.933744,379.1101281972216,6.472389,-1.0215260416666667,-2.043052083333333,-0.2157226955464991,0.5473352534254218,-0.7379252077432026,43.394079195295994,77.14453384485367,-1.57595961891154
1403637233838319104,60.232401,422.4426794634296,8.360169125,0.0735498749999999,-4.388475875,-0.1375319450571531,0.2645919146023404,-0.2527236756887789,34.74878440114114,66.18146044909658,-0.4900071385335991
1403637234088318976,66.591978,459.986103722299,10.975275791666666,-0.8417374583333332,-4.306753791666666,-0.1675516081914556,0.143116998663535,-0.239459173373622,13.68534237186983,61.104045479264045,-0.92460675002458
1403637234338319104,50.699234,326.2780763334811,10.239777041666668,0.8417374583333332,-4.028898708333333,0.0614355896702004,0.1724385300970397,0.4293509959906051,16.692032319687264,56.27958353057786,-0.9009507509607815
1403637234588318976,50.525904,250.74265494400385,9.250939833333334,-0.024516625,-3.407810875,0.3776892501315729,0.265290046303138,0.3364994797845067,40.700582966190005,51.817783539400196,-0.8618297829181145
1403637234838319104,64.780474,309.82812798552965,10.354187958333334,0.6946377083333333,-4.641814333333333,0.4914847173616032,-0.0356047167406843,0.3043854215478111,50.25006107996699,49.37859591397775,-0.3888291279460816
1403637235088318976,49.365283,374.7003013152561,11.22861425,0.4249548333333333,-3.2525389166666665,0.4677482395344803,0.0781907504893459,-0.0006981317007977,53.61258269060715,49.198526940560896,0.12252931615437745
1403637235338319104,49.156428,342.63213441110315,10.24794925,0.7681875833333334,-3.702010375,0.2694788365079245,-0.2883283924294632,0.0558505360638185,48.788377563914416,51.676102378780065,0.18209407709086634
1403637235588318976,47.185659,442.5341110954094,10.141710541666669,0.5066769166666666,-4.3312704166666665,0.2771582852166995,-0.0921533845053006,-0.0900589894029074,47.10473104588029,53.2846326972381,0.31884141256391274
1403637235838319104,38.66601,326.6659985266523,9.700411291666663,0.2533384583333333,-3.726527,0.2213077491528809,0.3658210112180114,-0.400727596257898,47.50201286777486,55.80105280563904,0.3111990038292092
1403637236088318976,58.912515,443.7707917575194,10.313326916666666,-0.024516625,-4.045243125,0.3860668305411457,0.0977384381116824,-0.0886627260013119,53.366789694265606,58.00678298824579,0.3841066545114771
1403637236338319104,41.392564,403.0156966360658,10.525804333333332,0.9888372083333332,-3.407810875,0.4516912104161324,0.0998328332140756,-0.0328121899374933,63.682488484790625,58.56937437288501,-0.07688999262484941
1403637236588318976,49.42894,365.2846603157239,9.782133375,0.465815875,-4.0125542916666666,0.2317797246648469,0.1424188669627373,0.1696460032938488,73.32768193801755,57.44246469514167,-0.24252865840318094
1403637236838319104,50.047159,289.74467209995146,9.643205833333331,0.4086104166666666,-3.8409379166666655,0.3658210112180114,0.3001966313430246,0.1096066770252439,78.7353770793802,56.89255742290131,-0.1368950502492723
1403637237088318976,62.674046,282.53304411768056,11.32668075,0.0,-4.225031708333333,0.3337069529813158,0.5340707511102649,0.2750638901143063,82.43589343847546,55.262069706317774,-0.7992147794724787
1403637237338319104,58.760643,589.285654913144,9.422556208333331,0.1307553333333333,-4.298581583333333,0.3155555287605747,-0.0970403064108847,0.1598721594826805,79.60270079642362,52.72626873510138,-0.3580075170534798
1403637237588318976,45.497655,660.3436788596664,10.909898125,1.1195925416666666,-2.606934458333333,0.1801179788058148,0.028623399732707,0.2101376419401172,79.93387216442346,48.644430355430586,-0.7297695038434142
1403637237838319104,38.742304,875.6059378715269,8.654368624999998,0.8580818749999999,-3.1463002083333333,0.0006981317007977,-0.1731366617978375,0.3693116697220001,79.01062502677837,42.635293259075574,-1.1269680549489394
1403637238088318976,49.721718,1099.581391227073,7.804458958333332,0.0326888333333333,-2.4189736666666666,-0.3665191429188092,-0.2855358656262722,0.4907865856608055,70.0797213083122,30.94197580308186,-1.6634862632285774
1403637238338319104,45.353413,580.8274203967756,9.716755708333332,0.34323275,-2.034879875,-0.668810169364227,0.0244346095279206,0.5976007358828584,52.57746659844871,23.152842130571976,-1.330096731329224
1403637242688318976,61.026335,180.9760548010832,11.065170083333332,-0.392266,-3.652977125,0.3832743037379548,0.0139626340159546,0.2136283004441059,877.03284915263,55.84705546290309,0.41248353246088953
1403637242938319104,49.458027,238.8110106101074,9.733100125,0.2615106666666666,-4.200515083333333,0.2359685148696333,0.1368338133563554,0.0656243798749867,25.700687662303988,56.587558342227716,0.015027221182428718
1403637243188318976,50.00186,232.8424177827725,9.610517,-0.2778550833333333,-3.67749375,0.0844739357965255,-0.3043854215478111,0.1347394182539622,27.86297232483836,58.047824309192855,0.7595819872365155
1403637243438319104,49.35956,294.23394474024747,7.755425708333333,-0.1797885833333333,-3.693838166666666,-0.0034906585039886,-0.0356047167406843,0.0642281164733913,38.45354261142252,57.22091210590139,-0.29768485651469945
1403637243688318976,50.808192,275.1079676791448,10.002783,0.6782932916666666,-3.366949833333333,0.0,-0.1870992958137921,0.249931148885588,43.44103781703318,54.43355990417891,-0.6210267664499369
1403637243938319104,50.022602,303.0634425514183,9.471589458333332,0.7191543333333333,-3.08909475,0.0090757121103705,-0.0453785605518525,0.2981022362406315,44.06959539786093,52.40845770350252,-0.428771083911883
1403637244188318976,60.366392,513.8615446050039,10.975275791666666,-0.122583125,-3.4977051666666665,-0.0984365698124801,0.0726056968829641,0.0886627260013119,41.671464700464895,51.07551222074955,0.05037849241031722
1403637244438319104,50.894499,510.8022867144024,10.272465875,0.2124774166666666,-3.669321541666666,0.0607374579694026,-0.1445132620651305,0.0020943951023931,37.18038584557905,49.50176498756218,-0.3676022933186758
1403637244688318976,45.851707,415.18748894422026,7.673703624999999,0.5148491249999999,-2.974683833333333,0.2373647782712288,0.0335103216382911,-0.2275909344600605,36.20401869767004,50.970385608668025,0.17005630402744742
1403637244938319104,61.502695,357.36949692140854,8.368341333333333,0.1470997499999999,-3.0564059166666664,0.1989675347273535,-0.0963421747100869,0.1668534764906579,34.661767827257194,51.44656426415462,0.1858151250707536
1403637245188318976,50.491333,505.3822464490053,11.0815145,-0.7927042083333332,-2.165635208333333,0.0425860337486616,-0.1151917306316257,0.054454272662223,34.36149452483204,52.313504506609455,0.01734532791078891
1403637245438319104,49.757004,552.9627061857898,9.112012291666666,1.1359369583333332,-4.8216029166666665,0.0293215314335047,0.0551524043630208,-0.0809832772925368,32.38037073992215,55.15944355849417,0.6316982032205871
1403637245688318976,61.0497,416.5551396654132,8.760607333333333,-0.122583125,-4.192342875,0.2617993877991494,-0.0216420827247296,-0.1165879940332212,32.159831193299155,58.76645596394727,0.6661247768458907
1403637245938319104,49.461126,341.96501892510435,12.838539291666663,-0.3023717083333333,-4.404820291666666,0.6450736915371043,0.1487020522699168,-0.1542871058762987,33.349215835280226,62.98399021202691,0.9079927954127811
1403637246188318976,50.220251,356.5577088999065,6.709383041666666,0.269682875,-1.7978858333333332,0.91106186954104,0.0356047167406843,-0.1668534764906579,31.6530112789433,67.84020218888585,0.9206117966061953
1403637246438319104,49.178124,363.25875126803527,7.698220249999999,0.784532,-3.489532958333333,0.8915141819187036,0.1961750079241626,-0.4551818689201211,29.517129256635087,71.78438524513328,0.9657377480489657
1403637246688318976,51.010132,401.6195998199095,10.092677291666664,-1.005181625,-3.77556025,0.8126252997285598,0.2303834612632515,-0.200363798128949,25.02143975277779,74.04059640667734,0.45971430075611863
1403637246938319104,55.099726,352.6724766498775,10.844520458333331,0.024516625,-3.170816833333333,0.6583381938522611,-0.2736676267127109,-0.1850049007113989,24.95321117493669,76.47555979277556,0.48833341257947893
1403637247188318976,60.460806,447.9974413141415,8.948568125,-0.93163175,-3.996209875,0.2010619298297467,-0.2457423586808016,0.1103048087260416,24.30770127568126,77.00691686110041,0.2559802479980533
1403637247438319104,49.67761,406.6096936031395,7.338643083333332,0.5230213333333333,-3.2035056666666666,0.0139626340159546,0.4593706591249075,0.1836086373098034,23.146094278577177,75.07250610049206,-0.33851791427191813
1403637247688318976,50.823211,583.3854232917487,9.308145291666667,0.2778550833333333,-2.606934458333333,0.1361356816555577,-0.0160570291183478,-0.1912880860185785,27.800860766400742,72.50028715484912,-0.7200414892592732
1403637247938319104,59.976339,514.9379335317766,10.207088208333332,0.8580818749999999,-3.219850083333333,0.3909537524467298,0.2611012560983517,0.1975712713257581,32.006153594228465,67.61226837879045,-0.5378044333932195
1403637248188318976,49.803973,337.27071041566336,9.888372083333332,1.005181625,-3.1463002083333333,0.2897246558310587,-0.3057816849494065,0.0027925268031909,39.080540938886124,62.878545504626125,-1.0858105317947206
1403637248438319104,62.372207,479.7135402076683,7.878008833333333,0.7109821249999999,-3.015544875,0.0837758040957278,0.1193805208364121,0.0523598775598298,39.30732318078419,56.46994553108179,-1.2411627139515815
1403637250288318976,39.018154,246.46955437648657,7.444881791666666,0.5883989999999999,-3.38329425,0.3113667385557884,0.0670206432765822,0.2436479635784084,373.4258596904137,7.352027468307833,-266.84731814210437
1403637250538319104,49.188614,327.07841619500493,8.87501825,-0.0653776666666666,-3.1054391666666663,0.0740019602845595,-0.018151424220741,0.1968731396249603,49.919899866375644,15.332529141466688,1.5770442100036668
1403637250788318976,61.058283,804.2184012857152,10.770970583333334,0.0735498749999999,-4.118792999999999,0.0593411945678072,0.0670206432765822,0.0307177948351002,42.487044481337115,23.363000453074985,1.3417514949346376
1403637251038319104,50.025701,910.137963326986,10.934414749999998,-0.0326888333333333,-3.28522775,0.0900589894029074,-0.0335103216382911,0.0977384381116824,35.61901796616632,30.461049257589394,1.7422353346979946
1403637251288318976,61.243772,826.6643427580811,9.80665,0.0408610416666666,-3.178989041666666,0.1417207352619395,0.0984365698124801,-0.0844739357965255,31.503370560993417,35.85653366281912,0.985489430063474
1403637251538319104,55.08256,734.5416158741866,8.262102624999999,0.196133,-2.9174783749999995,0.2841396022246769,0.0537561409614253,-0.0900589894029074,26.942868918633263,39.736805687494495,0.7392260155384278
1403637251788318976,49.876929,971.4388038973416,7.101649041666666,1.005181625,-1.830574666666667,0.1312487597499735,0.0090757121103705,-0.1012290966156711,21.846996221673933,42.55951809235332,0.5140725902759584
1403637252038319104,38.297891,1065.674464340628,11.269475291666666,-0.196133,-3.963521041666666,0.0565486677646162,0.1633628179866692,-0.0502654824574366,15.937940563375863,44.78326139637625,0.3862682567390152
1403637252288318976,49.854278,1217.6129288096884,8.057797416666666,-0.1552719583333333,-2.3454237916666667,0.0125663706143591,-0.0383972435438752,0.1291543646475804,13.248579704197292,46.2970446521635,0.3978060814029334
1403637252538319104,65.755606,1029.7949882029936,8.956740333333332,-0.73549875,-2.30456275,-0.0202458193231342,-0.1521927107739055,0.122173047639603,11.436608799990635,47.97775015695229,0.29764130249336773
1403637252788318976,59.97777,876.2246072941372,9.128356708333332,-0.2288218333333333,-3.309744375,0.0202458193231342,-0.2275909344600605,0.1759291886010284,11.898207111788176,49.45700405600192,0.2671245817762511
1403637253038319104,49.306393,1134.0718810263045,10.076332875,-0.5557101666666666,-5.311935416666666,-0.0670206432765822,0.0272271363311115,-0.0335103216382911,5.7302193242879715,50.28297889903863,0.1647556654731943
1403637253288318976,50.167799,1206.2071112289798,8.245758208333333,0.1552719583333333,-3.759215833333333,-0.0272271363311115,-0.0335103216382911,0.1165879940332212,2.1850639684855806,50.93280407841445,0.06295923572231032
1403637253538319104,39.30521,1224.7876425885063,9.9047165,0.0163444166666666,-3.857282333333333,-0.0104719755119659,0.1068141502220529,0.1172861257340189,4.563273926807358,51.26349105758361,0.013986240662632099
1403637253788318976,47.988176,1061.5000396447529,9.733100125,0.1144109166666666,-4.527403416666666,-0.0774926187885482,0.1598721594826805,0.0321140582366956,5.0609204595449615,51.373914234726534,0.013794180971089531
1403637254038319104,55.577039,964.3430525647304,9.945577541666664,0.7436709583333333,-3.4731885416666666,-0.0202458193231342,0.2282890661608583,0.0516617458590321,0.7477672715131257,51.614777541625614,0.05776164015320262
1403637254288318976,61.383248,988.7350492856738,7.861664416666666,0.171616375,-2.3372515833333334,0.15079644737231,-0.1047197551196597,-0.0600393262686049,3.955178941109161,52.447037336372645,0.16817062680676287
1403637254538319104,44.852734,1000.31573535417,8.433719,0.53936575,-3.6448049166666654,0.1521927107739055,-0.0691150383789754,0.064926248174189,5.601642824498858,53.52315695049212,0.22167527538223908
1403637254788318976,54.860115,1031.9383252114912,8.18855275,-0.24516625,-2.124774166666666,0.1033234917180643,0.1082104136236484,0.1710422666954443,5.8160849221722435,54.62566234162253,0.27636833003013095
1403637255038319104,38.36155,1173.5506192256216,7.608325958333333,0.4821602916666666,-4.118792999999999,0.036302848441482,0.0760963553869527,-0.0055850536063818,8.451303102447564,55.89091334700499,0.2505174700879209
1403637255288318976,45.080662,960.6340098676774,8.351996916666666,-0.1470997499999999,-3.219850083333333,0.1528908424747032,-0.0684169066781777,0.0767944870877505,9.555042099955731,57.628746337060775,0.33211260108681984
1403637255538319104,49.326419,867.4910298570196,10.533976541666666,0.7191543333333333,-2.827584083333333,0.2883283924294632,0.0237364778271228,-0.0530580092606276,9.539983162054883,59.646428329410696,0.30227778433076224
1403637255788318976,50.751209,697.3721847524201,10.4931155,0.4576436666666666,-4.429336916666666,0.3867649622419434,-0.0635299847725936,-0.0747000919853573,13.062826310324432,61.36742816453996,0.38889710155756774
1403637256038319104,73.407174,720.3669824687541,7.828975583333331,0.1307553333333333,-1.9776744166666664,0.1947787445225671,0.0118682389135614,-0.0733038285837618,14.03143430444716,63.47000025029585,0.40564403730074616
1403637256288318976,66.585779,897.3495699145942,8.588990958333333,-0.3514049583333333,-3.0073726666666665,0.036302848441482,0.0223402144255274,0.025830872929516,15.737854709430682,65.84010994495073,0.4409292768234252
1403637256538319104,39.438724,976.689627651715,9.1201845,1.005181625,-3.162644625,-0.0048869219055841,0.0914552528045028,0.064926248174189,17.851709177492573,68.37701812266378,0.5422537079466281
1403637256788318976,62.395096,760.0974348009619,8.842329416666665,0.1552719583333333,-1.81423025,0.0342084533390888,-0.075398223686155,0.3260275042725407,20.25688006171104,71.42010760318718,0.7021020824330151
1403637257038319104,50.029278,773.6244507084534,10.452254458333334,0.8907707083333333,-3.571255041666667,0.1284562329467826,0.0942477796076938,-0.1165879940332212,20.05548695808484,74.35161720578988,0.542847486857923
1403637257288318976,38.839341,897.5499768561601,8.809640583333332,0.3595771666666666,-3.759215833333333,0.1110029404268393,-0.0006981317007977,-0.057246799465414,18.29181077476423,76.64894572150625,0.5487852184365778
1403637257538319104,49.638748,876.8372199621235,10.019127416666668,0.1389275416666666,-3.415983083333333,0.0823795406941323,-0.0998328332140756,0.0698131700797731,17.787102237062115,79.24848813383062,0.50852393049027
1403637257788318976,50.169706,731.5109309328417,9.80665,1.1522813749999998,-5.14849125,0.1410226035611418,-0.0914552528045028,0.0663225115757845,19.424613666536754,82.15037232863281,0.5896772215048145
1403637258038319104,50.153256,596.0314680877142,8.948568125,0.220649625,-2.4516625,0.3050835532486088,-0.046774823953448,0.0321140582366956,21.687218288613018,84.96807790479463,0.6517683905700693
1403637258288318976,60.266018,505.3206496563487,9.716755708333332,0.6864655000000001,-4.748053041666666,0.2925171826342496,0.2757620218151041,-0.0900589894029074,20.8859011764437,88.14934749544551,0.6571222735006188
1403637258538319104,50.276994,381.0845743612175,10.852692666666666,-0.1797885833333333,-3.87362675,0.1494001839707146,-0.1340412865531645,0.1891936909161853,20.12766609938994,91.8360918384011,0.6758095987372883
1403637258788318976,50.056934,568.4496268784376,8.711574083333332,-0.7681875833333334,-2.40262925,-0.0090757121103705,0.0321140582366956,0.1151917306316257,18.84774932096995,94.9710828426793,0.5947442260386993
1403637259038319104,48.385859,583.6613552597106,10.476771083333333,0.0408610416666666,-3.554910625,-0.0411897703470661,0.0153588974175501,0.2101376419401172,16.353340270358096,97.5519203384797,0.5572485150149618
1403637259288318976,49.923182,662.7099602848051,8.025108583333333,-0.220649625,-2.8439285,-0.0523598775598298,0.007679448708775,0.1005309649148733,13.532021501739782,100.05051736990586,0.4700573621435069
1403637259538319104,49.829483,702.4387081280286,7.812631166666666,-0.2369940416666666,-2.40262925,0.0,-0.0034906585039886,0.1291543646475804,12.09364771317953,101.53128736300714,-0.23776501524790206
1403637259788318976,50.073624,784.8029471755796,9.700411291666663,-0.3105439166666667,-2.6641399166666666,-0.0586430628670094,-0.0886627260013119,-0.0809832772925368,6.06534799920026,102.22090648458158,0.019574466474097107
1403637260038319104,51.056147,907.104162495724,8.793296166666666,-0.0326888333333333,-2.868445125,-0.0321140582366956,0.018151424220741,-0.0041887902047863,5.093418211049938,101.6597357154998,-0.0963710668327451
1403637260288318976,58.145285,623.1801621978576,8.368341333333333,-0.24516625,-3.742871416666666,-0.0432841654494593,-0.0879645943005142,-0.1319468914507713,6.979771348896832,100.0229101218915,-0.186513944171935
1403637260538319104,43.162823,368.292012652897,8.294791458333332,0.34323275,-3.08909475,0.0188495559215387,-0.3085742117525974,0.1424188669627373,7.685205884176395,99.21539058428654,-0.1294758353931087
1403637260788318976,54.529667,716.3379913432233,9.054806833333332,0.4004382083333333,-3.693838166666666,0.0349065850398865,0.260403124397554,0.1235693110411985,21.30476196771875,90.32869446320326,-0.028492644988503457
1403637261038319104,58.079243,496.78815409790695,8.834157208333334,0.0898942916666666,-4.257720541666666,0.0300196631343024,-0.0872664625997164,0.1033234917180643,8.500548519525086,90.36943352238124,0.0299910636840508
1403637261288318976,50.369739,455.6225204684594,9.945577541666664,-0.3350605416666666,-3.2525389166666665,-0.0432841654494593,0.0740019602845595,0.0139626340159546,9.566642566502425,90.4805050737325,0.060152262639633136
1403637261538319104,49.662113,407.0130958223649,8.695229666666666,-0.6292600416666666,-1.7325081666666666,-0.0118682389135614,-0.1829105056090057,0.0907571211037051,13.947331703643437,86.19441082091556,-0.27193795338791915
1403637261788318976,58.326721,391.4120391425419,11.694430124999998,0.2124774166666666,-2.69682875,-0.0684169066781777,0.2960078411382383,0.0349065850398865,5.937024779333643,86.0892855164438,0.27300687336396834
1403637262038319104,50.334454,712.7291887335109,8.065969625,-0.6782932916666666,-2.3209071666666663,0.0069813170079773,0.2010619298297467,0.1375319450571531,5.303261058256281,87.46144232092735,0.18084732455221797
1403637262288318976,50.652742,219.497993592116,30.92363633333333,3.930832208333333,-17.259704,0.393048147549123,2.8176595444196453,1.8277087926884616,8.03071375853378,86.47643954664612,-0.021818762460483754
1403637262538319104,58.928967,319.219277710119,17.423148166666664,-1.5527195833333332,-5.074941374999999,-0.3364994797845067,0.5745623897565333,-0.1654572130890624,1.972863167159249,85.92426612706518,-0.1977049308632104
1403637262788318976,49.759149,319.2232651463708,8.409202375,-3.1463002083333333,0.122583125,-0.2052507200345331,0.2457423586808016,-0.1305506280491758,0.4321626257988359,85.77808568477336,0.0049845161178581066
1403637263038319104,49.237013,715.4073597087778,10.517632125,-0.6946377083333333,-2.754034208333333,-0.0474729556542457,-0.0104719755119659,0.0349065850398865,0.1436748370238769,85.71897683396095,-0.03238661630548734
1403637263288318976,49.883365,741.9550813107568,9.970094166666666,-0.7600153749999999,-2.9256505833333333,-0.028623399732707,0.0244346095279206,0.0628318530717958,0.0490678258282975,85.69094150252242,-0.021204845191746813
1403637263538319104,50.410032,745.8733677508862,9.144701125,-0.2124774166666666,-2.3862848333333333,-0.0034906585039886,0.0153588974175501,0.0865683308989187,0.02551339384889486,85.70998661528314,0.01670606688155374
1403637263788318976,41.591167,744.3958556349426,9.422556208333331,-0.3023717083333333,-2.745862,-0.0069813170079773,0.0132645023151569,0.046774823953448,0.010114321883434122,85.71697100029682,0.004666648558909969
1403637264038319104,49.955129,744.5863157285405,9.299973083333333,-0.4494714583333333,-2.631451083333333,-0.007679448708775,0.025830872929516,0.0670206432765822,0.01590672982821104,85.71081982967873,0.002429572325212348
1403637264288318976,49.176693,745.7406631591068,9.226423208333332,-0.63743225,-2.778550833333333,-0.0069813170079773,0.0209439510239319,0.0677187749773799,0.012535481935157633,85.7040576634397,-0.006157123595613712
