stamp,img_delta,blur,lin_acc.x,lin_acc.y,lin_acc.z,ang_vel.x,ang_vel.y,ang_vel.z,rpe,ate,drift
1403638519777829376,56.894541,311.0851508350217,9.046634625,-0.0326888333333333,-3.7837324583333327,-0.0027925268031909,0.0216420827247296,0.0774926187885482,0.16924315619928573,0.16924315619930186,0.032947245488081894
1403638520027829504,50.429821,310.39798959199703,9.062979041666669,-0.0572054583333333,-3.832765708333333,0.0,0.0244346095279206,0.0740019602845595,0.08554867381448511,0.19720435483818288,0.013761664375916638
1403638520277829376,48.901797,311.10371087885494,8.940395916666665,-0.0326888333333333,-3.800076875,0.0006981317007977,0.0167551608191455,0.0740019602845595,0.05779682783455651,0.2099401021971975,-0.0003058829545137254
1403638520527829504,51.083327,310.7887182679509,8.989429166666666,-0.0326888333333333,-3.8245935,-0.0048869219055841,0.018151424220741,0.0781907504893459,0.04162459977733236,0.203660113252492,-0.0017185335242021205
1403638520777829376,49.653768,311.2584974654062,9.005773583333333,-0.0408610416666666,-3.7919046666666665,-0.0034906585039886,0.0223402144255274,0.0802851455917391,0.058865807412645264,0.2618574185774602,0.013533068175938967
1403638521027829504,49.046278,311.26984878235345,9.103840083333331,0.0163444166666666,-3.857282333333333,0.0041887902047863,0.0188495559215387,0.0767944870877505,0.016728475519424295,0.2674328810584134,0.004194126577984403
1403638521277829376,49.674272,310.1378187447905,9.022118,0.024516625,-3.8409379166666655,0.0062831853071795,0.0265290046303138,0.0663225115757845,0.07832692389561952,0.3099232200815345,0.04823917077235512
1403638521527829504,50.014496,313.850329457211,9.152873333333332,-0.3105439166666667,-3.759215833333333,0.0104719755119659,0.0342084533390888,0.1277581012459849,0.4852350158845175,0.4425346364103397,0.17122229729133892
1403638521777829376,49.815417,313.20258519363927,8.989429166666666,-0.1634441666666666,-3.849110125,0.0146607657167523,0.028623399732707,0.0760963553869527,0.4826991382816855,0.19716860506640266,0.04300525227936339
1403638522027829504,55.339575,302.833192179012,9.577828166666666,0.0326888333333333,-4.274064958333334,-0.0300196631343024,-0.0509636141582344,0.0013962634015954,2.4824271402515095,2.396423479386952,0.7603365605888066
1403638522277829376,39.127588,96.38356731800276,10.34601575,0.220649625,-4.094276375,0.1340412865531645,0.2429498318776106,0.124965574442794,2.3018714924100205,4.692916017323028,0.3113427585107802
1403638522527829504,48.987388,184.74801981205127,9.144701125,-0.5720545833333333,-3.4813607499999994,0.1591740277818828,-0.0998328332140756,0.2520255439879811,0.6490253402662359,5.347033958081907,0.0692074307219741
1403638522777829376,50.248384,147.76532410736337,9.193734375,-0.5802267916666666,-3.391466458333333,0.2031563249321399,0.2038544566329376,0.1263618378443894,0.4763472148024671,5.5420481386305465,-0.18696171771187942
1403638523027829504,39.200782,345.7369985065237,7.436709583333332,-0.7109821249999999,-2.778550833333333,-0.0216420827247296,0.1047197551196597,0.0621337213709981,1.0885264355526436,6.079320242057893,0.16509717863625184
1403638523277829376,60.415268,563.4427088107528,7.256920999999999,-1.184970208333333,-1.96133,-0.1333431548523667,0.1075122819228507,-0.0055850536063818,2.1179600076130733,5.28273121150444,-0.2651711038215767
1403638523527829504,42.320728,138.0429960205361,8.907707083333333,-0.5066769166666666,-3.178989041666666,-0.0621337213709981,-0.3274237676741362,-0.0621337213709981,2.0767558529684234,4.9564549262019195,-0.09085768052544285
1403638523777829376,50.625801,191.8278738669645,9.594172583333334,-0.612915625,-4.192342875,-0.0118682389135614,-0.0523598775598298,0.0160570291183478,1.4844789154077394,4.519660560447152,-0.6081140197498573
1403638524027829504,33.395529,156.41829245453778,11.506469333333332,0.0,-4.527403416666666,-0.0062831853071795,-0.124965574442794,-0.1207767842380075,2.0553373859888384,4.218679467240654,-0.1657965680564324
1403638524277829376,66.749573,150.22164836476952,10.051816249999998,-0.0163444166666666,-4.486542375,0.1347394182539622,0.085870199198121,0.1864011641129944,1.5047098172455748,3.874482386194294,-0.0027368809929506632
1403638524527829504,49.596548,116.5173524229112,8.621679791666667,-0.196133,-3.38329425,0.0013962634015954,0.3448770601940795,0.0984365698124801,0.9302778856732009,4.075513972082537,0.038742750797087666
1403638524777829376,32.953263,322.4134708264356,7.910697666666666,-0.2860272916666666,-2.680484333333333,-0.3008947630438224,0.0774926187885482,0.0069813170079773,1.0566618268773678,4.239116519767824,0.006652012297965193
1403638525027829504,37.953377,951.3977832528516,6.946377083333333,0.0980665,-2.190151833333333,-0.0439822971502571,0.0914552528045028,-0.046774823953448,1.8463729064046814,4.555054257982866,0.1711357521923338
1403638525277829376,61.764241,366.7530589677573,8.409202375,0.0817220833333333,-2.99102825,0.0670206432765822,-0.2254965393576673,0.0055850536063818,1.721072963227885,5.444643355878602,0.10670093127367686
1403638525527829504,48.692704,117.35809710941112,9.749444541666666,-0.1879607916666666,-4.208687291666666,0.0767944870877505,-0.2764601535159017,0.1647590813882647,2.808819408199083,7.527511154799902,0.12954797200364698
1403638525777829376,44.434071,222.06777978906584,9.888372083333332,-0.1470997499999999,-4.323098208333334,-0.1577777643802873,0.1452113937659282,0.0977384381116824,1.502281575237631,8.37923100066471,0.17633862163907388
1403638526027829504,37.775994,288.98112845770106,9.586000375,1.1359369583333332,-4.339442625,-0.0928515162060983,-0.054454272662223,0.0872664625997164,1.7579583247069204,9.69459288627508,0.4770598914777686
1403638526277829376,48.891783,164.2078928191772,8.850501625,0.220649625,-4.184170666666667,-0.1242674427419962,0.1514945790731078,0.1961750079241626,2.4451191318762873,11.756093537243178,0.31662184439301555
1403638526527829504,50.027132,191.36122497214757,8.785123958333333,0.5230213333333333,-3.505877375,-0.1368338133563554,0.210835773640915,0.2408554367752175,3.2167387813209194,14.859408654372409,1.5007780782804474
1403638526777829376,38.561344,272.34459928883376,9.079323458333333,-0.5148491249999999,-3.2770555416666665,-0.2199114857512855,0.0893608577021096,-0.0020943951023931,3.8414406166179638,18.56307181791156,1.186844827544217
1403638527027829504,60.212373,188.93369260981476,9.504278291666663,-0.6292600416666666,-3.293399958333333,-0.3183480555637657,-0.153588974175501,0.1989675347273535,6.118110458494227,23.63844480329328,2.200553693916717
1403638527277829376,38.382292,289.915297764796,9.128356708333332,-2.034879875,-3.260711125,-0.3776892501315729,0.1668534764906579,0.08307767239493,22.388128138392567,44.07291090428387,3.0212614006859795
1403638527527829504,60.977459,602.6385062747416,8.842329416666665,-2.01036325,-3.293399958333333,-0.0523598775598298,0.028623399732707,0.0593411945678072,12.588882279932836,56.67469868600071,2.4154173157831735
1403638527777829376,48.959494,326.9830263376339,9.5124505,-0.4004382083333333,-3.734699208333333,0.2408554367752175,-0.0642281164733913,0.1256637061435917,12.038748669739732,68.37145169237604,2.736833465679041
1403638528027829504,39.150477,299.8829778037477,8.548129916666667,-0.0735498749999999,-3.391466458333333,0.2073451151369263,0.0844739357965255,0.0474729556542457,10.02119415676625,77.96170574024187,1.489363575816995
1403638528277829376,50.889969,293.02251221891225,9.26728425,0.9970094166666666,-2.7131731666666665,0.2645919146023404,-0.0055850536063818,0.0279252680319092,4.217776537939118,81.68591172223454,0.7491050403891251
1403638528527829504,34.374475,319.9799534234847,9.455245041666666,0.34323275,-3.162644625,-0.0907571211037051,-0.0593411945678072,0.1570796326794896,13.392240432475012,93.89470881249231,3.701847606406673
1403638528777829376,49.225092,415.17350375161897,9.062979041666669,0.122583125,-4.9114972083333335,-0.0719075651821663,0.0376991118430775,0.1891936909161853,21.459921856904426,114.12761428352863,2.0756407523431903
1403638529027829504,49.185037,554.494570674264,8.458235625,-1.1359369583333332,-4.380303666666666,-0.0712094334813686,0.0013962634015954,0.0719075651821663,12.047882702184026,125.89389080347644,1.724120126144328
1403638529277829376,34.156322,244.44119152696337,8.28661925,-0.0081722083333333,-3.1463002083333333,-0.0551524043630208,-0.1047197551196597,-0.0872664625997164,12.526312191003905,138.52560926407693,2.789053791075901
1403638529527829504,50.230741,114.63859308785712,9.185562166666664,0.7109821249999999,-3.366949833333333,0.0502654824574366,-0.3413864016900908,0.0237364778271228,13.0096201390757,151.59931046189192,2.6276379589492365
1403638529777829376,50.229788,193.30363419720385,9.103840083333331,0.3023717083333333,-3.930832208333333,0.0530580092606276,0.2764601535159017,0.1452113937659282,13.401071449713472,164.3582164276342,2.641816489281638
1403638530027829504,49.031019,258.57024567216814,9.283628666666663,0.4739880833333333,-3.7919046666666665,0.0027925268031909,-0.0502654824574366,0.0872664625997164,14.385582787448467,177.5776838220652,2.4988065511285242
1403638530277829376,36.886454,236.05202145527124,8.572646541666666,0.1389275416666666,-4.494714583333333,-0.0851720674973232,0.0370009801422797,0.1759291886010284,23.669608669176906,199.2088365440989,5.1711021293714055
1403638530527829504,37.855387,223.72993738989055,8.825985,0.1470997499999999,-4.388475875,-0.0530580092606276,0.0062831853071795,0.1158898623324234,30.358623834507327,226.6052069712481,5.641103581030393
1403638530777829376,62.100649,164.5062905445159,8.850501625,-0.0572054583333333,-4.306753791666666,-0.0160570291183478,-0.0328121899374933,0.0767944870877505,20.56740607710367,245.60961534772102,3.594589928423545
1403638531027829504,50.734759,203.09157247155463,10.068160666666666,-0.0653776666666666,-4.944186041666666,-0.0062831853071795,0.1256637061435917,0.0069813170079773,23.372125261380255,268.0806976653651,5.300016476901192
1403638531277829376,49.996376,152.31546673406845,8.801468374999999,0.5802267916666666,-3.554910625,-0.0788888821901436,0.1165879940332212,-0.0055850536063818,17.15416413101982,283.2164056980912,3.9860139267989325
1403638531527829504,50.230741,225.9756593786173,8.981256958333333,0.2124774166666666,-4.094276375,0.0006981317007977,0.018151424220741,0.0376991118430775,29.561702351556402,311.3052811294554,10.469553138899812
1403638531777829376,51.226378,227.4041379458511,8.956740333333332,0.1389275416666666,-3.930832208333333,0.0167551608191455,0.0132645023151569,0.0579449311662117,32.71775614334945,343.4625232803254,5.428843237745923
1403638532027829504,37.434816,228.4066198905153,9.013945791666666,0.0898942916666666,-3.8899711666666654,0.0,0.018151424220741,0.0370009801422797,34.8349020131554,377.38526726682574,7.277612737209097
1403638532277829376,31.881809,230.75354421502487,8.793296166666666,0.0572054583333333,-3.930832208333333,0.0027925268031909,0.0202458193231342,0.0712094334813686,36.97916077127056,413.3641049293555,7.355740484878652
1403638532527829504,50.851345,230.6454595330191,8.981256958333333,0.1307553333333333,-3.930832208333333,0.0069813170079773,0.0167551608191455,0.0907571211037051,40.538282571128384,452.96250305725084,8.074057374477945
1403638532777829376,49.952984,231.08708281848263,9.038462416666666,0.1307553333333333,-3.947176625,-0.0013962634015954,0.0223402144255274,0.0816814089933346,43.488735153018034,495.58482616854417,8.791710956401914
1403638533027829504,48.788309,229.80130775155015,9.005773583333333,0.1389275416666666,-3.963521041666666,-0.0034906585039886,0.0223402144255274,0.0684169066781777,46.5181505128324,541.3243132896712,9.399516390862686
1403638533277829376,50.802469,231.04483317818665,8.9240515,0.0408610416666666,-3.9390044166666662,-0.0034906585039886,0.0244346095279206,0.0788888821901436,49.23238638617583,589.6894433889723,9.915359826926306
1403638533527829504,49.546004,230.5678476925193,8.915879291666666,0.1797885833333333,-3.87362675,-0.0041887902047863,0.0237364778271228,0.0851720674973232,52.73837302611623,641.6683237459946,10.694126837335602
1403638533777829376,49.85094,231.00282660460576,8.997601374999999,0.1879607916666666,-3.947176625,-0.0034906585039886,0.0230383461263251,0.0788888821901436,55.78382864240841,696.7310957466632,11.293234337475496
1403638534027829504,66.259623,228.0710447824268,10.059988458333333,-0.7600153749999999,-4.519231208333333,0.0300196631343024,-0.0202458193231342,0.0844739357965255,58.58927080251674,754.6820911362149,11.927702081213056
1403638534277829376,50.370931,227.5328774917961,9.863855458333331,-1.3892754166666663,-3.9880376666666666,-0.0495673507566389,-0.0034906585039886,0.1019272283164688,61.731564597712385,815.7867528426954,12.3980110394142
1403638534527829504,60.843944,226.2220145900517,9.553311541666666,-0.2124774166666666,-4.347614833333333,0.0823795406941323,-0.0006981317007977,0.0760963553869527,64.52264653893923,879.7309592329276,13.064719034632958
1403638534777829376,50.649166,228.1485446046724,9.5124505,-0.9234595416666666,-4.020726499999999,-0.0530580092606276,0.0146607657167523,0.0949459113084915,67.7669752406109,946.9849250199887,13.729871525659291
1403638535027829504,61.95736,228.63426173817103,9.054806833333332,0.0163444166666666,-3.898143375,0.0307177948351002,0.0216420827247296,0.0460766922526503,70.91723787934951,1017.3848178310519,14.387720548670814
1403638535277829376,33.052922,229.047339175418,8.883190458333333,-0.04903325,-4.077931958333333,0.0195476876223364,0.0307177948351002,0.0502654824574366,74.01840974081762,1090.899870507803,15.032730449780047
1403638535527829504,49.110889,229.1105371288928,8.752435125,0.196133,-3.8899711666666654,-0.0020943951023931,0.0195476876223364,0.0677187749773799,77.46697354957706,1167.894743156065,15.807425583701843
1403638535777829376,60.94265,230.3679386652876,8.834157208333334,0.2533384583333333,-3.9144877916666654,0.0048869219055841,0.0195476876223364,0.0823795406941323,81.01533963197762,1248.441379262716,16.54847766727198
1403638536027829504,48.951865,227.4465361516993,9.430728416666666,0.3023717083333333,-4.159654041666666,-0.0083775804095727,0.0376991118430775,0.1110029404268393,84.03333776324006,1332.059943502184,16.820497702366538
1403638536277829376,69.387436,230.1587511353871,8.915879291666666,0.465815875,-4.110620791666666,-0.0069813170079773,0.0321140582366956,0.0788888821901436,87.30756616231218,1418.9360220412404,17.72019626526935
1403638536527829504,50.631761,229.91561204381367,9.16921775,-0.2124774166666666,-3.963521041666666,-0.0090757121103705,0.0223402144255274,0.08307767239493,90.72564879946016,1509.2553939289876,18.23793687358466
1403638536777829376,32.959938,229.2758400918617,9.357178541666666,-0.0408610416666666,-4.053415333333333,0.0041887902047863,0.0272271363311115,0.0816814089933346,94.94654510663987,1603.7991708227373,19.004505206856265
1403638537027829504,66.57672,228.9929044121038,9.161045541666669,-0.4739880833333333,-3.92266,0.0083775804095727,0.0300196631343024,0.1123992038284348,98.0471722087822,1701.4795608919655,19.4830635610615
1403638537277829376,47.938586,227.0339270043477,9.250939833333334,-0.171616375,-4.069759749999999,0.0118682389135614,0.0265290046303138,0.0719075651821663,102.04393990955718,1803.234066722663,20.69334705694132
1403638537527829504,48.916816,226.76336898856675,9.430728416666666,0.24516625,-4.192342875,-0.0104719755119659,0.0502654824574366,0.08307767239493,104.60604300860756,1907.4745289221291,21.481816015720597
1403638537777829376,51.103592,227.4730051238877,7.918869874999999,0.612915625,-3.113611375,-0.0237364778271228,0.0083775804095727,0.0509636141582344,109.10630029522694,2016.2984504228057,21.950035976141862
1403638538027829504,49.95966,221.86540010904224,9.855683249999998,-0.220649625,-4.4211647083333325,0.0083775804095727,0.0851720674973232,0.0886627260013119,112.28376038412023,2128.304287216827,22.85105109818096
1403638538277829376,49.584627,215.30540845931696,10.435910041666666,0.04903325,-5.262902166666666,-0.0055850536063818,0.0027925268031909,0.0942477796076938,116.26939976299893,2244.3541784729873,23.4770834217843
1403638538527829504,50.049305,223.89485554367545,8.172208333333334,-0.2533384583333333,-3.391466458333333,-0.0223402144255274,0.0223402144255274,0.0886627260013119,119.53749818743434,2363.636156619915,24.16259335417317
1403638538777829376,37.96792,202.0849576465489,8.564474333333333,0.024516625,-2.8439285,0.0307177948351002,-0.0321140582366956,0.0230383461263251,128.51773740682134,2491.9061832610446,27.260397882585494
1403638539027829504,49.725055,173.55937492926668,11.42474725,0.367749375,-4.314926,-0.0349065850398865,0.3029891581462156,0.1158898623324234,343.55155702697533,2833.0850906702694,96.55383869875232
1403638539277829376,49.424887,187.85706793383736,10.051816249999998,0.3105439166666667,-3.546738416666667,0.0251327412287183,0.0851720674973232,0.1061160185212552,369.3832986073408,3193.419942754328,58.5527169684201
1403638539527829504,43.431044,216.29077365718484,9.75761675,-0.318716125,-3.563082833333333,0.0265290046303138,0.0097738438111682,0.0774926187885482,68.1645690180608,3233.1588946023417,-6.431590697667161
1403638539777829376,49.902439,326.63494445109257,7.84532,-0.4576436666666666,-2.525212375,0.0006981317007977,-0.0495673507566389,0.0809832772925368,265.09477830941734,3490.8363678785477,83.59421466115509
1403638540027829504,50.657988,340.9150113525821,8.842329416666665,0.6946377083333333,-2.9256505833333333,0.0027925268031909,-0.1452113937659282,0.0,187.77365444349635,3677.6265687958935,29.52799836819895
1403638540277829376,49.958705,202.4233519405981,8.049625208333332,0.24516625,-1.8632635,-0.0027925268031909,0.28623399732707,-0.0048869219055841,162.73036682180836,3838.5841830373806,26.04372283013072
1403638540527829504,46.824455,1051.0662326128245,10.354187958333334,-0.0735498749999999,-3.9390044166666662,0.239459173373622,0.0202458193231342,-0.0551524043630208,163.78215911163804,4001.6816042617093,34.17312092985776
1403638540777829376,64.400196,854.8305133424047,10.697420708333333,0.1062387083333333,-4.184170666666667,0.5194099853935125,0.0663225115757845,-0.2436479635784084,185.718253905631,4186.116146278755,39.42803108136468
1403638541027829504,61.003208,876.7744906175433,10.256121458333332,-0.6537766666666667,-2.8766173333333334,0.4523893421169302,0.0537561409614253,-0.0146607657167523,199.89335348327165,4384.584824924809,38.86034080522131
1403638541277829376,50.542831,1140.9698196284414,9.152873333333332,0.7109821249999999,-3.726527,0.1647590813882647,0.0628318530717958,-0.0139626340159546,196.87353592382894,4579.349082161407,34.92579758584634
1403638541527829504,52.381038,902.4445078683788,9.242767625,0.44129925,-3.5957716666666664,0.0279252680319092,0.0188495559215387,0.0523598775598298,181.13843276824764,4758.325467880106,36.56247573548444
1403638541777829376,44.797659,656.8199941467832,10.084505083333331,0.24516625,-3.366949833333333,0.3078760800517997,-0.0370009801422797,0.1200786525372098,196.33391391737248,4952.422754622029,41.818181089211066
1403638542027829504,49.962044,568.9708048532997,9.80665,0.0081722083333333,-3.849110125,0.4712388980384689,-0.0726056968829641,-0.0328121899374933,194.16196763408206,5144.30184361034,40.35221963158892
1403638542277829376,38.957119,407.96691954395953,10.084505083333331,-0.1552719583333333,-2.69682875,0.5068436147791533,-0.0907571211037051,-0.0788888821901436,188.7196125717705,5323.595088264916,51.40637941805471
1403638542527829504,49.881935,391.9386463224496,10.730109541666666,0.465815875,-4.257720541666666,0.1654572130890624,0.3532546406036522,-0.3120648702565861,236.23454559105392,5555.6079880942825,42.85140427872466
1403638542777829376,49.771547,403.7814984686226,11.089686708333334,0.171616375,-3.8164212916666655,0.1389282084587486,-0.0691150383789754,0.2254965393576673,208.55516143386,5759.70423835138,45.12176773985266
1403638543027829504,49.826383,307.10803076535365,9.422556208333331,0.220649625,-3.734699208333333,-0.0118682389135614,-0.0376991118430775,0.1745329251994329,221.22263351006325,5976.704096275988,44.675291924070734
1403638543277829376,50.101757,416.5808211955541,7.363159708333333,0.7436709583333333,-3.138128,-0.0886627260013119,-0.0474729556542457,0.0586430628670094,270.06996203934926,6243.451653780879,45.41097339495536
1403638543527829504,49.982786,289.06025958971725,9.373522958333332,0.8662540833333333,-3.162644625,0.2597049926967562,0.0579449311662117,-0.0551524043630208,417.41669354780385,6655.612241521565,151.12307070409224
1403638543777829376,39.431572,234.7261003197219,9.430728416666666,-0.1062387083333333,-3.2770555416666665,0.4384267081009756,0.0397935069454707,-0.2715732316103177,527.2595189548798,7178.462478193174,82.22184605971597
1403638544027829504,58.26807,239.63810595771284,9.65955025,0.4249548333333333,-3.7837324583333327,0.3797836452339661,-0.0984365698124801,0.0893608577021096,327.0246936562669,7501.375103147345,76.34213044348871
1403638544277829376,60.639619,406.8847477021667,9.316317499999998,0.220649625,-3.4241552916666667,0.0977384381116824,0.0774926187885482,0.1186823891356144,291.3120255200422,7788.537118534842,56.498861504946035
1403638544527829504,38.814783,574.7502101738437,10.043644041666663,0.7273265416666667,-3.6284605,-0.018151424220741,0.0230383461263251,0.0586430628670094,278.111849455277,8061.382635646429,57.680604117222174
1403638544777829376,49.976349,663.605157822712,8.392857958333332,0.8253930416666666,-3.669321541666666,-0.0090757121103705,-0.1424188669627373,0.0474729556542457,292.8776485812864,8349.759977686897,58.52311957476377
1403638545027829504,49.979687,731.3703634795904,8.687057458333333,-0.4903325,-2.9174783749999995,0.0307177948351002,0.085870199198121,0.0900589894029074,295.917790203916,8641.121057367845,59.56925944652903
1403638545277829376,49.674749,733.1311883927061,8.278447041666666,0.1389275416666666,-3.0564059166666664,0.0006981317007977,0.1480039205691191,0.0474729556542457,308.7898577692138,8945.12891643255,60.77241568131103
1403638545527829504,39.421559,816.3300763448464,9.692239083333332,-0.2860272916666666,-2.705000958333333,0.1710422666954443,-0.0397935069454707,0.0055850536063818,281.4807803884848,9221.582476429716,61.44556525346161
1403638545777829376,37.314892,728.9840972794169,9.128356708333332,0.2533384583333333,-3.759215833333333,0.3958406743523139,0.0251327412287183,-0.1731366617978375,320.512105122414,9536.06896971549,62.64258493618945
1403638546027829504,52.2995,796.7134791638849,9.814822208333332,0.3350605416666666,-3.514049583333333,0.4105014400690662,-0.0376991118430775,-0.1947787445225671,345.4248588836073,9870.071741535949,64.68100318806319
1403638546277829376,56.3941,908.3570842163954,8.613507583333332,0.6292600416666666,-2.9174783749999995,0.1500983156715123,-0.0321140582366956,0.132645023151569,407.80804173609926,10269.438474087412,144.13465831675785
1403638546527829504,50.338983,1151.5031793456956,10.158054958333333,-0.318716125,-4.976874874999999,0.0607374579694026,-0.018151424220741,-0.0635299847725936,473.85291470515665,10737.469155475534,69.61978568205086
1403638546777829376,50.642968,1029.7001289446805,8.401030166666667,-0.2369940416666666,-3.702010375,0.1110029404268393,-0.0048869219055841,0.0460766922526503,362.5985083661388,11093.045802106057,71.36995419959567
1403638547027829504,61.106682,1118.3039987537588,7.755425708333333,-1.2176590416666666,-3.1544724166666662,-0.0153588974175501,-0.0411897703470661,-0.0314159265358979,374.04939452274357,11462.192863608707,73.81815075286795
1403638547277829376,60.811997,1161.192725514541,7.616498166666665,0.0735498749999999,-3.8245935,-0.0439822971502571,0.0279252680319092,0.0614355896702004,391.93470548797336,11848.337760316046,73.01567992551281
1403638547527829504,50.026893,1006.4860951878076,9.684066875,-0.5883989999999999,-3.2361945,0.0418879020478639,-0.036302848441482,0.2136283004441059,365.1677037163739,12208.584632687876,108.24279304107404
1403638547777829376,49.256802,1068.4844349142827,8.956740333333332,-0.0408610416666666,-4.3721314583333335,-0.0872664625997164,-0.0523598775598298,-0.1172861257340189,385.8741131257706,12589.054935157941,58.07068569180228
1403638548027829504,37.149429,943.9928800140052,10.83634825,-0.171616375,-4.0615875416666665,0.0907571211037051,-0.0090757121103705,0.1075122819228507,471.2704474697107,13054.261028578023,80.62705932377139
1403638548277829376,64.297437,659.9242712831533,10.125366125,0.3023717083333333,-3.718354791666666,0.3364994797845067,-0.0097738438111682,-0.0013962634015954,341.5386487654354,13390.755891080866,77.82654127802198
1403638548527829504,56.200981,673.2493410881415,9.471589458333332,-0.1634441666666666,-3.3506054166666663,0.2548180707911721,-0.0356047167406843,0.0,455.62037706261424,13841.02312281039,64.48791718470966
1403638548777829376,34.413338,821.9947936609242,10.83634825,0.4903325,-4.592781083333333,0.0977384381116824,-0.0432841654494593,0.0300196631343024,525.0554432413784,14360.065431383104,98.01544446408843
1403638549027829504,38.566589,749.4396621410989,9.961921958333331,0.3105439166666667,-3.1217835833333334,0.0020943951023931,-0.0062831853071795,0.1919862177193762,535.9056479371608,14886.139572498143,77.48939078157127
1403638549277829376,49.928903,724.0756539883989,7.878008833333333,0.612915625,-3.1463002083333333,-0.0034906585039886,0.0111701072127637,0.1759291886010284,413.5629327839574,15294.41394964699,85.49631661883723
1403638549527829504,34.805536,738.8311981816635,8.458235625,-0.63743225,-3.268883333333333,-0.0104719755119659,0.0530580092606276,0.1179842574348166,447.1641307530171,15737.205778281426,87.0899816556539
1403638549777829376,60.634374,851.4312592723256,10.550320958333334,0.4086104166666666,-3.563082833333333,-0.0013962634015954,0.0104719755119659,0.1410226035611418,462.35349484736423,16194.030838003795,81.55571306745878
1403638550027829504,49.753427,842.6393741961372,9.724927916666667,0.367749375,-2.819411875,-0.0314159265358979,-0.0376991118430775,0.0425860337486616,415.13161227723015,16603.95699361403,78.13348172784026
1403638550277829376,49.859763,762.8237199661274,8.433719,-0.3023717083333333,-3.930832208333333,0.0300196631343024,0.0565486677646162,0.0474729556542457,440.272271654465,17035.918341972945,97.14636625555431
1403638550527829504,50.277472,613.1715752246298,8.605335375,0.7518431666666666,-2.778550833333333,0.0495673507566389,0.1214749159388053,0.1843067690106012,435.4042255314905,17455.284464034496,95.80521933436103
1403638550777829376,49.88265,602.2891654754973,10.010955208333332,0.4576436666666666,-3.832765708333333,0.036302848441482,0.1975712713257581,0.0879645943005142,511.3531222049982,17942.97854218126,92.96768597371556
1403638551027829504,35.034657,599.1098265733898,8.866846041666665,0.6701210833333332,-3.4568441249999995,-0.0020943951023931,0.182212373908208,0.0502654824574366,521.9560334132981,18454.238255848017,109.30557489157945
1403638551277829376,64.611435,722.5244097499674,7.910697666666666,0.3595771666666666,-2.9583394166666666,-0.0726056968829641,-0.1368338133563554,0.0907571211037051,525.0432520465095,18973.063992934403,103.0162555607094
1403638551527829504,49.386978,489.0524591227163,10.190743791666666,-0.196133,-3.685665958333333,-0.3567452991076409,0.057246799465414,0.3755948550291797,668.5911274368796,19636.506871849666,124.69795166557378
1403638551777829376,47.273159,492.5512544778148,8.948568125,0.5883989999999999,-2.2555295,-0.4991641660703782,0.0425860337486616,0.2708750999095199,558.6047957759276,20190.488203002787,109.60604833985053
1403638552027829504,50.61531,495.9047885521192,11.016136833333332,-0.196133,-4.143309625,-0.2527236756887789,0.085870199198121,0.0195476876223364,554.1409755458994,20737.627636898313,110.49231808128388
1403638552277829376,49.908876,761.5070843051726,10.44408225,-0.4985047083333333,-3.023717083333333,-0.0390953752446729,-0.0719075651821663,0.1724385300970397,646.4462559542147,21378.6498419612,102.85721192996789
1403638552527829504,49.778224,628.3139404809876,10.73828175,-0.1144109166666666,-3.08909475,0.0174532925199432,0.122173047639603,0.0977384381116824,607.4461409622354,21956.55308287995,119.4631294533574
1403638552777829376,61.167717,753.5988147878851,9.299973083333333,0.3840937916666667,-3.2361945,0.025830872929516,0.028623399732707,0.0013962634015954,732.5249945899885,22583.495711994856,125.72457973625205
1403638553027829504,39.649964,759.260379091747,8.3356525,0.8417374583333332,-2.631451083333333,0.0055850536063818,0.0698131700797731,-0.0991347015132779,759.1225029110366,23228.35301582907,122.83690508674772
1403638553277829376,49.751997,609.8048880358319,8.515441083333332,0.9152873333333332,-1.3157255416666664,0.0376991118430775,0.260403124397554,-0.0167551608191455,682.5713276683274,23864.771256357948,141.98818644202038
1403638553527829504,54.034949,714.9046647076395,10.051816249999998,-0.5802267916666666,-4.944186041666666,-0.0488692190558412,0.0628318530717958,-0.0474729556542457,707.2878279185072,24509.204664418063,133.15188328045042
1403638553777829376,49.880743,707.9690519691331,9.299973083333333,0.0653776666666666,-3.832765708333333,-0.0342084533390888,-0.1158898623324234,-0.0188495559215387,732.578788609087,25168.014406333183,131.262967321647
1403638554027829504,49.862384,747.665305305797,10.574837583333332,-0.5066769166666666,-4.175998458333333,0.0167551608191455,-0.1061160185212552,0.0677187749773799,685.6517682474388,25830.446863108147,131.2331060901197
1403638554277829376,50.234556,693.0957521306876,8.294791458333332,0.0081722083333333,-1.9776744166666664,-0.0237364778271228,-0.1110029404268393,-0.018151424220741,622.5452975867933,26453.071901974625,129.41628396007582
1403638554527829504,42.225599,891.9063602477713,7.518431666666666,1.569064,-1.201314625,0.0600393262686049,0.0691150383789754,0.1500983156715123,680.3270120559046,27120.824547147447,136.15857567600688
1403638554777829376,50.020695,893.5992475244492,8.139519499999999,0.7518431666666666,-2.0267076666666664,-0.0139626340159546,0.028623399732707,0.075398223686155,681.4627285985056,27801.711105683815,140.47875251123696
1403638555027829504,50.021649,751.7987067472543,10.059988458333333,0.3595771666666666,-3.0318892916666664,-0.1521927107739055,-0.0083775804095727,0.1445132620651305,709.5454219717828,28511.075244375603,147.1331788430216
1403638555277829376,42.6476,767.6212420924763,8.866846041666665,0.1470997499999999,-2.705000958333333,-0.2352703831688356,0.0691150383789754,0.1368338133563554,740.2049750397105,29247.377459839026,147.20305122319405
1403638555527829504,49.901009,843.8627752058262,9.161045541666669,-0.5066769166666666,-4.290409374999999,-0.1047197551196597,0.0244346095279206,-0.0439822971502571,763.1531878797771,30007.560404063726,151.26576362108244
1403638555777829376,49.753428,919.995358684826,9.75761675,-0.0408610416666666,-3.0318892916666664,0.0202458193231342,0.0062831853071795,0.0600393262686049,771.8908970810676,30770.54085155081,155.25239309222889
1403638556027829504,50.223112,967.5456143155706,7.485742833333332,0.0817220833333333,-1.830574666666667,-0.0279252680319092,-0.0418879020478639,0.0537561409614253,793.8083073743842,31540.01368030525,155.74765172378466
1403638556277829376,49.958229,991.6144307790286,10.027299625,-0.4821602916666666,-3.178989041666666,0.0083775804095727,-0.036302848441482,0.0956440430092892,828.2761625887907,32347.137334970597,173.26186004179544
1403638556527829504,41.419029,962.950110191152,8.907707083333333,-0.6456044583333332,-2.803067458333333,-0.0125663706143591,-0.0055850536063818,0.1054178868204575,831.4517700434792,33153.20713036867,158.68880599662953
1403638556777829376,49.780845,705.9148092895587,7.992419749999999,0.0163444166666666,-3.048233708333333,-0.028623399732707,0.2492330171847902,0.1235693110411985,946.6621460786831,34032.87787544358,195.29126067423203
1403638557027829504,57.953119,899.2017314854359,7.542948291666666,0.2124774166666666,-2.778550833333333,-0.0495673507566389,-0.0300196631343024,-0.0062831853071795,904.7695876245026,34857.01686734559,163.55703319155145
1403638557277829376,41.961908,850.1501680001425,9.136528916666666,-0.2615106666666666,-2.59876225,0.0125663706143591,0.0446804288510548,0.1005309649148733,948.0518152404355,35700.44780830016,165.97417549058446
1403638557527829504,49.703121,775.2025711380466,9.5124505,0.2533384583333333,-4.233203916666667,-0.0153588974175501,0.0188495559215387,-0.0502654824574366,933.1099996891004,36546.62370094845,171.55950981230853
1403638557777829376,57.551384,840.3309475890745,8.221241583333333,-1.1604535833333331,-3.2443667083333327,-0.0767944870877505,0.0314159265358979,-0.0279252680319092,962.3847382104094,37411.19292558903,172.9256836140121
1403638558027829504,41.055441,909.9119041417086,7.828975583333331,0.269682875,-3.1054391666666663,-0.0097738438111682,-0.1054178868204575,0.1500983156715123,973.0700851003801,38301.91956942197,176.95949665607623
1403638558277829376,49.920797,745.0586929162107,11.114203333333332,-0.661948875,-4.780741875,-0.036302848441482,-0.1270599695451872,0.0349065850398865,971.0834453924599,39184.38461547778,179.45201398389327
1403638558527829504,40.060758,898.5983152038568,12.192934833333334,0.0081722083333333,-2.803067458333333,0.0132645023151569,-0.057246799465414,0.1752310569002306,994.084169989758,40087.769638626756,180.32426090277295
1403638558777829376,41.486501,684.9657209571756,9.308145291666667,-0.2288218333333333,-3.0400615,0.0698131700797731,0.1137954672300302,0.3225368457685521,1028.8369161092003,41003.31900184762,181.56818304744957
1403638559027829504,58.980227,584.5033597976504,8.752435125,-0.0572054583333333,-3.064578125,-0.0349065850398865,0.161268422884276,0.0474729556542457,1060.4062652953155,41955.00831365038,189.92936655379162
1403638559277829376,58.528185,589.9784428727579,8.948568125,-0.73549875,-3.514049583333333,0.0027925268031909,0.0314159265358979,0.0006981317007977,1022.2936034942611,42924.062403621545,195.96080689536757
1403638559527829504,60.916663,590.3616618882044,9.496106083333332,0.4903325,-3.6448049166666654,-0.0111701072127637,0.0090757121103705,0.0020943951023931,1076.042330980094,43927.26390105359,232.2318471047838
1403638559777829376,50.062894,640.8876611060956,10.664731875,0.2288218333333333,-2.941995,0.0328121899374933,0.0097738438111682,0.1570796326794896,1202.4877351331338,45039.11528066349,194.11911962152226
1403638560027829504,49.664974,456.9628102748157,7.142510083333334,-0.784532,-2.5905900416666663,-0.3183480555637657,0.0397935069454707,0.2268928027592628,1121.3044719772695,46045.468833900464,195.89530203594768
1403638560277829376,50.025225,322.14815670143327,10.623870833333331,0.4494714583333333,-2.50069575,-0.5529203070318035,0.1354375499547599,0.249931148885588,1133.045303857281,47087.454342866724,211.41268738648796
1403638560527829504,42.48333,321.0502297871554,8.646196416666667,-0.4903325,-3.08909475,-0.5703735995517468,0.1103048087260416,0.478918346747244,1142.0347429014748,48151.23601174808,215.819804246923
1403638560777829376,40.73739,386.538942095974,9.046634625,-0.2860272916666666,-4.339442625,-0.4782202150464462,0.0069813170079773,0.2757620218151041,1206.5089716390592,49258.61881385824,210.5198703770293
1403638561027829504,51.725865,359.7287838958944,11.2776475,-0.9234595416666666,-4.494714583333333,-0.4726351614400644,0.1996656664281513,0.2387610416728242,1206.1199666079413,50390.043530054114,220.78145890474116
1403638561277829376,50.110579,514.0093899993335,9.528794916666666,-1.1931424166666666,-3.603943875,-0.2101376419401172,-0.0432841654494593,0.1633628179866692,1189.7352397777636,51505.575283175516,224.54309950579773
1403638561527829504,36.688805,495.39342124144974,7.681875833333333,-0.6292600416666666,-2.1166019583333333,-0.1130973355292325,-0.114493598930828,-0.0167551608191455,1208.9805229135916,52637.18794643663,227.51039076533198
1403638561777829376,41.264773,596.3244957859371,9.389867375,0.04903325,-3.4731885416666666,0.007679448708775,0.0321140582366956,-0.0062831853071795,1227.8213240469317,53783.85455386216,230.55897723300586
1403638562027829504,49.651146,499.05426679708,10.4931155,0.0163444166666666,-4.314926,-0.2143264321449036,0.0202458193231342,0.2059488517353309,1246.8451693899242,54945.93426828051,233.693801484922
1403638562277829376,60.625076,464.01088861808046,8.5317855,0.5230213333333333,-3.293399958333333,-0.1961750079241626,0.1438151303643327,0.1654572130890624,1266.0781657904654,56124.52270612977,237.0947137535186
1403638562527829504,41.79573,464.6756565160652,8.433719,0.956148375,-2.231012875,-0.3658210112180114,0.1424188669627373,0.2778564169174973,1285.405849947489,57320.153320005964,240.53236371694948
1403638562777829376,50.925016,495.3220173435184,8.760607333333333,-0.4004382083333333,-3.0564059166666664,-0.5277875658030852,-0.0069813170079773,0.2876302607286655,1304.703293946051,58532.71014036058,243.76776221129694
1403638563027829504,39.595842,526.0860010700676,9.569655958333334,-0.4821602916666666,-3.2035056666666666,-0.4098033083682685,0.0642281164733913,0.3518583772020568,1323.9832559189401,59760.8704567979,246.77153022972925
1403638563277829376,49.552202,531.4293011692811,8.172208333333334,-0.4576436666666666,-2.9174783749999995,-0.2645919146023404,0.2380629099720265,0.1577777643802873,1342.3410933664875,61003.09103452282,249.54370429593837
1403638563527829504,42.431831,639.777869014599,8.907707083333333,-0.1879607916666666,-3.0400615,-0.0719075651821663,0.0097738438111682,-0.0314159265358979,1360.2733074118598,62258.81210932514,252.1920061163837
1403638563777829376,51.038026,650.6775060027497,8.7279185,0.4086104166666666,-3.219850083333333,0.0593411945678072,-0.0928515162060983,0.1130973355292325,1377.99628847212,63528.2083344493,255.02686246003577
1403638564027829504,51.113128,648.9119295019907,10.019127416666668,-0.8662540833333333,-2.9256505833333333,0.08307767239493,0.0251327412287183,0.1096066770252439,1395.6154205952819,64811.90415308131,257.82434988613386
1403638564277829376,42.511463,562.5691808653762,10.305154708333331,0.7436709583333333,-2.0920853333333334,0.054454272662223,-0.0565486677646162,0.0027925268031909,1413.2257320629471,66108.82737486043,260.45004705050087
1403638564527829504,49.669742,498.9268782064563,9.030290208333332,0.4576436666666666,-3.309744375,0.1151917306316257,-0.0600393262686049,0.0628318530717958,1431.0482752932212,67419.80871053379,263.3317355349136
1403638564777829376,49.675703,436.5072432097,8.850501625,-0.661948875,-3.023717083333333,0.025830872929516,0.0663225115757845,0.1298524963483781,1449.0033054436867,68744.655992717,266.19266851001885
1403638565027829504,51.274777,380.26040231361935,6.709383041666666,-0.024516625,-1.5445473749999998,0.0,0.0390953752446729,0.0747000919853573,1466.8186407561416,70082.00239634665,268.3975692512613
1403638565277829376,58.235884,283.5395160968505,9.863855458333331,-0.5475379583333333,-4.053415333333333,-0.0376991118430775,-0.0670206432765822,0.0495673507566389,1484.597932382263,71431.43537682947,270.9117933479429
1403638565527829504,41.002512,292.8894141781708,10.828176041666667,-0.0408610416666666,-3.2035056666666666,-0.0907571211037051,0.0418879020478639,-0.018151424220741,1502.3749842858424,72794.2151513127,273.6820785802702
1403638565777829376,49.999714,277.40124602112536,7.690048041666667,-0.196133,-2.9256505833333333,-0.0705113017805709,-0.0439822971502571,-0.0237364778271228,1520.174244518828,74171.66420477268,276.6990011162852
1403638566027829504,57.925939,299.02687134561927,9.398039583333333,-0.4086104166666666,-2.729517583333333,-0.0307177948351002,0.0914552528045028,-0.0328121899374933,1537.942523065484,75564.27049027191,279.70707037023385
1403638566277829376,49.65663,292.5314006222768,6.799277333333333,-1.0705592916666666,-1.5118585416666666,-0.0404916386462684,-0.1117010721276371,0.0579449311662117,1554.8643165971064,76970.32373268974,282.45541847962886
1403638566527829504,50.542117,622.7748917263083,6.995410333333333,-0.220649625,-2.8766173333333334,0.025830872929516,-0.1891936909161853,0.0272271363311115,1573.1908677793826,78391.47497631657,285.4353993806726
1403638566777829376,39.073944,348.7746987894546,9.438900625,0.2778550833333333,-3.28522775,0.0460766922526503,-0.2422517001768129,-0.0328121899374933,1591.195349396003,79827.57870436365,288.4493796835304
1403638567027829504,50.73595,533.7368817719138,11.91507975,0.3350605416666666,-4.895152791666666,0.0670206432765822,0.5941100773788698,0.0865683308989187,1608.526593985023,81279.11874407946,291.5507792011049
1403638567277829376,60.759067,657.8768610964423,8.351996916666666,-0.5148491249999999,-2.7213453750000003,-0.0921533845053006,0.0816814089933346,-0.0146607657167523,1625.123059407925,82746.03160236825,294.53925452253316
1403638567527829504,49.512863,401.5546634186975,10.672904083333334,0.220649625,-4.396648083333333,-0.0523598775598298,-0.1319468914507713,0.0823795406941323,1642.0317047093838,84227.47433233232,297.51166678358277
1403638567777829376,38.836718,557.6028204295047,8.613507583333332,0.5475379583333333,-2.5170401666666664,-0.0481710873550434,-0.0816814089933346,0.0020943951023931,1659.2756490344552,85724.79018615042,300.7940064774011
1403638568027829504,38.748503,602.3450601905847,10.117193916666666,-1.372931,-4.314926,-0.0558505360638185,0.0488692190558412,-0.0097738438111682,1676.3557694208434,87238.89075134289,304.16113552764
1403638568277829376,60.637712,662.360147085601,8.302963666666667,0.04903325,-3.603943875,-0.0244346095279206,0.0195476876223364,0.0509636141582344,1693.2949856217313,88769.6698852969,307.4511319262965
1403638568527829504,38.549662,619.3986539290797,9.430728416666666,-0.196133,-2.557901208333333,-0.0097738438111682,-0.0013962634015954,0.0300196631343024,1710.0519444041063,90316.10854571206,310.49121658175136
1403638568777829376,60.744762,638.023637319787,9.340834125,-0.8989429166666666,-3.898143375,-0.0502654824574366,0.0,0.0034906585039886,1726.550816931354,91877.89145405997,313.6158637421322
1403638569027829504,50.12083,767.343078198797,8.360169125,-0.63743225,-2.378112625,-0.0216420827247296,0.0048869219055841,0.0328121899374933,1742.840340532117,93455.74455935719,316.8888390932698
1403638569277829376,38.167238,797.1447554216819,8.278447041666666,0.0408610416666666,-4.519231208333333,0.0083775804095727,0.018151424220741,0.0516617458590321,1758.9515699052547,95049.5668474082,319.9753611761844
1403638569527829504,49.970388,756.4801419826676,7.959730916666666,-0.5311935416666667,-2.312734958333333,0.0,0.0865683308989187,0.0767944870877505,1774.8657572559814,96658.26821486259,322.9153897712531
1403638569777829376,50.213098,932.1981792582612,8.858673833333333,0.34323275,-2.8847895416666667,0.0118682389135614,-0.0809832772925368,0.0977384381116824,1790.59637967886,98281.90458258912,325.94835441414034
1403638570027829504,49.875259,906.888073412652,8.572646541666666,-0.318716125,-3.4568441249999995,0.0349065850398865,0.0893608577021096,0.1137954672300302,1806.247906901044,99920.5725427238,328.894723691541
1403638570277829376,39.010286,652.0452205461364,8.139519499999999,0.8989429166666666,-3.6448049166666654,0.0774926187885482,0.075398223686155,0.2834414705238791,1822.059695088439,101573.38416269356,331.6599557046429
1403638570527829504,49.622297,636.3405460393931,7.959730916666666,1.2340034583333332,-2.770378625,-0.1954768762233649,0.1277581012459849,0.6122615015996108,1838.056112392038,103239.60763837077,334.26314753801853
1403638570777829376,52.768707,440.1791380899504,8.842329416666665,0.2941994999999999,-2.1983240416666665,-0.4454080251089529,0.4139920985730549,0.3658210112180114,1853.9965230178868,104917.71222297833,336.48362160379475
1403638571027829504,60.598374,460.0073855914556,9.079323458333333,0.7600153749999999,-3.832765708333333,-0.5249950389998943,0.0230383461263251,0.1459095254667259,1869.3682902163773,106605.4735940834,338.2166457259591
1403638571277829376,49.463033,429.5183960969132,10.141710541666669,-0.269682875,-4.772569666666667,-0.3316125578789226,-0.0516617458590321,-0.0223402144255274,1883.9284629086376,108301.6308046834,339.9865323543636
1403638571527829504,49.494028,614.3598746473938,9.855683249999998,-0.318716125,-2.4843513333333336,-0.1556833692778942,0.0509636141582344,0.114493598930828,1897.7617212260054,110007.67515039629,342.02373336438905
1403638571777829376,39.11376,491.4138713096525,9.095667875,-0.1797885833333333,-3.571255041666667,-0.3588396942100341,-0.0593411945678072,0.2241002759560719,1911.3750541230888,111723.38579529553,343.8770748651732
1403638572027829504,49.292803,451.15842937996194,9.831166624999998,-0.7681875833333334,-4.707191999999999,-0.3658210112180114,-0.028623399732707,0.3567452991076409,1924.6772108234718,113448.47776368233,345.7711073831888
1403638572277829376,61.585426,408.1338137571627,8.401030166666667,-0.7191543333333333,-3.064578125,-0.4488986836129415,-0.0565486677646162,0.179419847105017,1937.3742555165773,115182.79503025163,347.5844477344799
1403638572527829504,50.440788,412.1798750889248,10.672904083333334,-0.7763597916666666,-2.999200458333333,-0.249931148885588,0.0774926187885482,0.085870199198121,1949.872158771871,116926.26982151059,349.4609841906349
1403638572777829376,50.218344,469.44406190020936,10.44408225,-0.8008764166666666,-4.339442625,-0.1445132620651305,-0.0705113017805709,-0.0593411945678072,1961.98878642595,118679.61580679589,351.4999467161979
1403638573027829504,48.885107,575.33330309086,9.144701125,0.4004382083333333,-4.870636166666666,0.054454272662223,-0.0055850536063818,0.0153588974175501,1974.0151750861621,120443.96472421956,353.7998672249814
1403638573277829376,61.335802,531.9555241010366,10.632043041666666,-0.5230213333333333,-2.574245625,0.0356047167406843,0.064926248174189,0.0132645023151569,1986.1527489193654,122219.37662746779,355.9323559057666
1403638573527829504,60.429096,454.2556550458305,10.648387458333334,0.6292600416666666,-2.941995,-0.0321140582366956,-0.007679448708775,0.1103048087260416,1997.306311631829,124005.16281829469,358.0218988638517
1403638573777829376,66.381693,282.7470386593199,9.855683249999998,0.7518431666666666,-4.208687291666666,-0.2282890661608583,0.2555162024919699,0.1354375499547599,2007.7769894159364,125801.4886698606,360.07832431011775
1403638574027829504,48.851013,187.46477378279175,7.706392458333333,0.269682875,-2.8357562916666668,-0.3567452991076409,0.2143264321449036,0.5696754678509492,2018.0198622231223,127607.87725387551,362.0115097094822
1403638574277829376,49.506426,220.12389140151208,9.201906583333331,0.53936575,-3.489532958333333,-0.5473352534254218,0.0642281164733913,0.3169517921621702,2028.3313383477814,129423.48933366752,363.8178644054278
1403638574527829504,64.867735,215.38426138158,9.022118,-0.44129925,-3.195333458333333,-0.4049163864626844,0.1277581012459849,0.1424188669627373,2038.7706212684325,131247.30695719298,365.3916467797535
1403638574777829376,51.0149,283.3454952037867,9.398039583333333,0.3268883333333333,-3.260711125,-0.1766273203018261,-0.0705113017805709,-0.0565486677646162,2048.0950395617056,133079.1550697702,367.08268905678415
1403638575027829504,60.963393,357.53152786753765,9.447072833333332,-0.024516625,-4.355787041666666,0.0635299847725936,-0.0872664625997164,0.3050835532486088,2057.2539898993155,134919.95276917377,368.83913617394865
1403638575277829376,50.004959,337.98818895547873,7.085304625,0.0408610416666666,-2.1738074166666665,0.0251327412287183,-0.0370009801422797,0.0774926187885482,2066.1870527840297,136768.7655333149,370.3427317517635
1403638575527829504,48.987627,303.21296249377366,8.785123958333333,0.0081722083333333,-3.4404997083333333,-0.0404916386462684,-0.0907571211037051,-0.0914552528045028,2074.570190953712,138624.20635240746,371.6023336396029
1403638575777829376,35.225153,258.8089831666384,7.730909083333333,1.054214875,-3.293399958333333,0.0328121899374933,-0.0488692190558412,-0.104021623418862,2082.9125399242707,140486.59556953193,373.1185245999368
1403638576027829504,48.368216,211.0361729767013,8.474580041666666,0.5883989999999999,-4.4211647083333325,-0.0376991118430775,0.0998328332140756,0.025830872929516,2091.3408662804427,142357.42981293166,374.89311265337165
1403638576277829376,39.106846,238.1136846303069,8.523613291666665,-0.2124774166666666,-2.827584083333333,-0.0495673507566389,0.0376991118430775,-0.0041887902047863,2099.692599546493,144237.02371909053,376.5766599443159
1403638576527829504,64.947366,210.72124334995863,8.065969625,-0.3105439166666667,-3.87362675,-0.0425860337486616,0.0237364778271228,0.0139626340159546,2109.3181533981283,146126.10463416827,378.4712269892043
1403638576777829376,49.425602,186.31383272828683,8.605335375,-0.6864655000000001,-3.57942725,0.0390953752446729,0.2373647782712288,0.1263618378443894,2116.8064110535956,148024.12457079568,380.3990547618887
1403638577027829504,50.521612,231.3153862355712,9.700411291666663,0.4331270416666666,-3.211677875,0.0321140582366956,0.093549647906896,0.2157226955464991,2124.571451838687,149932.21191931053,382.4220128915331
1403638577277829376,50.383807,249.89850047820536,9.839338833333333,-0.2288218333333333,-3.4813607499999994,-0.025830872929516,0.0160570291183478,-0.0747000919853573,2129.133645029798,151847.12640615093,384.0153054195107
1403638577527829504,50.098181,240.7761099808432,7.077132416666666,-0.1797885833333333,-2.729517583333333,-0.0160570291183478,-0.0139626340159546,0.0635299847725936,2138.1381041728764,153773.18365951962,386.0128803581465
1403638577777829376,38.333416,230.9150537571031,9.80665,-1.2912089166666665,-4.208687291666666,0.0097738438111682,0.0844739357965255,0.0579449311662117,2145.674726864071,155709.02553384958,387.8770111496269
1403638578027829504,35.17723,233.13991000161909,9.65955025,0.5883989999999999,-4.053415333333333,0.0488692190558412,0.0579449311662117,0.1500983156715123,2153.005058169099,157653.89620244937,389.66727208008524
1403638578277829376,27.129888,236.1738969223984,11.833357666666666,-0.4494714583333333,-3.906315583333333,0.0370009801422797,0.0279252680319092,0.2638937829015426,2159.4937701475465,159607.53869523716,391.353755763761
1403638578527829504,49.127102,243.8001481554199,9.103840083333331,-0.5557101666666666,-4.2822371666666665,-0.0097738438111682,0.0160570291183478,0.1438151303643327,2166.2225805006296,161568.4992630328,392.7339590564661
1403638578777829376,49.825669,250.7918432467908,10.24794925,0.7681875833333334,-4.576436666666666,-0.0865683308989187,-0.0502654824574366,-0.1333431548523667,2172.5172718193157,163535.7887934,393.9424595509772
1403638579027829504,49.517631,236.28827999730723,9.80665,-0.1552719583333333,-3.38329425,0.0335103216382911,0.0293215314335047,0.1137954672300302,2178.23092682418,165509.77756772554,395.4306589337066
1403638579277829376,49.867392,236.57456485472565,7.984247541666667,-0.0653776666666666,-3.317916583333333,0.0111701072127637,0.0502654824574366,0.0719075651821663,2185.20379673262,167493.0772096035,397.37631761614466
1403638579527829504,35.547734,195.68346825169044,7.755425708333333,-0.2860272916666666,-3.6284605,0.0747000919853573,0.1947787445225671,0.0656243798749867,2191.115389647685,169484.2348456769,398.7089316203201
1403638579777829376,64.044476,156.7044319697071,9.324489708333331,-0.4249548333333333,-3.342433208333333,0.4098033083682685,-0.0139626340159546,-0.2904227875318564,2196.1334505298596,171481.27046148642,399.91741387802176
1403638580027829504,50.60196,126.25088482940166,7.698220249999999,0.2124774166666666,-1.91229675,0.7791149780902686,0.2136283004441059,-0.2178170906488923,2201.380597205123,173485.36657546065,401.47514649885125
1403638580277829376,47.958375,111.33879317900367,8.074141833333334,1.1441091666666665,-2.8357562916666668,0.9487609813841176,0.0418879020478639,-0.1096066770252439,2207.9022590624886,175498.16149866607,403.23811523380573
1403638580527829504,72.54529,140.18020231024465,9.675894666666666,-0.024516625,-3.77556025,0.4600687908257052,-0.0230383461263251,0.1312487597499735,2214.673646243042,177518.1472500446,404.430209058075
1403638580777829376,50.127983,160.36773167337853,9.7085835,-0.7109821249999999,-3.661149333333333,0.2806489437206881,-0.0404916386462684,-0.1012290966156711,2220.9280868438486,179543.47793292277,405.47351412833086
1403638581027829504,49.704551,197.42868449304615,10.354187958333334,0.4821602916666666,-3.1217835833333334,0.0495673507566389,-0.018151424220741,-0.0111701072127637,2226.6403216265758,181573.93400455813,406.54695691680536
1403638581277829376,50.550938,195.1861464256025,11.016136833333332,-0.0980665,-3.849110125,-0.0565486677646162,0.0335103216382911,0.1026253600172665,2232.0913588314575,183610.02213241736,407.6589496850793
1403638581527829504,50.090075,194.1238883502148,8.793296166666666,0.04903325,-3.097266958333333,-0.0844739357965255,0.0565486677646162,0.0551524043630208,2236.3928926990434,185650.86211521042,408.65291453394457
1403638581777829376,49.054861,213.56329446730723,9.937405333333334,-0.1552719583333333,-3.800076875,-0.0586430628670094,0.028623399732707,0.0565486677646162,2241.8305270000574,187697.80583155854,409.84119438330526
1403638582027829504,63.373089,212.20226919110968,8.948568125,0.1879607916666666,-4.453853541666667,-0.0048869219055841,-0.1151917306316257,0.0404916386462684,2247.0855031494943,189750.12188767642,410.8448772766278
1403638582277829376,49.349308,200.17954187765727,10.337843541666668,0.2860272916666666,-3.489532958333333,-0.0481710873550434,0.0502654824574366,-0.0160570291183478,2252.021091962854,191807.37236796925,411.88208147950354
1403638582527829504,50.207138,215.39195967360777,11.473780499999998,0.1879607916666666,-4.184170666666667,-0.0223402144255274,0.018151424220741,0.0586430628670094,2256.7126974138905,193869.83634455132,412.8996806106006
1403638582777829376,39.390802,245.46517300974705,11.179581,0.24516625,-3.072750333333333,-0.0251327412287183,-0.0809832772925368,0.0439822971502571,2261.294025870944,195937.32730049567,413.90447542702896
1403638583027829504,60.097694,226.4556264057028,7.420365166666667,0.2941994999999999,-3.8409379166666655,-0.0132645023151569,-0.0495673507566389,0.1340412865531645,2265.674893621072,198009.56233101804,414.77940437191864
1403638583277829376,50.142765,235.2979577899819,7.444881791666666,0.4086104166666666,-3.97169325,0.0097738438111682,0.1082104136236484,-0.0034906585039886,2269.5880235850796,200085.9521372514,415.61916350974934
1403638583527829504,50.155402,225.94869319914417,9.553311541666666,-0.122583125,-2.508867958333333,-0.0027925268031909,0.093549647906896,0.0684169066781777,2272.8879477379546,202166.2998742968,416.3808562748891
1403638583777829376,51.098346,222.65135506701276,8.899534874999999,-0.1634441666666666,-4.037070916666667,-0.0195476876223364,0.0188495559215387,0.0593411945678072,2275.5999098984125,204250.21738759402,417.00081013020827
1403638584027829504,50.004244,200.0950506642146,10.117193916666666,0.4086104166666666,-3.178989041666666,-0.0537561409614253,0.189891822616983,0.0579449311662117,2278.039330798272,206337.37480814144,417.66662261702004
1403638584277829376,65.52124,183.5854484922287,8.270274833333334,0.3105439166666667,-2.754034208333333,-0.0342084533390888,0.1703441349946465,-0.0495673507566389,2280.307514161259,208427.43545209995,418.2085629151843
1403638584527829504,49.052,214.08056783856992,11.285819708333332,0.93163175,-5.385485291666667,0.0558505360638185,0.025830872929516,0.0942477796076938,2282.6353670108706,210519.3334166178,418.5040588028205
1403638584777829376,47.591924,160.99437606612744,9.782133375,0.1144109166666666,-3.6202882916666654,0.025830872929516,-0.1556833692778942,0.1591740277818828,2285.0670406124664,212612.83660412664,418.82191444005
1403638585027829504,39.417505,201.09322888714095,8.074141833333334,0.2288218333333333,-1.8632635,-0.0621337213709981,0.0600393262686049,0.0551524043630208,2287.34381605032,214708.10513685786,419.20866091075004
1403638585277829376,51.105737,195.30064210961476,7.583809333333333,0.1307553333333333,-3.1054391666666663,0.0153588974175501,0.2143264321449036,0.0321140582366956,2289.154312851108,216804.9672095617,419.476602622628
1403638585527829504,49.681664,206.83793458983027,9.414383999999998,0.4249548333333333,-2.280046125,0.0006981317007977,-0.1305506280491758,0.0956440430092892,2290.92530950316,218903.1310702806,419.76133159472374
1403638585777829376,50.774097,180.2230322484748,9.602344791666663,0.5148491249999999,-2.280046125,-0.0034906585039886,-0.1347394182539622,0.0516617458590321,2292.8179734589066,221002.7980985226,420.056531781127
1403638586027829504,40.631294,173.7356667833322,8.041452999999999,0.465815875,-2.868445125,-0.0593411945678072,0.1759291886010284,0.0719075651821663,2294.4305267518744,223104.34282694088,420.4352701208554
1403638586277829376,39.974928,180.9827721045874,8.507268875,0.2615106666666666,-3.366949833333333,-0.0565486677646162,0.1473057888683213,0.064926248174189,2295.410277297615,225206.7291043795,420.46362365884124
1403638586527829504,48.886776,202.28405052761065,9.36535075,0.3105439166666667,-2.378112625,0.007679448708775,0.0104719755119659,0.0788888821901436,2295.539317520248,227308.83595633454,420.417422074941
1403638586777829376,51.959037,196.8338419552146,8.392857958333332,-0.7109821249999999,-1.4628252916666666,0.0879645943005142,0.1542871058762987,0.1333431548523667,2295.3094328893753,229410.9768572876,420.39650522670127
1403638587027829504,37.117481,203.21072647308097,9.75761675,-0.416782625,-4.175998458333333,-0.0062831853071795,-0.018151424220741,0.1151917306316257,2294.8499875281577,231512.54266207412,420.2405785503506
1403638587277829376,64.157247,195.62716114368652,9.675894666666666,-1.2176590416666666,-3.4731885416666666,0.0188495559215387,-0.0844739357965255,0.025830872929516,2294.5591151446697,233613.10460425256,420.0426345549058
1403638587527829504,50.022602,191.32120093989627,8.915879291666666,-0.2615106666666666,-2.378112625,-0.0495673507566389,-0.0293215314335047,0.1151917306316257,2294.013277500562,235712.54149442993,419.77885478618555
1403638587777829376,49.669743,198.88967698320135,10.942586958333331,0.4086104166666666,-3.530394,0.0223402144255274,0.0104719755119659,0.1193805208364121,2292.850463170692,237810.26112504883,419.39455315627856
1403638588027829504,39.326668,215.0215891603073,8.164036124999999,0.3595771666666666,-3.113611375,-0.0118682389135614,-0.0223402144255274,-0.0020943951023931,2291.6349377887977,239906.04058851118,418.97250167059246
1403638588277829376,48.873425,217.6245949173645,10.174399375,-0.1144109166666666,-2.89296175,0.0013962634015954,-0.0635299847725936,0.0747000919853573,2290.1676038866995,241999.4314665291,418.52486608806066
1403638588527829504,36.475181,221.7955562928219,10.525804333333332,0.5883989999999999,-3.8245935,0.0307177948351002,-0.0027925268031909,0.2024581932313422,2288.3006658659197,244091.0404457544,418.15972687647445
1403638588777829376,50.127029,229.63947233095024,7.420365166666667,0.907115125,-2.533384583333333,-0.0160570291183478,0.0970403064108847,0.0628318530717958,2286.266638631881,246179.97163738642,417.53875874870573
1403638589027829504,60.889006,237.98136860179127,8.057797416666666,0.5720545833333333,-2.10842975,-0.0090757121103705,0.0230383461263251,0.0705113017805709,2283.4258593310974,248265.2325654429,416.7110777226917
1403638589277829376,49.184799,238.4040354132894,11.163236583333331,-0.7600153749999999,-3.8082490833333327,-0.0048869219055841,-0.0614355896702004,0.0914552528045028,2280.460530639485,250346.5204667599,415.9362332832243
1403638589527829504,53.064347,242.6183409135614,9.7085835,-0.4331270416666666,-3.28522775,-0.0237364778271228,-0.0593411945678072,0.057246799465414,2277.3488658107317,252423.38098804085,414.9828798432718
1403638589777829376,40.384531,244.8145459329446,6.472389,-0.3350605416666666,-1.887780125,-0.0125663706143591,-0.0048869219055841,0.0795870138909414,2274.2085466953445,254495.4587753125,414.02868452918483
1403638590027829504,49.129247,249.32911262870243,8.466407833333333,0.63743225,-4.274064958333334,-0.0530580092606276,-0.0663225115757845,0.0488692190558412,2271.0488669345423,256563.00561764688,413.16939972894033
1403638590277829376,49.966336,241.0117765299402,7.812631166666666,0.980665,-1.4709975,0.0153588974175501,0.1242674427419962,0.0516617458590321,2267.735372509281,258626.26962491072,412.2924159372051
1403638590527829504,49.768448,240.3462970683563,11.285819708333332,0.4004382083333333,-3.505877375,-0.0265290046303138,-0.0509636141582344,0.1193805208364121,2264.54509524231,260685.05664344694,411.3566511567042
1403638590777829376,60.796976,252.20557395101932,10.901725916666663,0.5720545833333333,-3.9880376666666666,0.0,0.0013962634015954,0.0872664625997164,2260.6547847950847,262738.478520055,410.2106925485423
1403638591027829504,49.812079,272.9537534855523,9.610517,-0.392266,-3.546738416666667,0.0055850536063818,-0.0719075651821663,0.0740019602845595,2256.193596739398,264785.94320540945,408.97788589069387
1403638591277829376,39.268255,206.32957976642544,9.5124505,0.7191543333333333,-3.8245935,0.0272271363311115,-0.1905899543177807,0.1459095254667259,2251.251891494538,266827.16411342553,407.8408343818155
1403638591527829504,50.207615,251.40573599980436,6.366150291666666,0.1307553333333333,-1.6998193333333331,-0.0167551608191455,-0.1179842574348166,0.1500983156715123,2246.4891487599857,268863.6780218238,406.9601858241367
1403638591777829376,49.854517,264.742920590864,9.487933875,-0.1470997499999999,-2.083913125,-0.0153588974175501,0.2234021442552742,0.1375319450571531,2241.877852645534,270895.81033076864,406.0074426101055
1403638592027829504,37.946701,276.8343637747319,9.978266375,0.2369940416666666,-2.966511625,0.0041887902047863,0.0949459113084915,0.0921533845053006,2236.7598969392648,272922.4235808867,404.812937127077
1403638592277829376,35.78949,212.89627700202408,10.452254458333334,0.0572054583333333,-4.453853541666667,0.2457423586808016,0.2178170906488923,0.0865683308989187,2231.0668052143105,274942.5884737946,403.4580784100108
1403638592527829504,50.186634,257.64406197096565,10.059988458333333,-0.4985047083333333,-4.16782625,0.2415535684760151,-0.1731366617978375,-0.1061160185212552,2225.611064923163,276954.6265751318,401.63197451108135
1403638592777829376,38.81073,294.9406184423049,8.891362666666666,0.3840937916666667,-3.366949833333333,0.1068141502220529,-0.2227040125544764,0.0551524043630208,2220.2117315956752,278957.2240922096,399.88476060295943
1403638593027829504,60.652733,320.34832214529695,7.50208725,0.196133,-3.0564059166666664,0.0216420827247296,-0.0342084533390888,0.0928515162060983,2214.9873381792327,280952.75853071787,398.60181574657327
1403638593277829376,49.813032,325.6357862908497,10.182571583333331,0.3514049583333333,-2.729517583333333,-0.0593411945678072,0.2024581932313422,-0.0502654824574366,2209.4429046718988,282941.86396766757,397.2699572472484
1403638593527829504,50.667047,302.9390200872361,7.534776083333333,0.7191543333333333,-2.6641399166666666,-0.0223402144255274,0.1801179788058148,0.0279252680319092,2203.6394519247697,284924.3296027145,396.0270942976931
1403638593777829376,50.804615,300.42162202285454,8.662540833333333,-0.4249548333333333,-2.982856041666666,0.054454272662223,0.2548180707911721,0.1926843494201739,2197.4577727184374,286900.9859147354,394.865307645523
1403638594027829504,52.82712,350.83407295225896,9.275456458333332,0.0408610416666666,-3.742871416666666,0.1089085453244461,-0.2010619298297467,0.0767944870877505,2190.9721645753316,288870.6262663383,393.1791487096925
1403638594277829376,29.920817,395.7315981137575,9.291800875,-0.1797885833333333,-2.8439285,-0.0111701072127637,0.0774926187885482,0.0432841654494593,2184.5630585948757,290830.3002794576,391.223735703039
1403638594527829504,48.726081,357.6165308476717,8.850501625,0.1307553333333333,-3.211677875,0.0432841654494593,0.0034906585039886,0.1319468914507713,2178.221940832157,292781.27335013327,389.4972584947245
1403638594777829376,37.578345,424.3946890412061,8.262102624999999,-0.7028099166666667,-3.309744375,-0.0048869219055841,0.0034906585039886,0.0872664625997164,2171.833958719808,294723.2031399307,387.69648046954535
1403638595027829504,62.092066,447.4064863956901,9.733100125,-0.4821602916666666,-2.941995,-0.0565486677646162,-0.0537561409614253,0.0942477796076938,2165.295259188569,296656.2542217927,385.86073055595625
1403638595277829376,50.42243,437.5269961348146,9.700411291666663,0.4576436666666666,-3.334261,-0.036302848441482,0.0502654824574366,0.0425860337486616,2158.3445547283345,298580.11138014524,384.01845693954965
1403638595527829504,39.104223,453.4146098619597,8.858673833333333,0.4903325,-2.770378625,0.0006981317007977,-0.0446804288510548,0.0851720674973232,2150.943290321438,300494.4364367283,382.07224030344514
1403638595777829376,50.098896,431.9731162717977,7.518431666666666,0.2288218333333333,-2.6886565416666666,-0.0174532925199432,-0.0293215314335047,-0.0223402144255274,2143.2573380843996,302398.3422026428,379.8989427899942
1403638596027829504,34.853458,377.4357596202042,8.662540833333333,-0.1552719583333333,-3.2770555416666665,-0.153588974175501,0.0628318530717958,-0.1682497398922533,2135.4352421615927,304292.73999669694,378.2496775155887
1403638596277829376,38.063764,323.74186368852565,10.141710541666669,0.8662540833333333,-4.037070916666667,-0.0712094334813686,0.0537561409614253,-0.1577777643802873,2127.410988958622,306178.8820547961,376.598277598212
1403638596527829504,44.828177,408.3413184003598,9.275456458333332,-0.2615106666666666,-2.778550833333333,-0.0474729556542457,-0.0509636141582344,-0.1165879940332212,2118.6770917852973,308058.04699166084,375.4674573079101
1403638596777829376,49.924851,417.5482823512485,10.198916,-0.1552719583333333,-3.652977125,0.0090757121103705,0.0300196631343024,-0.0083775804095727,2110.1356350051055,309933.51156549423,374.9021572305355
1403638597027829504,64.591885,421.13855733330064,7.616498166666665,0.9970094166666666,-2.165635208333333,-0.0453785605518525,0.046774823953448,0.0265290046303138,2101.2383308777107,311806.379514282,374.37256810540566
1403638597277829376,38.595676,448.0041901218914,9.716755708333332,0.8825985,-3.4241552916666667,-0.0321140582366956,0.1207767842380075,0.208043246837724,2092.0470494329425,313676.87974143936,373.90938755928073
1403638597527829504,35.237074,317.12094889887027,8.523613291666665,0.2941994999999999,-3.2361945,0.0949459113084915,0.2254965393576673,0.4384267081009756,2082.5522974511427,315543.47627729614,372.84714983118465
1403638597777829376,49.091578,499.3849623599959,9.308145291666667,0.63743225,-3.1217835833333334,0.0432841654494593,0.0174532925199432,-0.1933824811209717,2072.8467990388294,317401.8712464396,370.8360077838297
1403638598027829504,51.328898,669.8687356936167,10.207088208333332,0.1552719583333333,-3.710182583333333,0.1682497398922533,0.0656243798749867,0.1647590813882647,2062.910779004425,319250.3473537831,368.966586428578
1403638598277829376,49.905777,548.0976659904509,8.441891208333333,1.5445473749999998,-3.0564059166666664,0.1263618378443894,-0.1068141502220529,0.3155555287605747,2052.9162399942365,321088.5036197465,366.5893328638049
1403638598527829504,50.028324,699.4883308163969,9.553311541666666,0.1389275416666666,-3.2443667083333327,0.1033234917180643,-0.2024581932313422,0.08307767239493,2042.8641902094764,322912.9451103331,363.7339031381416
1403638598777829376,56.126356,762.047081248165,11.416575041666665,0.661948875,-1.4137920416666665,0.3099704751541929,0.0844739357965255,-0.0523598775598298,2032.6622636853472,324722.9398559159,360.778163963696
1403638599027829504,49.791813,641.8576503823774,10.583009791666663,0.83356525,-3.963521041666666,0.3385938748868999,0.0837758040957278,-0.1857030324121966,2028.124708851037,326522.3001727087,357.78307936614146
1403638599277829376,38.242341,564.9044190663942,10.44408225,2.043052083333333,-4.437509125,0.5152211951887261,-0.1480039205691191,0.0404916386462684,2012.674082618989,328301.5316648515,354.57328798092203
1403638599527829504,51.145792,762.0056914185976,6.995410333333333,0.8744262916666666,-1.6589582916666663,0.2122320370425104,-0.0481710873550434,0.0223402144255274,2003.0440517181623,330064.6280837744,351.4151025628671
1403638599777829376,60.854197,791.7526986696867,9.054806833333332,1.201314625,-4.576436666666666,0.0041887902047863,-0.0621337213709981,0.0767944870877505,1993.4787173981413,331813.6132921055,348.80008171783993
1403638600027829504,49.034834,289.1174790564696,9.675894666666666,0.0081722083333333,-3.391466458333333,0.025830872929516,-0.0886627260013119,0.3490658503988659,1984.1533691608865,333550.1114465549,346.3018443075707
1403638600277829376,49.233198,180.13760013179487,10.844520458333331,0.0980665,-4.135137416666667,0.0307177948351002,-0.0684169066781777,0.3476695869972704,1974.6076842795312,335273.1169086289,343.3353098865482
1403638600527829504,51.074028,273.1002876561033,11.580019208333333,0.3350605416666666,-3.18716125,-0.0335103216382911,0.054454272662223,0.0642281164733913,1964.936325399125,336979.5404944855,339.7582472303766
1403638600777829376,38.902283,257.7496038308352,11.490124916666666,0.7191543333333333,-3.38329425,-0.0432841654494593,-0.1710422666954443,-0.0642281164733913,1955.1884314559818,338667.04162095056,336.04093003150774
1403638601027829504,56.618213,335.35790686652695,8.9240515,0.9398039583333332,-2.7213453750000003,-0.057246799465414,0.0125663706143591,-0.0886627260013119,1945.4710468637554,340337.7015859218,333.07631627394585
1403638601277829376,49.729347,260.24599621715726,9.16921775,0.7109821249999999,-3.8409379166666655,0.0265290046303138,0.2659881780039358,-0.0370009801422797,1935.723519843451,341996.4260906286,330.88782955752686
1403638601527829504,50.599575,194.4461972152275,8.744262916666667,0.7109821249999999,-3.2443667083333327,0.3371976114853044,0.2408554367752175,-0.085870199198121,1925.9221437574847,343643.84816800326,328.3848629662534
1403638601777829376,49.725055,236.75529852972323,12.029490666666666,0.4086104166666666,-5.05042475,0.5773549165597242,0.1473057888683213,-0.1382300767579508,1916.3694487512207,345276.3446307043,325.1906285326113
1403638602027829504,33.424855,400.95312106065984,9.545139333333331,1.1767979999999998,-4.445681333333333,0.3804817769347638,0.0397935069454707,-0.0335103216382911,1907.3258965734801,346892.675841837,322.0504230206716
1403638602277829376,63.001394,314.41679300796653,8.115002875,0.5965712083333333,-3.293399958333333,0.3804817769347638,0.3441789284932817,-0.1340412865531645,1899.9495714660225,348496.5739818827,319.2324780683266
1403638602527829504,38.983583,222.37541289212533,9.406211791666664,0.0,-4.453853541666667,0.5906194188748812,0.5612978874413763,0.3050835532486088,1889.9703169109732,350081.58480947214,315.2342382490169
1403638602777829376,49.217463,465.1880624515368,7.117993458333333,0.9234595416666666,-3.023717083333333,0.4300491276914028,-0.0642281164733913,-0.1103048087260416,1882.8431958966612,351640.0237863716,309.18821468862006
1403638603027829504,63.554287,412.1020932949179,8.891362666666666,-0.196133,-3.759215833333333,0.4712388980384689,-0.0719075651821663,0.0586430628670094,1875.5604213995878,353168.30284434307,303.5515487389639
1403638603277829376,50.208569,327.9769869463465,7.346815291666666,-0.0980665,-3.08909475,0.1633628179866692,-0.6290166624187563,-0.0314159265358979,1868.7402397802284,354672.4091511353,299.0629614745849
1403638603527829504,36.290168,680.2436881219377,9.765788958333331,-0.6047434166666666,-2.459834708333333,0.0928515162060983,0.0244346095279206,0.0272271363311115,1862.1962351877073,356157.2436749751,295.7882619862212
1403638603777829376,64.460993,626.9414982211711,10.019127416666668,0.5557101666666666,-2.803067458333333,-0.0432841654494593,0.1982694030265558,-0.122173047639603,1858.9162075531842,357629.2587739357,294.27000282751396
1403638604027829504,50.101042,683.0207003544872,8.711574083333332,0.3105439166666667,-1.5772362083333331,-0.0879645943005142,0.1410226035611418,-0.0642281164733913,1850.3943060410425,359083.65216362546,289.3900149666006
1403638604277829376,60.868264,499.6428946819681,8.964912541666667,0.93163175,-3.064578125,0.1089085453244461,-0.1947787445225671,0.3197443189653611,1843.9132999244148,360517.60437260184,284.9675432078657
1403638604527829504,45.827866,422.1746189803008,8.401030166666667,0.1552719583333333,-3.0073726666666665,-0.0356047167406843,-0.2059488517353309,0.0349065850398865,1838.1699474327806,361929.8246056158,280.9859074836131
1403638604777829376,50.02141,606.0646859946363,8.343824708333333,-0.2941994999999999,-3.072750333333333,0.0579449311662117,0.0244346095279206,0.208043246837724,1832.721521894207,363325.1698148052,277.3268356168992
1403638605027829504,50.086498,557.7672674732084,9.5124505,0.4739880833333333,-3.28522775,0.0411897703470661,-0.0635299847725936,0.124965574442794,1827.9567926869565,364706.1286779595,275.07246125047095
1403638605277829376,52.182913,863.0989033490033,9.242767625,-0.024516625,-1.593580625,-0.0698131700797731,-0.0495673507566389,0.0055850536063818,1823.431363135843,366074.82045646233,273.0956977768219
1403638605527829504,50.244093,753.1529648271231,8.605335375,0.9888372083333332,-3.710182583333333,-0.0446804288510548,0.2066469834361286,-0.1214749159388053,1819.0180649024467,367435.1702842057,271.20173507224536
1403638605777829376,49.222708,806.9880577247122,9.406211791666664,0.63743225,-3.2035056666666666,-0.036302848441482,-0.0502654824574366,-0.0356047167406843,1814.689929060001,368782.4980221194,268.1179766617133
1403638606027829504,50.048113,790.7574941935321,8.768779541666666,0.3840937916666667,-3.5957716666666664,-0.0642281164733913,0.0628318530717958,0.0314159265358979,1810.6737886232975,370113.07568376564,264.91141387220705
1403638606277829376,50.045252,664.0139670760799,9.283628666666663,0.34323275,-3.6202882916666654,0.0342084533390888,-0.036302848441482,0.1975712713257581,1807.4073506078598,371429.01901773957,262.0420562636573
1403638606527829504,60.863495,538.4553802227747,10.64021525,-0.5311935416666667,-3.162644625,0.0963421747100869,-0.1829105056090057,0.2932153143350474,1804.4652726910285,372731.06772129855,259.44277414813405
1403638606777829376,49.571991,527.5373558534794,9.291800875,-0.416782625,-4.339442625,0.293913446035845,-0.0998328332140756,0.0104719755119659,1801.7567290031604,374022.8803019547,257.66990314022405
1403638607027829504,49.01886,517.6584698186311,10.44408225,1.2748645,-4.323098208333334,0.4314453910929983,0.0160570291183478,0.0537561409614253,1799.4071709354544,375306.8806667574,256.25073095143307
1403638607277829376,48.106432,462.1273824911299,8.18855275,-0.3023717083333333,-1.4873419166666666,0.2282890661608583,0.2736676267127109,0.064926248174189,1798.0423684001128,376583.4928629134,254.7335319670965
1403638607527829504,63.138723,749.9552949479257,8.891362666666666,0.8825985,-2.435318083333333,0.0963421747100869,-0.025830872929516,0.028623399732707,1797.192049613506,377851.7752937728,252.83495259913616
1403638607777829376,39.191008,824.2218582742303,7.771770125,1.0133538333333332,-2.4843513333333336,-0.0118682389135614,0.0279252680319092,0.0956440430092892,1796.503207387752,379109.1980495824,250.5752575546503
1403638608027829504,34.37233,906.6153217883513,8.866846041666665,0.8253930416666666,-3.7673880416666665,-0.0795870138909414,0.0453785605518525,0.0293215314335047,1796.1294621387526,380355.30725583754,248.4092123300652
1403638608277829376,38.675786,932.4285784189044,8.401030166666667,-0.1062387083333333,-2.729517583333333,-0.0802851455917391,0.1689478715930511,-0.0006981317007977,1796.2764696055065,381590.7877818696,246.1311432904331
1403638608527829504,50.589562,698.0345288136288,8.278447041666666,0.7191543333333333,-2.533384583333333,-0.0342084533390888,-0.0195476876223364,0.0418879020478639,1797.041938157478,382813.14319830184,243.34307343140244
1403638608777829376,50.086021,613.3985931960988,8.768779541666666,1.1195925416666666,-3.0073726666666665,0.0146607657167523,-0.0663225115757845,0.0879645943005142,1798.3813867786243,384020.05599741335,239.97299367765663
1403638609027829504,63.990116,703.156597445106,11.416575041666665,-0.2941994999999999,-4.118792999999999,0.0090757121103705,-0.0781907504893459,0.0621337213709981,1800.3031400186646,385209.7750136846,236.68060617090669
1403638609277829376,50.068378,772.7688008823088,8.629852,0.6456044583333332,-3.0564059166666664,-0.0139626340159546,0.0342084533390888,0.1375319450571531,1803.0466620385957,386385.02263506764,234.02066235645907
1403638609527829504,49.74699,725.9244441240567,8.687057458333333,0.1389275416666666,-3.3506054166666663,-0.0383972435438752,-0.0949459113084915,0.0614355896702004,1806.324065952383,387548.49447481084,231.77479788585333
1403638609777829376,38.334847,730.1196716369304,8.711574083333332,0.3595771666666666,-3.0809225416666663,0.0,0.0132645023151569,0.0795870138909414,1809.5548854739804,388700.0565323881,229.24862027243944
1403638610027829504,38.646698,841.6533656404208,9.863855458333331,-0.5066769166666666,-4.086104166666667,0.0139626340159546,0.2094395102393195,0.0474729556542457,1813.0236343879676,389837.76618173555,226.40906696819002
1403638610277829376,27.653217,821.9199840945412,8.809640583333332,0.4576436666666666,-2.2718739166666664,0.0349065850398865,0.0321140582366956,0.0705113017805709,1817.3653329932763,390961.1435987878,223.63125169510022
1403638610527829504,49.951076,771.194802961133,10.34601575,0.5230213333333333,-3.309744375,0.028623399732707,0.2904227875318564,0.0816814089933346,1822.5153993560862,392071.5963274982,221.00310276064556
1403638610777829376,61.809302,498.840550368166,8.87501825,-1.2912089166666665,-2.533384583333333,0.0383972435438752,-0.249931148885588,0.1005309649148733,1828.2459090411546,393166.4407093185,217.46162790432572
1403638611027829504,49.359322,801.0975019701882,11.056997875,-0.220649625,-3.530394,-0.0048869219055841,0.1556833692778942,0.0460766922526503,1834.2834799933353,394244.8611969057,214.55544682539767
1403638611277829376,50.101041,779.0806476037232,9.610517,0.3595771666666666,-3.489532958333333,-0.028623399732707,-0.0293215314335047,-0.0209439510239319,1841.0078242316465,395309.89672318817,211.94390381826088
1403638611527829504,62.342405,636.2090528509667,10.623870833333331,-0.3595771666666666,-3.702010375,-0.0691150383789754,-0.0816814089933346,-0.0460766922526503,1848.561870607713,396359.9824469584,208.69677441817475
1403638611777829376,48.820257,658.9364768242135,9.651378041666666,-0.6946377083333333,-2.181979625,0.0488692190558412,0.0104719755119659,0.2869321290278678,1856.3891481368619,397393.29091375007,205.49745564121986
1403638612027829504,50.086975,772.8533314391204,10.844520458333331,0.34323275,-3.898143375,-0.0502654824574366,0.0593411945678072,0.0027925268031909,1864.4922391667858,398413.42014635063,203.11611651873682
1403638612277829376,50.138712,866.0357362190963,8.760607333333333,0.6537766666666667,-3.334261,-0.0642281164733913,-0.018151424220741,0.0383972435438752,1873.2637324805062,399421.6936173884,200.80864700791426
1403638612527829504,44.739247,819.7009441941268,7.820803375,0.2043052083333333,-3.67749375,-0.0684169066781777,0.1452113937659282,0.0027925268031909,1882.9188490507615,400419.1993297032,198.7094785242225
1403638612777829376,52.328825,826.6260190241313,8.3356525,-0.196133,-2.770378625,-0.0439822971502571,0.1312487597499735,0.0488692190558412,1893.2296294508717,401406.6006579045,196.5933091887273
1403638613027829504,38.205623,867.1153366448522,9.324489708333331,-0.2778550833333333,-4.396648083333333,0.0048869219055841,0.1291543646475804,0.153588974175501,1904.0144172699697,402381.0814914648,193.79319671710255
1403638613277829376,60.845137,929.9249820771664,8.38468575,0.1879607916666666,-2.4516625,0.0167551608191455,0.0795870138909414,0.0719075651821663,1915.4998075904466,403341.4731203838,191.0505682399962
1403638613527829504,54.122925,901.7165551602392,8.670713041666666,0.8907707083333333,-3.260711125,-0.0788888821901436,0.0425860337486616,0.1801179788058148,1927.4401889158166,404289.4113120865,188.73226967843948
1403638613777829376,50.461293,885.1417267623264,9.234595416666666,0.7028099166666667,-3.2280222916666665,-0.1396263401595463,0.085870199198121,0.1284562329467826,1939.833575596242,405226.62059860834,186.53219847747823
1403638614027829504,49.609423,611.7949497642993,8.3356525,-0.34323275,-2.043052083333333,-0.382576172037157,-0.0062831853071795,0.2164208272472968,1953.0073661831232,406152.10986034,184.1182785234414
1403638614277829376,49.833059,643.8247170145935,9.504278291666663,0.4576436666666666,-2.974683833333333,-0.2876302607286655,0.028623399732707,0.161268422884276,1967.3482993263506,407065.31702142174,181.58030346239684
1403638614527829504,50.928116,778.5579829992652,9.357178541666666,-0.2533384583333333,-2.5170401666666664,-0.1864011641129944,-0.025830872929516,0.1982694030265558,1982.2400198825164,407965.47325634136,178.9459794506547
1403638614777829376,72.895289,581.1110592151415,9.250939833333334,-0.5883989999999999,-3.7919046666666665,-0.3218387140677544,-0.1151917306316257,0.3546509040052477,1997.3717843569343,408853.1967704092,176.54340489621973
1403638615027829504,49.877643,504.2272992733278,8.866846041666665,0.0735498749999999,-3.3506054166666663,-0.6527531402458793,-0.0146607657167523,0.1926843494201739,2013.4237968332648,409729.88043496525,174.6597966401023
1403638615277829376,61.348438,453.06088390620687,7.649186999999999,0.2369940416666666,-2.778550833333333,-0.6862634618841703,0.2129301687433081,0.2569124658935653,2030.4130305515944,410597.7216009608,172.72317653126083
1403638615527829504,62.022448,345.74512771126746,9.324489708333331,-1.1767979999999998,-3.268883333333333,-0.5522221753310059,0.0991347015132779,0.2666863097047335,2047.1239002296177,411455.08473032824,170.66879113210598
1403638615777829376,49.820661,211.5290464530973,11.024309041666667,0.1389275416666666,-3.8164212916666655,-0.2241002759560719,0.046774823953448,0.2254965393576673,2064.2012984980647,412301.7300863252,168.34512918116525
1403638616027829504,50.420761,230.7975227838794,7.289609833333333,-0.0326888333333333,-2.0512242916666668,-0.3064798166502042,0.0488692190558412,0.1151917306316257,2081.5675194815244,413135.49363952427,165.81430494965753
1403638616277829376,50.351858,188.86222245011007,6.439700166666666,0.3350605416666666,-2.40262925,-0.418879020478639,0.0090757121103705,0.2178170906488923,2099.290630213048,413958.4285183986,163.85422224667855
1403638616527829504,39.27064,168.07775299960272,8.711574083333332,-0.2860272916666666,-1.4464808749999998,-0.3043854215478111,-0.0509636141582344,0.1647590813882647,2117.246066539812,414771.3825159189,161.71749858924886
1403638616777829376,49.335003,127.90306627997988,8.196724958333332,-0.1470997499999999,-2.5660734166666663,-0.0565486677646162,-0.2520255439879811,0.2611012560983517,2135.2629354937653,415573.49017953966,159.61960279301275
1403638617027829504,50.353765,180.8721677948638,6.586799916666666,0.6782932916666666,-3.4650163333333333,-0.028623399732707,0.1808161105066125,-0.1193805208364121,2153.260160442179,416365.4185023977,157.5333470138139
1403638617277829376,50.856352,221.5021660655497,8.204897166666667,-0.784532,-3.2770555416666665,0.0781907504893459,-0.0237364778271228,0.1975712713257581,2171.3760772732794,417146.39812945854,155.3783777714125
1403638617527829504,49.900293,207.17626454840843,10.166227166666664,-1.2340034583333332,-4.094276375,0.0237364778271228,0.1033234917180643,0.0802851455917391,2189.8012660099057,417917.7725316561,153.59635199629702
1403638617777829376,35.339356,202.1511876866621,9.275456458333332,-0.1062387083333333,-4.077931958333333,0.0656243798749867,-0.0104719755119659,-0.0279252680319092,2208.7926187999205,418680.91608986695,152.03959669650067
1403638618027829504,51.663637,206.14694881763293,7.649186999999999,-0.3595771666666666,-3.097266958333333,0.025830872929516,0.08307767239493,0.0125663706143591,2228.0983111758824,419436.68636691116,150.64201648847666
1403638618277829376,61.294555,210.4257644053207,10.558493166666668,-0.0980665,-3.2770555416666665,0.0125663706143591,0.0698131700797731,0.028623399732707,2247.6508020096853,420186.3429159935,149.42380651819985
1403638618527829504,46.095132,211.6921570728341,9.07115125,-0.0817220833333333,-3.08909475,-0.0795870138909414,-0.0174532925199432,0.0230383461263251,2267.6927248408847,420929.2550079874,148.04087953135604
1403638618777829376,53.03979,201.82686538505183,9.724927916666667,-0.34323275,-5.05042475,-0.0809832772925368,-0.0349065850398865,0.057246799465414,2288.212465052643,421664.88226529554,146.52767634525662
1403638619027829504,49.510956,122.69421081285086,7.232404375,0.04903325,-2.8357562916666668,-0.3804817769347638,0.1410226035611418,0.124965574442794,2308.799198937029,422392.51564379974,144.91787437320454
1403638619277829376,49.874544,187.9116910453317,8.719746291666667,-0.2124774166666666,-3.4241552916666667,-0.5822418384653083,0.0279252680319092,0.2813470754214859,2329.592327791299,423112.2773168851,143.32102197478525
1403638619527829504,64.189911,622.1641102916849,9.569655958333334,-1.61809725,-3.113611375,-0.3211405823669566,0.0802851455917391,0.265290046303138,2350.8057073891473,423823.5035300992,141.56423791812267
1403638619777829376,61.867952,914.120201604546,7.79628675,0.0408610416666666,-3.514049583333333,-0.0321140582366956,0.075398223686155,0.239459173373622,2372.095830652166,424525.00653602235,139.32760092243552
1403638620027829504,50.311565,980.633899920462,9.07115125,-0.4494714583333333,-2.672312125,-0.0223402144255274,0.0174532925199432,0.1368338133563554,2393.02014475321,425213.07625406515,136.40603241010103
1403638620277829376,50.412416,970.2689626544465,11.114203333333332,-0.73549875,-4.314926,-0.036302848441482,-0.0383972435438752,-0.0153588974175501,2413.8960245202275,425884.77150375274,132.94203062780434
1403638620527829504,37.619829,1072.1248650465143,8.433719,0.171616375,-2.549729,0.0279252680319092,-0.1005309649148733,0.0614355896702004,2435.055736257734,426539.7530156508,129.85132645629346
1403638620777829376,49.874783,1009.6404231812278,8.229413791666666,0.9643205833333331,-2.639623291666666,-0.0069813170079773,-0.104021623418862,-0.0153588974175501,2456.6149945477737,427182.0833788822,127.55817116814433
1403638621027829504,63.358784,932.7217853356068,9.749444541666666,-0.1470997499999999,-3.015544875,0.0132645023151569,0.1424188669627373,-0.0132645023151569,2478.413263646674,427813.1940401657,125.38187689619372
1403638621277829376,49.465417,996.9425117209164,10.076332875,0.24516625,-3.3996386666666667,0.0097738438111682,-0.046774823953448,-0.0390953752446729,2500.4159881156584,428433.59968109225,123.24274857045384
1403638621527829504,51.162958,994.2877277864516,10.215260416666666,0.220649625,-3.5957716666666664,-0.0055850536063818,0.0726056968829641,0.0747000919853573,2522.8209929093805,429044.1178181175,121.425279959396
1403638621777829376,49.178123,943.3626150025024,10.174399375,-0.3514049583333333,-3.178989041666666,-0.0307177948351002,0.104021623418862,0.0111701072127637,2545.527989609827,429646.12901960197,119.65490358043462
1403638622027829504,60.250521,988.4721250847372,7.591981541666666,-0.53936575,-3.219850083333333,-0.0188495559215387,0.0886627260013119,0.179419847105017,2568.476509747582,430238.4485939275,117.70256263710326
1403638622277829376,46.907901,990.6601836388472,8.662540833333333,0.1389275416666666,-3.4404997083333333,-0.0160570291183478,-0.0048869219055841,0.1179842574348166,2591.769245675683,430820.8050786322,115.55156427103793
1403638622527829504,49.628019,977.646218954654,8.768779541666666,-0.318716125,-4.960530458333333,0.007679448708775,-0.1026253600172665,0.0230383461263251,2615.3391917125246,431390.18576697825,112.81006240396528
1403638622777829376,51.127672,501.8773268461306,10.051816249999998,0.4576436666666666,-2.378112625,0.0062831853071795,0.3853686988403479,0.0719075651821663,2639.142573528548,431946.93647559534,110.3439756554435
1403638623027829504,35.398245,733.6760765429964,8.458235625,-0.024516625,-3.334261,-0.028623399732707,-0.2171189589480945,0.0956440430092892,2663.2220984042106,432492.03304033855,108.14484334661392
1403638623277829376,54.092646,899.7884385504087,9.724927916666667,-0.3595771666666666,-3.514049583333333,0.0090757121103705,-0.1012290966156711,0.1347394182539622,2687.6224236653957,433026.5268099976,106.07736789580667
1403638623527829504,49.269676,1030.9429380657116,10.280638083333333,0.0653776666666666,-3.366949833333333,-0.054454272662223,0.1584758960810851,0.0614355896702004,2712.1293265134623,433551.388596495,104.22598039649893
1403638623777829376,35.225153,936.3638827193367,9.299973083333333,0.4739880833333333,-3.4241552916666667,-0.0195476876223364,-0.0083775804095727,0.0558505360638185,2736.5362687580164,434065.4569002715,101.91485781915253
1403638624027829504,62.000752,1056.20979193339,9.259112041666668,-0.367749375,-3.4404997083333333,0.0020943951023931,0.007679448708775,0.2066469834361286,2761.2459305658476,434569.52413462143,100.27014419215266
1403638624277829376,50.236463,1099.660715410125,7.951558708333333,-0.4086104166666666,-2.982856041666666,-0.0460766922526503,0.0111701072127637,0.1207767842380075,2786.2378783720824,435067.0233437345,98.9504876852152
1403638624527829504,49.498797,846.1633186714412,9.716755708333332,-0.8662540833333333,-1.9531577916666665,0.0474729556542457,0.2988003679414292,0.210835773640915,2811.303049049649,435557.55580918066,97.51843790826388
1403638624777829376,64.390898,803.9955988470448,10.942586958333331,-0.6701210833333332,-2.9256505833333333,0.0495673507566389,-0.1473057888683213,-0.1117010721276371,2836.0998935631615,436039.37232689804,95.52003060962306
1403638625027829504,38.604737,971.8524611174574,9.046634625,1.250347875,-2.132946375,0.1389282084587486,-0.0300196631343024,0.1857030324121966,2861.7821260401915,436511.72580596356,93.89638173289131
1403638625277829376,60.758352,1211.3542440260946,9.798477791666668,0.7681875833333334,-4.674503166666667,0.0642281164733913,0.0872664625997164,0.0684169066781777,2887.951050053706,436978.0529167716,92.81432813132415
1403638625527829504,38.667441,1198.727276392405,9.357178541666666,-0.3350605416666666,-4.56009225,-0.0146607657167523,0.0342084533390888,0.0642281164733913,2914.2093795301903,437437.954022053,91.36786833172664
1403638625777829376,50.080776,1085.2106418314702,8.343824708333333,-0.9234595416666666,-3.5222217916666665,0.0397935069454707,-0.1305506280491758,0.1668534764906579,2940.4763725690595,437890.7199891919,90.08455503144069
1403638626027829504,60.716629,1108.8893888629716,7.976075333333333,0.53936575,-2.3699404166666667,-0.0055850536063818,-0.0781907504893459,0.1563815009786919,2967.0344257907295,438339.37263310666,89.51069935015403
1403638626277829376,55.82571,941.4174808150182,10.149882749999998,-0.7109821249999999,-3.2525389166666665,-0.093549647906896,0.1012290966156711,-0.15079644737231,2993.877757203264,438785.430952852,88.99409374478273
1403638626527829504,60.365677,994.9723926186422,8.507268875,-0.122583125,-3.293399958333333,0.0146607657167523,-0.0307177948351002,0.1012290966156711,3020.9869308093666,439229.2591564344,88.62519786483608
1403638626777829376,36.323786,1041.5572363183546,10.681076291666663,-0.0898942916666666,-2.827584083333333,0.0216420827247296,0.0062831853071795,0.140324471860344,3047.865629245109,439671.05507382774,88.21449629176641
1403638627027829504,63.933849,1360.3084188546898,8.482752249999999,0.1879607916666666,-2.7867230416666664,0.0062831853071795,0.0272271363311115,0.0740019602845595,3074.8625577641383,440111.41649903666,88.05341813020641
1403638627277829376,61.034679,1221.2666777333682,9.80665,-0.4249548333333333,-2.8439285,0.0034906585039886,-0.0062831853071795,0.0125663706143591,3102.2438733585554,440552.27877119795,88.237813343585
1403638627527829504,47.528505,1420.6035278810286,8.221241583333333,0.024516625,-4.4129925,-0.0453785605518525,0.1228711793404008,-0.0069813170079773,3129.8223578888246,440994.2587305057,88.50597556261346
1403638627777829376,38.266421,1480.070278389542,9.381695166666669,-0.3759215833333333,-3.7673880416666665,0.0013962634015954,0.0376991118430775,0.1542871058762987,3157.4953374006564,441437.31099512934,88.67326449917164
1403638628027829504,51.47171,715.3582606375795,9.504278291666663,0.4985047083333333,-2.20649625,-0.0474729556542457,0.0411897703470661,0.0593411945678072,3185.254261603458,441881.03937846754,88.78387900686357
1403638628277829376,61.179876,356.2184632233665,8.360169125,-0.8662540833333333,-2.8439285,0.0251327412287183,-0.0188495559215387,0.1570796326794896,3213.1688262543107,442325.573624764,89.01486819429556
1403638628527829504,49.262047,287.96986995594364,9.430728416666666,-0.24516625,-2.6151066666666667,0.0537561409614253,0.296705972839036,0.2338741197672401,3241.2838965686574,442771.9115502595,89.37573210755363
1403638628777829376,49.672127,361.84930540566927,10.305154708333331,-0.7028099166666667,-4.110620791666666,-0.0251327412287183,-0.0607374579694026,0.0013962634015954,3269.5091191117767,443218.0138542655,89.08579180488596
1403638629027829504,60.691357,265.49610309119413,8.016936375,1.0787315,-1.887780125,-0.0432841654494593,-0.0307177948351002,-0.085870199198121,3297.8498958673654,443663.2281061897,89.02052877022652
1403638629277829376,49.935103,377.27359449521,9.357178541666666,-0.956148375,-3.0400615,-0.0202458193231342,-0.08307767239493,0.007679448708775,3326.2934515478905,444108.4988408539,89.10110245953547
1403638629527829504,51.433325,323.676505766493,9.749444541666666,-0.1797885833333333,-3.554910625,-0.0013962634015954,-0.0558505360638185,0.1026253600172665,3354.8926509464673,444555.3406197614,89.6317908471101
1403638629777829376,49.530506,245.60377458721183,9.635033625,-0.3350605416666666,-3.366949833333333,0.0425860337486616,0.2436479635784084,0.1961750079241626,3383.6995783906536,445005.64788606216,90.24707124871202
1403638630027829504,49.348355,304.44973819813066,6.880999416666667,0.0653776666666666,-1.9531577916666665,-0.0607374579694026,0.1808161105066125,-0.0809832772925368,3412.5368383915406,445457.9555770439,90.54768691951176
1403638630277829376,39.077282,143.7296658557059,8.278447041666666,0.171616375,-2.2555295,-0.0153588974175501,-0.0705113017805709,0.0642281164733913,3441.2486987037214,445912.2452723179,91.06223865109496
1403638630527829504,49.934149,251.65932445695933,8.932223708333334,0.4739880833333333,-3.2035056666666666,0.0020943951023931,0.0509636141582344,0.1682497398922533,3470.27259609227,446369.4601440524,91.68505665083649
