stamp,img_delta,blur,lin_acc.x,lin_acc.y,lin_acc.z,ang_vel.x,ang_vel.y,ang_vel.z,rpe,ate,drift
1403638519777829376,56.894541,311.0851508350217,9.046634625,-0.0326888333333333,-3.7837324583333327,-0.0027925268031909,0.0216420827247296,0.0774926187885482,0.08741114137586839,246.72209287219644,0.004857633396852634
1403638520027829504,50.429821,310.39798959199703,9.062979041666669,-0.0572054583333333,-3.832765708333333,0.0,0.0244346095279206,0.0740019602845595,0.017467103035351813,246.70999787782063,-0.0052130321915058175
1403638520277829376,48.901797,311.10371087885494,8.940395916666665,-0.0326888333333333,-3.800076875,0.0006981317007977,0.0167551608191455,0.0740019602845595,0.017811511861688265,246.69791450431126,-0.001183694562769233
1403638520527829504,51.083327,310.7887182679509,8.989429166666666,-0.0326888333333333,-3.8245935,-0.0048869219055841,0.018151424220741,0.0781907504893459,0.013036642317473503,246.70128296876945,-0.0024491187060675657
1403638520777829376,49.653768,311.2584974654062,9.005773583333333,-0.0408610416666666,-3.7919046666666665,-0.0034906585039886,0.0223402144255274,0.0802851455917391,0.0074340725423504015,246.69801817898667,-0.0012328188258265982
1403638521027829504,49.046278,311.26984878235345,9.103840083333331,0.0163444166666666,-3.857282333333333,0.0041887902047863,0.0188495559215387,0.0767944870877505,0.01842749667295443,246.71299902630105,-0.0023313313619723885
1403638521277829376,49.674272,310.1378187447905,9.022118,0.024516625,-3.8409379166666655,0.0062831853071795,0.0265290046303138,0.0663225115757845,0.030362144978361785,246.7354763872211,0.00463127928824747
1403638521527829504,50.014496,313.850329457211,9.152873333333332,-0.3105439166666667,-3.759215833333333,0.0104719755119659,0.0342084533390888,0.1277581012459849,0.04206557899161135,246.7345471077977,-0.0002414249723017292
1403638521777829376,49.815417,313.20258519363927,8.989429166666666,-0.1634441666666666,-3.849110125,0.0146607657167523,0.028623399732707,0.0760963553869527,0.04405657776583879,246.73761493420287,-0.011846921409528477
1403638522027829504,55.339575,302.833192179012,9.577828166666666,0.0326888333333333,-4.274064958333334,-0.0300196631343024,-0.0509636141582344,0.0013962634015954,0.11688650487133787,246.86768623791306,0.04434334893068126
1403638522277829376,39.127588,96.38356731800276,10.34601575,0.220649625,-4.094276375,0.1340412865531645,0.2429498318776106,0.124965574442794,6.913261071175307,246.74069252400542,-0.4031768021399671
1403638522527829504,48.987388,184.74801981205127,9.144701125,-0.5720545833333333,-3.4813607499999994,0.1591740277818828,-0.0998328332140756,0.2520255439879811,11.005484303565643,243.6180046538396,-0.12163851955986615
1403638522777829376,50.248384,147.76532410736337,9.193734375,-0.5802267916666666,-3.391466458333333,0.2031563249321399,0.2038544566329376,0.1263618378443894,12.848493973762782,242.28619829874899,-0.44900499182361386
1403638523027829504,39.200782,345.7369985065237,7.436709583333332,-0.7109821249999999,-2.778550833333333,-0.0216420827247296,0.1047197551196597,0.0621337213709981,12.540750429370759,240.80469710614145,-0.0027663931740562475
1403638523277829376,60.415268,563.4427088107528,7.256920999999999,-1.184970208333333,-1.96133,-0.1333431548523667,0.1075122819228507,-0.0055850536063818,3.784671378902217,241.79458676828745,0.45322360892262736
1403638523527829504,42.320728,138.0429960205361,8.907707083333333,-0.5066769166666666,-3.178989041666666,-0.0621337213709981,-0.3274237676741362,-0.0621337213709981,8.951814898118581,244.45181025940457,0.6787567023881707
1403638523777829376,50.625801,191.8278738669645,9.594172583333334,-0.612915625,-4.192342875,-0.0118682389135614,-0.0523598775598298,0.0160570291183478,12.223792525710966,247.86249839163168,0.7594323871070969
1403638524027829504,33.395529,156.41829245453778,11.506469333333332,0.0,-4.527403416666666,-0.0062831853071795,-0.124965574442794,-0.1207767842380075,9.673375826839994,250.406238449952,0.32165537830374547
1403638524277829376,66.749573,150.22164836476952,10.051816249999998,-0.0163444166666666,-4.486542375,0.1347394182539622,0.085870199198121,0.1864011641129944,4.919431826256631,249.9330689848673,0.021972807080317125
1403638524527829504,49.596548,116.5173524229112,8.621679791666667,-0.196133,-3.38329425,0.0013962634015954,0.3448770601940795,0.0984365698124801,14.348492481393151,248.4469331523181,-0.4030466866733491
1403638524777829376,32.953263,322.4134708264356,7.910697666666666,-0.2860272916666666,-2.680484333333333,-0.3008947630438224,0.0774926187885482,0.0069813170079773,13.598128251716973,246.18279474282807,-0.4127744351745548
1403638525027829504,37.953377,951.3977832528516,6.946377083333333,0.0980665,-2.190151833333333,-0.0439822971502571,0.0914552528045028,-0.046774823953448,4.402395990246742,244.74156316684565,-0.08788834438192339
1403638525277829376,61.764241,366.7530589677573,8.409202375,0.0817220833333333,-2.99102825,0.0670206432765822,-0.2254965393576673,0.0055850536063818,8.26033314995721,245.24424569002585,0.22071810758421861
1403638525527829504,48.692704,117.35809710941112,9.749444541666666,-0.1879607916666666,-4.208687291666666,0.0767944870877505,-0.2764601535159017,0.1647590813882647,12.526312527148201,247.4844316179793,1.110960179823195
1403638525777829376,44.434071,222.06777978906584,9.888372083333332,-0.1470997499999999,-4.323098208333334,-0.1577777643802873,0.1452113937659282,0.0977384381116824,10.22209867518416,249.0531573288316,-0.04785527965850633
1403638526027829504,37.775994,288.98112845770106,9.586000375,1.1359369583333332,-4.339442625,-0.0928515162060983,-0.054454272662223,0.0872664625997164,6.97851743741214,249.23135779587065,0.44371362772361067
1403638526277829376,48.891783,164.2078928191772,8.850501625,0.220649625,-4.184170666666667,-0.1242674427419962,0.1514945790731078,0.1961750079241626,8.17601271960132,256.3955013477036,1.6804362702446554
1403638526527829504,50.027132,191.36122497214757,8.785123958333333,0.5230213333333333,-3.505877375,-0.1368338133563554,0.210835773640915,0.2408554367752175,11.174602831264627,265.4217650745506,2.352250715998423
1403638526777829376,38.561344,272.34459928883376,9.079323458333333,-0.5148491249999999,-3.2770555416666665,-0.2199114857512855,0.0893608577021096,-0.0020943951023931,15.46554101365993,279.1514868416681,2.8602804217699713
1403638527027829504,60.212373,188.93369260981476,9.504278291666663,-0.6292600416666666,-3.293399958333333,-0.3183480555637657,-0.153588974175501,0.1989675347273535,16.491543793813133,294.1714861723971,2.7435423398688954
1403638527277829376,38.382292,289.915297764796,9.128356708333332,-2.034879875,-3.260711125,-0.3776892501315729,0.1668534764906579,0.08307767239493,13.432657315826999,305.6595204304924,1.7646106187690407
1403638527527829504,60.977459,602.6385062747416,8.842329416666665,-2.01036325,-3.293399958333333,-0.0523598775598298,0.028623399732707,0.0593411945678072,3.4944635459339297,308.2749181323,-0.41537531786968884
1403638527777829376,48.959494,326.9830263376339,9.5124505,-0.4004382083333333,-3.734699208333333,0.2408554367752175,-0.0642281164733913,0.1256637061435917,9.254858099191088,300.27372111212543,-2.1988323855733825
1403638528027829504,39.150477,299.8829778037477,8.548129916666667,-0.0735498749999999,-3.391466458333333,0.2073451151369263,0.0844739357965255,0.0474729556542457,15.462087830975676,289.75054650551766,-2.7239643491812444
1403638528277829376,50.889969,293.02251221891225,9.26728425,0.9970094166666666,-2.7131731666666665,0.2645919146023404,-0.0055850536063818,0.0279252680319092,15.150299450413081,277.0612958878303,-2.261312268880829
1403638528527829504,34.374475,319.9799534234847,9.455245041666666,0.34323275,-3.162644625,-0.0907571211037051,-0.0593411945678072,0.1570796326794896,10.937426007591206,269.0288683633691,-1.2690599990437477
1403638528777829376,49.225092,415.17350375161897,9.062979041666669,0.122583125,-4.9114972083333335,-0.0719075651821663,0.0376991118430775,0.1891936909161853,8.239595939674228,264.95393676348107,-0.5197640503733396
1403638529027829504,49.185037,554.494570674264,8.458235625,-1.1359369583333332,-4.380303666666666,-0.0712094334813686,0.0013962634015954,0.0719075651821663,2.2365348137924945,262.9169747187749,-0.3810892900060594
1403638529277829376,34.156322,244.44119152696337,8.28661925,-0.0081722083333333,-3.1463002083333333,-0.0551524043630208,-0.1047197551196597,-0.0872664625997164,7.333404465922349,260.4907068544619,-0.43226372528044976
1403638529527829504,50.230741,114.63859308785712,9.185562166666664,0.7109821249999999,-3.366949833333333,0.0502654824574366,-0.3413864016900908,0.0237364778271228,8.152877262627111,261.2401042205023,0.8966616461680132
1403638529777829376,50.229788,193.30363419720385,9.103840083333331,0.3023717083333333,-3.930832208333333,0.0530580092606276,0.2764601535159017,0.1452113937659282,23.54543081369826,273.388773345394,-1.2130836630704493
1403638530027829504,49.031019,258.57024567216814,9.283628666666663,0.4739880833333333,-3.7919046666666665,0.0027925268031909,-0.0502654824574366,0.0872664625997164,19.082795956135147,276.84189418482714,1.3382196523635912
1403638530277829376,36.886454,236.05202145527124,8.572646541666666,0.1389275416666666,-4.494714583333333,-0.0851720674973232,0.0370009801422797,0.1759291886010284,2.44691268128738,280.5905840887605,0.4088335394673095
1403638530527829504,37.855387,223.72993738989055,8.825985,0.1470997499999999,-4.388475875,-0.0530580092606276,0.0062831853071795,0.1158898623324234,11.347408750011926,274.23927085014657,-1.6505885275358878
1403638530777829376,62.100649,164.5062905445159,8.850501625,-0.0572054583333333,-4.306753791666666,-0.0160570291183478,-0.0328121899374933,0.0767944870877505,2.9222708657297884,275.3072328185996,0.17249489745125857
1403638531027829504,50.734759,203.09157247155463,10.068160666666666,-0.0653776666666666,-4.944186041666666,-0.0062831853071795,0.1256637061435917,0.0069813170079773,2.798371667714168,276.40830107588755,0.15258730007207078
1403638531277829376,49.996376,152.31546673406845,8.801468374999999,0.5802267916666666,-3.554910625,-0.0788888821901436,0.1165879940332212,-0.0055850536063818,2.8602633137561106,277.8133228655042,0.12334748101352488
1403638531527829504,50.230741,225.9756593786173,8.981256958333333,0.2124774166666666,-4.094276375,0.0006981317007977,0.018151424220741,0.0376991118430775,1.7300928619341147,279.2919526191603,0.07526072257036276
1403638531777829376,51.226378,227.4041379458511,8.956740333333332,0.1389275416666666,-3.930832208333333,0.0167551608191455,0.0132645023151569,0.0579449311662117,0.33297045925820407,279.01565933842056,-0.00584288178032466
1403638532027829504,37.434816,228.4066198905153,9.013945791666666,0.0898942916666666,-3.8899711666666654,0.0,0.018151424220741,0.0370009801422797,0.12477618517096327,278.94690451744316,0.0246089990033056
1403638532277829376,31.881809,230.75354421502487,8.793296166666666,0.0572054583333333,-3.930832208333333,0.0027925268031909,0.0202458193231342,0.0712094334813686,0.08422646173820572,279.0032994464521,-0.027099293015567127
1403638532527829504,50.851345,230.6454595330191,8.981256958333333,0.1307553333333333,-3.930832208333333,0.0069813170079773,0.0167551608191455,0.0907571211037051,0.1014571361677615,278.9369846617458,-0.013869919152057264
1403638532777829376,49.952984,231.08708281848263,9.038462416666666,0.1307553333333333,-3.947176625,-0.0013962634015954,0.0223402144255274,0.0816814089933346,0.01917885544106165,278.94268144085714,-0.01573380875328212
1403638533027829504,48.788309,229.80130775155015,9.005773583333333,0.1389275416666666,-3.963521041666666,-0.0034906585039886,0.0223402144255274,0.0684169066781777,0.02066445966709467,278.93861408071183,-0.007903851569096787
1403638533277829376,50.802469,231.04483317818665,8.9240515,0.0408610416666666,-3.9390044166666662,-0.0034906585039886,0.0244346095279206,0.0788888821901436,0.023787676899768302,278.9359126729186,-0.0038253370717598045
1403638533527829504,49.546004,230.5678476925193,8.915879291666666,0.1797885833333333,-3.87362675,-0.0041887902047863,0.0237364778271228,0.0851720674973232,0.027327161120987563,278.9067722313731,-0.002466157835442573
1403638533777829376,49.85094,231.00282660460576,8.997601374999999,0.1879607916666666,-3.947176625,-0.0034906585039886,0.0230383461263251,0.0788888821901436,0.016594500458001902,278.92388980339723,-0.007102347316276791
1403638534027829504,66.259623,228.0710447824268,10.059988458333333,-0.7600153749999999,-4.519231208333333,0.0300196631343024,-0.0202458193231342,0.0844739357965255,0.6046940415608757,279.4255370193679,-0.12103155601539584
1403638534277829376,50.370931,227.5328774917961,9.863855458333331,-1.3892754166666663,-3.9880376666666666,-0.0495673507566389,-0.0034906585039886,0.1019272283164688,0.08148997506832968,279.3665523333987,-0.12315298310704748
1403638534527829504,60.843944,226.2220145900517,9.553311541666666,-0.2124774166666666,-4.347614833333333,0.0823795406941323,-0.0006981317007977,0.0760963553869527,0.20630035488679058,279.5109294413926,-0.12632408186857447
1403638534777829376,50.649166,228.1485446046724,9.5124505,-0.9234595416666666,-4.020726499999999,-0.0530580092606276,0.0146607657167523,0.0949459113084915,0.10087547241659882,279.4266958621276,-0.009781778842921085
1403638535027829504,61.95736,228.63426173817103,9.054806833333332,0.0163444166666666,-3.898143375,0.0307177948351002,0.0216420827247296,0.0460766922526503,0.0418572223410241,279.43130397766396,0.0010924815193789073
1403638535277829376,33.052922,229.047339175418,8.883190458333333,-0.04903325,-4.077931958333333,0.0195476876223364,0.0307177948351002,0.0502654824574366,0.04436853641289481,279.4494346870657,0.02008334809539747
1403638535527829504,49.110889,229.1105371288928,8.752435125,0.196133,-3.8899711666666654,-0.0020943951023931,0.0195476876223364,0.0677187749773799,0.02663657677790789,279.44901645867094,-0.004130401091231306
1403638535777829376,60.94265,230.3679386652876,8.834157208333334,0.2533384583333333,-3.9144877916666654,0.0048869219055841,0.0195476876223364,0.0823795406941323,0.038211194593129834,279.46412808142884,-0.03651449300173226
1403638536027829504,48.951865,227.4465361516993,9.430728416666666,0.3023717083333333,-4.159654041666666,-0.0083775804095727,0.0376991118430775,0.1110029404268393,0.043389191035463924,279.5015966314291,0.01632628868617303
1403638536277829376,69.387436,230.1587511353871,8.915879291666666,0.465815875,-4.110620791666666,-0.0069813170079773,0.0321140582366956,0.0788888821901436,0.007817195018832428,279.53092605686766,0.02521527877229346
1403638536527829504,50.631761,229.91561204381367,9.16921775,-0.2124774166666666,-3.963521041666666,-0.0090757121103705,0.0223402144255274,0.08307767239493,0.01240240503240189,279.5132900021176,0.03223672476701722
1403638536777829376,32.959938,229.2758400918617,9.357178541666666,-0.0408610416666666,-4.053415333333333,0.0041887902047863,0.0272271363311115,0.0816814089933346,0.03207764138599636,279.52815230096724,0.02267783197623885
1403638537027829504,66.57672,228.9929044121038,9.161045541666669,-0.4739880833333333,-3.92266,0.0083775804095727,0.0300196631343024,0.1123992038284348,0.026536174890605706,279.5248163199722,-0.001219844481624932
1403638537277829376,47.938586,227.0339270043477,9.250939833333334,-0.171616375,-4.069759749999999,0.0118682389135614,0.0265290046303138,0.0719075651821663,0.06288355892567586,279.51923358345414,0.005312843126716871
1403638537527829504,48.916816,226.76336898856675,9.430728416666666,0.24516625,-4.192342875,-0.0104719755119659,0.0502654824574366,0.08307767239493,0.07744249980841234,279.5496605923988,0.045200674330260426
1403638537777829376,51.103592,227.4730051238877,7.918869874999999,0.612915625,-3.113611375,-0.0237364778271228,0.0083775804095727,0.0509636141582344,0.07653349608707785,279.5782140229862,0.024127653574851138
1403638538027829504,49.95966,221.86540010904224,9.855683249999998,-0.220649625,-4.4211647083333325,0.0083775804095727,0.0851720674973232,0.0886627260013119,0.030988572058376056,279.5488405839393,0.0010368141519165874
1403638538277829376,49.584627,215.30540845931696,10.435910041666666,0.04903325,-5.262902166666666,-0.0055850536063818,0.0027925268031909,0.0942477796076938,0.0906400568292739,279.57144410401827,0.022816929965699728
1403638538527829504,50.049305,223.89485554367545,8.172208333333334,-0.2533384583333333,-3.391466458333333,-0.0223402144255274,0.0223402144255274,0.0886627260013119,0.058483035771438326,279.53283473847637,-0.011877957828119179
1403638538777829376,37.96792,202.0849576465489,8.564474333333333,0.024516625,-2.8439285,0.0307177948351002,-0.0321140582366956,0.0230383461263251,0.4136016191892633,279.5334867421549,-0.01658110964831394
1403638539027829504,49.725055,173.55937492926668,11.42474725,0.367749375,-4.314926,-0.0349065850398865,0.3029891581462156,0.1158898623324234,9.47304114575407,279.07150814611293,0.5556687911878271
1403638539277829376,49.424887,187.85706793383736,10.051816249999998,0.3105439166666667,-3.546738416666667,0.0251327412287183,0.0851720674973232,0.1061160185212552,29.92847526519932,276.2269342549923,0.3929859524360495
1403638539527829504,43.431044,216.29077365718484,9.75761675,-0.318716125,-3.563082833333333,0.0265290046303138,0.0097738438111682,0.0774926187885482,32.614496571806335,290.60382375436467,3.8313152033426263
1403638539777829376,49.902439,326.63494445109257,7.84532,-0.4576436666666666,-2.525212375,0.0006981317007977,-0.0495673507566389,0.0809832772925368,14.193492912259043,293.8230258721279,1.200838544420435
1403638540027829504,50.657988,340.9150113525821,8.842329416666665,0.6946377083333333,-2.9256505833333333,0.0027925268031909,-0.1452113937659282,0.0,6.463627013055287,296.2826762458163,0.5389505307204558
1403638540277829376,49.958705,202.4233519405981,8.049625208333332,0.24516625,-1.8632635,-0.0027925268031909,0.28623399732707,-0.0048869219055841,9.689850377562097,301.9766595984872,1.9193610648027857
1403638540527829504,46.824455,1051.0662326128245,10.354187958333334,-0.0735498749999999,-3.9390044166666662,0.239459173373622,0.0202458193231342,-0.0551524043630208,15.045280943692244,312.9129363266246,1.2515063329321947
1403638540777829376,64.400196,854.8305133424047,10.697420708333333,0.1062387083333333,-4.184170666666667,0.5194099853935125,0.0663225115757845,-0.2436479635784084,7.9477881415691565,318.13265915310956,0.93976168047692
1403638541027829504,61.003208,876.7744906175433,10.256121458333332,-0.6537766666666667,-2.8766173333333334,0.4523893421169302,0.0537561409614253,-0.0146607657167523,9.34718082070658,325.3330828927892,1.2404962607449193
1403638541277829376,50.542831,1140.9698196284414,9.152873333333332,0.7109821249999999,-3.726527,0.1647590813882647,0.0628318530717958,-0.0139626340159546,11.285309880067551,334.539983658179,1.6508124956333177
1403638541527829504,52.381038,902.4445078683788,9.242767625,0.44129925,-3.5957716666666664,0.0279252680319092,0.0188495559215387,0.0523598775598298,10.438732148804448,341.424292657503,1.0989017990190746
1403638541777829376,44.797659,656.8199941467832,10.084505083333331,0.24516625,-3.366949833333333,0.3078760800517997,-0.0370009801422797,0.1200786525372098,17.51238061060853,346.6288049680283,1.032715341388382
1403638542027829504,49.962044,568.9708048532997,9.80665,0.0081722083333333,-3.849110125,0.4712388980384689,-0.0726056968829641,-0.0328121899374933,19.373772824296225,348.2981866698711,0.008914475618837514
1403638542277829376,38.957119,407.96691954395953,10.084505083333331,-0.1552719583333333,-2.69682875,0.5068436147791533,-0.0907571211037051,-0.0788888821901436,16.69280592868231,349.2805612050204,0.6236363471596746
1403638542527829504,49.881935,391.9386463224496,10.730109541666666,0.465815875,-4.257720541666666,0.1654572130890624,0.3532546406036522,-0.3120648702565861,12.033076355694336,349.90552697985277,0.21629782645072737
1403638542777829376,49.771547,403.7814984686226,11.089686708333334,0.171616375,-3.8164212916666655,0.1389282084587486,-0.0691150383789754,0.2254965393576673,12.787809603549405,348.6662476070848,-0.4660852375060358
1403638543027829504,49.826383,307.10803076535365,9.422556208333331,0.220649625,-3.734699208333333,-0.0118682389135614,-0.0376991118430775,0.1745329251994329,19.73955012597827,343.62155807913706,-1.9700956886635481
1403638543277829376,50.101757,416.5808211955541,7.363159708333333,0.7436709583333333,-3.138128,-0.0886627260013119,-0.0474729556542457,0.0586430628670094,18.422250610529726,338.10239720792555,-0.9906538908155085
1403638543527829504,49.982786,289.06025958971725,9.373522958333332,0.8662540833333333,-3.162644625,0.2597049926967562,0.0579449311662117,-0.0551524043630208,18.227935368287387,334.1111696100387,0.44764076053360213
1403638543777829376,39.431572,234.7261003197219,9.430728416666666,-0.1062387083333333,-3.2770555416666665,0.4384267081009756,0.0397935069454707,-0.2715732316103177,17.553915953133117,328.5761726767974,-1.1936502015245765
1403638544027829504,58.26807,239.63810595771284,9.65955025,0.4249548333333333,-3.7837324583333327,0.3797836452339661,-0.0984365698124801,0.0893608577021096,19.14715832065798,320.9007515601029,-1.773059470902524
1403638544277829376,60.639619,406.8847477021667,9.316317499999998,0.220649625,-3.4241552916666667,0.0977384381116824,0.0774926187885482,0.1186823891356144,17.89515592756253,311.5604214670624,-1.5281753253115653
1403638544527829504,38.814783,574.7502101738437,10.043644041666663,0.7273265416666667,-3.6284605,-0.018151424220741,0.0230383461263251,0.0586430628670094,14.026350601509987,304.34427134861306,-1.0652477933247155
1403638544777829376,49.976349,663.605157822712,8.392857958333332,0.8253930416666666,-3.669321541666666,-0.0090757121103705,-0.1424188669627373,0.0474729556542457,15.24030143641579,295.83507636796486,-1.5561392698839995
1403638545027829504,49.979687,731.3703634795904,8.687057458333333,-0.4903325,-2.9174783749999995,0.0307177948351002,0.085870199198121,0.0900589894029074,12.718731762776137,289.0517079992006,-1.0884396512199714
1403638545277829376,49.674749,733.1311883927061,8.278447041666666,0.1389275416666666,-3.0564059166666664,0.0006981317007977,0.1480039205691191,0.0474729556542457,16.73596278262274,280.1846663782106,-0.7853846800226734
1403638545527829504,39.421559,816.3300763448464,9.692239083333332,-0.2860272916666666,-2.705000958333333,0.1710422666954443,-0.0397935069454707,0.0055850536063818,7.470327905964393,285.1590898979122,-0.45253963836989897
1403638545777829376,37.314892,728.9840972794169,9.128356708333332,0.2533384583333333,-3.759215833333333,0.3958406743523139,0.0251327412287183,-0.1731366617978375,11.028015685733454,282.9826341836039,-0.7633309699398296
1403638546027829504,52.2995,796.7134791638849,9.814822208333332,0.3350605416666666,-3.514049583333333,0.4105014400690662,-0.0376991118430775,-0.1947787445225671,9.504089831564553,279.65259742264845,-1.0306522108085119
1403638546277829376,56.3941,908.3570842163954,8.613507583333332,0.6292600416666666,-2.9174783749999995,0.1500983156715123,-0.0321140582366956,0.132645023151569,9.095221048102854,276.12347794582485,-0.6422135751922724
1403638546527829504,50.338983,1151.5031793456956,10.158054958333333,-0.318716125,-4.976874874999999,0.0607374579694026,-0.018151424220741,-0.0635299847725936,9.689862330938928,274.3106196134083,-0.25912759805373753
1403638546777829376,50.642968,1029.7001289446805,8.401030166666667,-0.2369940416666666,-3.702010375,0.1110029404268393,-0.0048869219055841,0.0460766922526503,10.561828902334017,272.08559653430723,-0.7340911525161573
1403638547027829504,61.106682,1118.3039987537588,7.755425708333333,-1.2176590416666666,-3.1544724166666662,-0.0153588974175501,-0.0411897703470661,-0.0314159265358979,21.580327667067348,256.81381838240657,-0.6634033464828804
1403638547277829376,60.811997,1161.192725514541,7.616498166666665,0.0735498749999999,-3.8245935,-0.0439822971502571,0.0279252680319092,0.0614355896702004,15.738492483337083,251.08769175095017,-1.0190935193066366
1403638547527829504,50.026893,1006.4860951878076,9.684066875,-0.5883989999999999,-3.2361945,0.0418879020478639,-0.036302848441482,0.2136283004441059,17.457951735831006,248.87658397614234,-0.04865112375028957
1403638547777829376,49.256802,1068.4844349142827,8.956740333333332,-0.0408610416666666,-4.3721314583333335,-0.0872664625997164,-0.0523598775598298,-0.1172861257340189,26.80925777370366,237.08511858369633,0.6896645129407943
1403638548027829504,37.149429,943.9928800140052,10.83634825,-0.171616375,-4.0615875416666665,0.0907571211037051,-0.0090757121103705,0.1075122819228507,22.744584717744523,239.88596188219296,1.1449117942583484
1403638548277829376,64.297437,659.9242712831533,10.125366125,0.3023717083333333,-3.718354791666666,0.3364994797845067,-0.0097738438111682,-0.0013962634015954,21.97554544963782,246.27907151792735,1.4236911025438133
1403638548527829504,56.200981,673.2493410881415,9.471589458333332,-0.1634441666666666,-3.3506054166666663,0.2548180707911721,-0.0356047167406843,0.0,23.41414385896264,254.15619086619446,2.1238636147222962
1403638548777829376,34.413338,821.9947936609242,10.83634825,0.4903325,-4.592781083333333,0.0977384381116824,-0.0432841654494593,0.0300196631343024,23.22927761006868,265.56778039676,2.3631819587811833
1403638549027829504,38.566589,749.4396621410989,9.961921958333331,0.3105439166666667,-3.1217835833333334,0.0020943951023931,-0.0062831853071795,0.1919862177193762,25.16591407036321,279.124745799384,3.1156937957139803
1403638549277829376,49.928903,724.0756539883989,7.878008833333333,0.612915625,-3.1463002083333333,-0.0034906585039886,0.0111701072127637,0.1759291886010284,27.381561794363524,294.06904496540636,3.3005949990860017
1403638549527829504,34.805536,738.8311981816635,8.458235625,-0.63743225,-3.268883333333333,-0.0104719755119659,0.0530580092606276,0.1179842574348166,29.23430926875088,312.4843344749629,3.9253764475811295
1403638549777829376,60.634374,851.4312592723256,10.550320958333334,0.4086104166666666,-3.563082833333333,-0.0013962634015954,0.0104719755119659,0.1410226035611418,28.920759075259056,332.811119023311,4.128494411692486
1403638550027829504,49.753427,842.6393741961372,9.724927916666667,0.367749375,-2.819411875,-0.0314159265358979,-0.0376991118430775,0.0425860337486616,30.265836551893305,354.58450587935295,4.5206592014473586
1403638550277829376,49.859763,762.8237199661274,8.433719,-0.3023717083333333,-3.930832208333333,0.0300196631343024,0.0565486677646162,0.0474729556542457,32.49793054024674,377.80577706882394,4.762195352267213
1403638550527829504,50.277472,613.1715752246298,8.605335375,0.7518431666666666,-2.778550833333333,0.0495673507566389,0.1214749159388053,0.1843067690106012,33.31870144338131,402.74337499323957,5.061804998658317
1403638550777829376,49.88265,602.2891654754973,10.010955208333332,0.4576436666666666,-3.832765708333333,0.036302848441482,0.1975712713257581,0.0879645943005142,31.768547548234828,427.2773115707085,4.859533138583686
1403638551027829504,35.034657,599.1098265733898,8.866846041666665,0.6701210833333332,-3.4568441249999995,-0.0020943951023931,0.182212373908208,0.0502654824574366,29.485636022142973,450.32834672834935,4.383094742267872
1403638551277829376,64.611435,722.5244097499674,7.910697666666666,0.3595771666666666,-2.9583394166666666,-0.0726056968829641,-0.1368338133563554,0.0907571211037051,27.46452246700421,471.1212855832372,3.827012010020667
1403638551527829504,49.386978,489.0524591227163,10.190743791666666,-0.196133,-3.685665958333333,-0.3567452991076409,0.057246799465414,0.3755948550291797,23.740554861451972,487.5024369313932,2.867940136881316
1403638551777829376,47.273159,492.5512544778148,8.948568125,0.5883989999999999,-2.2555295,-0.4991641660703782,0.0425860337486616,0.2708750999095199,19.885618106737343,498.44144215277674,1.8175889231814608
1403638552027829504,50.61531,495.9047885521192,11.016136833333332,-0.196133,-4.143309625,-0.2527236756887789,0.085870199198121,0.0195476876223364,19.276085248340994,504.11521007947596,0.37181019871292165
1403638552277829376,49.908876,761.5070843051726,10.44408225,-0.4985047083333333,-3.023717083333333,-0.0390953752446729,-0.0719075651821663,0.1724385300970397,38.92819241972869,515.556073630342,0.8116521872777867
1403638552527829504,49.778224,628.3139404809876,10.73828175,-0.1144109166666666,-3.08909475,0.0174532925199432,0.122173047639603,0.0977384381116824,25.699174281656205,519.1245185219722,0.14797225612926468
1403638552777829376,61.167717,753.5988147878851,9.299973083333333,0.3840937916666667,-3.2361945,0.025830872929516,0.028623399732707,0.0013962634015954,23.561759362759858,517.6074135389127,-0.47207907445783803
1403638553027829504,39.649964,759.260379091747,8.3356525,0.8417374583333332,-2.631451083333333,0.0055850536063818,0.0698131700797731,-0.0991347015132779,27.2841625871103,512.9706478298539,-1.401154373464692
1403638553277829376,49.751997,609.8048880358319,8.515441083333332,0.9152873333333332,-1.3157255416666664,0.0376991118430775,0.260403124397554,-0.0167551608191455,27.046370037647016,505.79150883101613,-1.5605382742378424
1403638553527829504,54.034949,714.9046647076395,10.051816249999998,-0.5802267916666666,-4.944186041666666,-0.0488692190558412,0.0628318530717958,-0.0474729556542457,26.415314403353875,495.94511850885465,-2.3892636428609535
1403638553777829376,49.880743,707.9690519691331,9.299973083333333,0.0653776666666666,-3.832765708333333,-0.0342084533390888,-0.1158898623324234,-0.0188495559215387,28.382500533311184,485.4307856821376,-3.0071050573482125
1403638554027829504,49.862384,747.665305305797,10.574837583333332,-0.5066769166666666,-4.175998458333333,0.0167551608191455,-0.1061160185212552,0.0677187749773799,26.312237252449094,469.4405817241738,-3.4638308383914023
1403638554277829376,50.234556,693.0957521306876,8.294791458333332,0.0081722083333333,-1.9776744166666664,-0.0237364778271228,-0.1110029404268393,-0.018151424220741,26.201390275156783,453.758030638725,-2.8576484360571044
1403638554527829504,42.225599,891.9063602477713,7.518431666666666,1.569064,-1.201314625,0.0600393262686049,0.0691150383789754,0.1500983156715123,24.73284086984503,435.78209298493294,-3.6781860764119187
1403638554777829376,50.020695,893.5992475244492,8.139519499999999,0.7518431666666666,-2.0267076666666664,-0.0139626340159546,0.028623399732707,0.075398223686155,23.76560512781728,421.242346127553,-3.034863741903223
1403638555027829504,50.021649,751.7987067472543,10.059988458333333,0.3595771666666666,-3.0318892916666664,-0.1521927107739055,-0.0083775804095727,0.1445132620651305,23.452534459832354,406.0532309754526,-2.490548380103178
1403638555277829376,42.6476,767.6212420924763,8.866846041666665,0.1470997499999999,-2.705000958333333,-0.2352703831688356,0.0691150383789754,0.1368338133563554,24.50368775905267,391.3790697290263,-3.273000669959572
1403638555527829504,49.901009,843.8627752058262,9.161045541666669,-0.5066769166666666,-4.290409374999999,-0.1047197551196597,0.0244346095279206,-0.0439822971502571,25.48129661521194,375.0061994784256,-3.0685314391815837
1403638555777829376,49.753428,919.995358684826,9.75761675,-0.0408610416666666,-3.0318892916666664,0.0202458193231342,0.0062831853071795,0.0600393262686049,25.186054075952896,359.7005104541166,-3.0315462483457623
1403638556027829504,50.223112,967.5456143155706,7.485742833333332,0.0817220833333333,-1.830574666666667,-0.0279252680319092,-0.0418879020478639,0.0537561409614253,25.59348971216601,348.4023188247916,-2.0953810003085778
1403638556277829376,49.958229,991.6144307790286,10.027299625,-0.4821602916666666,-3.178989041666666,0.0083775804095727,-0.036302848441482,0.0956440430092892,24.759717466115582,336.9653352331494,-2.271371189631054
1403638556527829504,41.419029,962.950110191152,8.907707083333333,-0.6456044583333332,-2.803067458333333,-0.0125663706143591,-0.0055850536063818,0.1054178868204575,24.77851777124448,329.58150185239623,-1.2227806938005301
1403638556777829376,49.780845,705.9148092895587,7.992419749999999,0.0163444166666666,-3.048233708333333,-0.028623399732707,0.2492330171847902,0.1235693110411985,24.455404349189184,323.6893463001114,-0.6674693265267706
1403638557027829504,57.953119,899.2017314854359,7.542948291666666,0.2124774166666666,-2.778550833333333,-0.0495673507566389,-0.0300196631343024,-0.0062831853071795,27.827053234408787,323.34432519281336,-0.029865915897801187
1403638557277829376,41.961908,850.1501680001425,9.136528916666666,-0.2615106666666666,-2.59876225,0.0125663706143591,0.0446804288510548,0.1005309649148733,29.660574544692043,323.2656768969069,0.2033189206052839
1403638557527829504,49.703121,775.2025711380466,9.5124505,0.2533384583333333,-4.233203916666667,-0.0153588974175501,0.0188495559215387,-0.0502654824574366,31.51668647819381,324.9881850873241,0.5925040578739527
1403638557777829376,57.551384,840.3309475890745,8.221241583333333,-1.1604535833333331,-3.2443667083333327,-0.0767944870877505,0.0314159265358979,-0.0279252680319092,32.90792366472803,331.41168135599185,1.5477924043898952
1403638558027829504,41.055441,909.9119041417086,7.828975583333331,0.269682875,-3.1054391666666663,-0.0097738438111682,-0.1054178868204575,0.1500983156715123,30.685956785454305,337.7958833754189,1.7119775418449876
1403638558277829376,49.920797,745.0586929162107,11.114203333333332,-0.661948875,-4.780741875,-0.036302848441482,-0.1270599695451872,0.0349065850398865,29.626358770434575,344.90420414417235,1.5616446645080941
1403638558527829504,40.060758,898.5983152038568,12.192934833333334,0.0081722083333333,-2.803067458333333,0.0132645023151569,-0.057246799465414,0.1752310569002306,29.15466626247437,357.6144335240978,3.204817485550052
1403638558777829376,41.486501,684.9657209571756,9.308145291666667,-0.2288218333333333,-3.0400615,0.0698131700797731,0.1137954672300302,0.3225368457685521,29.924033830065884,375.68220868577475,3.900528352948754
1403638559027829504,58.980227,584.5033597976504,8.752435125,-0.0572054583333333,-3.064578125,-0.0349065850398865,0.161268422884276,0.0474729556542457,31.833124992357458,396.673767076875,4.238240689782572
1403638559277829376,58.528185,589.9784428727579,8.948568125,-0.73549875,-3.514049583333333,0.0027925268031909,0.0314159265358979,0.0006981317007977,32.31468297160888,417.7256314001773,4.216399617334957
1403638559527829504,60.916663,590.3616618882044,9.496106083333332,0.4903325,-3.6448049166666654,-0.0111701072127637,0.0090757121103705,0.0020943951023931,30.996639525639146,437.1976671666712,3.8198259201515157
1403638559777829376,50.062894,640.8876611060956,10.664731875,0.2288218333333333,-2.941995,0.0328121899374933,0.0097738438111682,0.1570796326794896,30.473248143904787,457.5568536100696,3.7443036428679193
1403638560027829504,49.664974,456.9628102748157,7.142510083333334,-0.784532,-2.5905900416666663,-0.3183480555637657,0.0397935069454707,0.2268928027592628,28.069094184020337,477.4102564110243,3.8626546159553072
1403638560277829376,50.025225,322.14815670143327,10.623870833333331,0.4494714583333333,-2.50069575,-0.5529203070318035,0.1354375499547599,0.249931148885588,26.641188584995945,495.07265943536714,3.403207625514767
1403638560527829504,42.48333,321.0502297871554,8.646196416666667,-0.4903325,-3.08909475,-0.5703735995517468,0.1103048087260416,0.478918346747244,24.230116601582242,510.5939929862926,2.73640061485429
1403638560777829376,40.73739,386.538942095974,9.046634625,-0.2860272916666666,-4.339442625,-0.4782202150464462,0.0069813170079773,0.2757620218151041,22.411235209161003,524.0735569375395,2.4822260259725226
1403638561027829504,51.725865,359.7287838958944,11.2776475,-0.9234595416666666,-4.494714583333333,-0.4726351614400644,0.1996656664281513,0.2387610416728242,19.826485630312312,536.3628357003602,2.507420963008144
1403638561277829376,50.110579,514.0093899993335,9.528794916666666,-1.1931424166666666,-3.603943875,-0.2101376419401172,-0.0432841654494593,0.1633628179866692,17.492617672038588,545.9806230052079,1.6366982574995745
1403638561527829504,36.688805,495.39342124144974,7.681875833333333,-0.6292600416666666,-2.1166019583333333,-0.1130973355292325,-0.114493598930828,-0.0167551608191455,17.651682024534125,553.2308837455367,1.0944609614620049
1403638561777829376,41.264773,596.3244957859371,9.389867375,0.04903325,-3.4731885416666666,0.007679448708775,0.0321140582366956,-0.0062831853071795,18.591742289267668,558.4253144043668,1.0041677780183136
1403638562027829504,49.651146,499.05426679708,10.4931155,0.0163444166666666,-4.314926,-0.2143264321449036,0.0202458193231342,0.2059488517353309,19.051237293157115,561.7375985512372,0.5845635700563889
1403638562277829376,60.625076,464.01088861808046,8.5317855,0.5230213333333333,-3.293399958333333,-0.1961750079241626,0.1438151303643327,0.1654572130890624,17.932802918233826,564.6145761834188,0.5707313115206034
1403638562527829504,41.79573,464.6756565160652,8.433719,0.956148375,-2.231012875,-0.3658210112180114,0.1424188669627373,0.2778564169174973,15.279291635312411,566.955991029054,0.7581853824113978
1403638562777829376,50.925016,495.3220173435184,8.760607333333333,-0.4004382083333333,-3.0564059166666664,-0.5277875658030852,-0.0069813170079773,0.2876302607286655,14.885166627011406,568.4002063525475,0.07618184207308332
1403638563027829504,39.595842,526.0860010700676,9.569655958333334,-0.4821602916666666,-3.2035056666666666,-0.4098033083682685,0.0642281164733913,0.3518583772020568,15.936775031374866,567.6017089658299,-0.17300282438134218
1403638563277829376,49.552202,531.4293011692811,8.172208333333334,-0.4576436666666666,-2.9174783749999995,-0.2645919146023404,0.2380629099720265,0.1577777643802873,18.593209960645897,564.7959355690725,-0.6677899234405231
1403638563527829504,42.431831,639.777869014599,8.907707083333333,-0.1879607916666666,-3.0400615,-0.0719075651821663,0.0097738438111682,-0.0314159265358979,22.077628901323617,559.9374753549384,-1.422425768000494
1403638563777829376,51.038026,650.6775060027497,8.7279185,0.4086104166666666,-3.219850083333333,0.0593411945678072,-0.0928515162060983,0.1130973355292325,24.71972194372559,551.8502549223862,-1.982046317565505
1403638564027829504,51.113128,648.9119295019907,10.019127416666668,-0.8662540833333333,-2.9256505833333333,0.08307767239493,0.0251327412287183,0.1096066770252439,26.29416647186102,540.5111758020604,-2.3895675025113405
1403638564277829376,42.511463,562.5691808653762,10.305154708333331,0.7436709583333333,-2.0920853333333334,0.054454272662223,-0.0565486677646162,0.0027925268031909,30.82251681704285,528.1531126105237,-2.4880121118397938
1403638564527829504,49.669742,498.9268782064563,9.030290208333332,0.4576436666666666,-3.309744375,0.1151917306316257,-0.0600393262686049,0.0628318530717958,34.30250878944832,514.5025253401056,-3.0312004008270605
1403638564777829376,49.675703,436.5072432097,8.850501625,-0.661948875,-3.023717083333333,0.025830872929516,0.0663225115757845,0.1298524963483781,37.50896687060975,498.04359249227554,-3.7515744257803476
1403638565027829504,51.274777,380.26040231361935,6.709383041666666,-0.024516625,-1.5445473749999998,0.0,0.0390953752446729,0.0747000919853573,42.67853892937766,479.2465052385904,-4.140293955979757
1403638565277829376,58.235884,283.5395160968505,9.863855458333331,-0.5475379583333333,-4.053415333333333,-0.0376991118430775,-0.0670206432765822,0.0495673507566389,49.74341774429609,457.8474141212856,-4.214219918683909
1403638565527829504,41.002512,292.8894141781708,10.828176041666667,-0.0408610416666666,-3.2035056666666666,-0.0907571211037051,0.0418879020478639,-0.018151424220741,55.18104384502623,436.89685399599335,-3.7777004437130017
1403638565777829376,49.999714,277.40124602112536,7.690048041666667,-0.196133,-2.9256505833333333,-0.0705113017805709,-0.0439822971502571,-0.0237364778271228,56.33169787226618,417.77439496709025,-3.6127665579393806
1403638566027829504,57.925939,299.02687134561927,9.398039583333333,-0.4086104166666666,-2.729517583333333,-0.0307177948351002,0.0914552528045028,-0.0328121899374933,55.918013388592136,399.5808698339417,-3.4023494616890275
1403638566277829376,49.65663,292.5314006222768,6.799277333333333,-1.0705592916666666,-1.5118585416666666,-0.0404916386462684,-0.1117010721276371,0.0579449311662117,58.2955480843747,380.0010499615625,-3.8898969535101173
1403638566527829504,50.542117,622.7748917263083,6.995410333333333,-0.220649625,-2.8766173333333334,0.025830872929516,-0.1891936909161853,0.0272271363311115,58.243014618403635,359.74782674652755,-4.3566158398047605
1403638566777829376,39.073944,348.7746987894546,9.438900625,0.2778550833333333,-3.28522775,0.0460766922526503,-0.2422517001768129,-0.0328121899374933,61.9635114923704,336.86729022960566,-4.361927427369153
1403638567027829504,50.73595,533.7368817719138,11.91507975,0.3350605416666666,-4.895152791666666,0.0670206432765822,0.5941100773788698,0.0865683308989187,59.69747087950439,315.3975808519124,-4.055670339630353
1403638567277829376,60.759067,657.8768610964423,8.351996916666666,-0.5148491249999999,-2.7213453750000003,-0.0921533845053006,0.0816814089933346,-0.0146607657167523,57.917239295901204,296.9847050035951,-3.6356510265142674
1403638567527829504,49.512863,401.5546634186975,10.672904083333334,0.220649625,-4.396648083333333,-0.0523598775598298,-0.1319468914507713,0.0823795406941323,56.28925095176896,279.6357512230873,-3.3542483424744773
1403638567777829376,38.836718,557.6028204295047,8.613507583333332,0.5475379583333333,-2.5170401666666664,-0.0481710873550434,-0.0816814089933346,0.0020943951023931,50.30178845760265,265.3763957571177,-2.6132533911851965
1403638568027829504,38.748503,602.3450601905847,10.117193916666666,-1.372931,-4.314926,-0.0558505360638185,0.0488692190558412,-0.0097738438111682,43.29003662026308,255.0022028793778,-1.8657114226097349
1403638568277829376,60.637712,662.360147085601,8.302963666666667,0.04903325,-3.603943875,-0.0244346095279206,0.0195476876223364,0.0509636141582344,36.7776191507484,249.9188489204846,-0.6940650868379521
1403638568527829504,38.549662,619.3986539290797,9.430728416666666,-0.196133,-2.557901208333333,-0.0097738438111682,-0.0013962634015954,0.0300196631343024,32.79931620089756,244.9770176876311,-0.9348353002699525
1403638568777829376,60.744762,638.023637319787,9.340834125,-0.8989429166666666,-3.898143375,-0.0502654824574366,0.0,0.0034906585039886,28.62494498737292,240.548242709381,-0.9299047005499403
1403638569027829504,50.12083,767.343078198797,8.360169125,-0.63743225,-2.378112625,-0.0216420827247296,0.0048869219055841,0.0328121899374933,22.41951621103687,238.72034398653645,-0.3215166417443527
1403638569277829376,38.167238,797.1447554216819,8.278447041666666,0.0408610416666666,-4.519231208333333,0.0083775804095727,0.018151424220741,0.0516617458590321,15.62629546060437,237.96817064775752,-0.0643010629474361
1403638569527829504,49.970388,756.4801419826676,7.959730916666666,-0.5311935416666667,-2.312734958333333,0.0,0.0865683308989187,0.0767944870877505,12.587719414804551,237.58817697686686,-0.02404857157864626
1403638569777829376,50.213098,932.1981792582612,8.858673833333333,0.34323275,-2.8847895416666667,0.0118682389135614,-0.0809832772925368,0.0977384381116824,7.629573234539507,236.81833894710027,-0.10463735447657996
1403638570027829504,49.875259,906.888073412652,8.572646541666666,-0.318716125,-3.4568441249999995,0.0349065850398865,0.0893608577021096,0.1137954672300302,1.6002013231879726,236.86595738208715,0.016544091513424064
1403638570277829376,39.010286,652.0452205461364,8.139519499999999,0.8989429166666666,-3.6448049166666654,0.0774926187885482,0.075398223686155,0.2834414705238791,3.0538122513160304,236.03191582100607,-0.293470886976678
1403638570527829504,49.622297,636.3405460393931,7.959730916666666,1.2340034583333332,-2.770378625,-0.1954768762233649,0.1277581012459849,0.6122615015996108,6.458643892331652,233.90310499488822,-0.5152892046229454
1403638570777829376,52.768707,440.1791380899504,8.842329416666665,0.2941994999999999,-2.1983240416666665,-0.4454080251089529,0.4139920985730549,0.3658210112180114,9.323937432704131,230.54781165025045,-1.1578652308491257
1403638571027829504,60.598374,460.0073855914556,9.079323458333333,0.7600153749999999,-3.832765708333333,-0.5249950389998943,0.0230383461263251,0.1459095254667259,14.763982041460503,228.65746437471537,-0.4767366485805269
1403638571277829376,49.463033,429.5183960969132,10.141710541666669,-0.269682875,-4.772569666666667,-0.3316125578789226,-0.0516617458590321,-0.0223402144255274,22.227373268079205,226.55629994355283,-0.07868739051377815
1403638571527829504,49.494028,614.3598746473938,9.855683249999998,-0.318716125,-2.4843513333333336,-0.1556833692778942,0.0509636141582344,0.114493598930828,24.802672524710356,227.21347557897107,0.3597511491443868
1403638571777829376,39.11376,491.4138713096525,9.095667875,-0.1797885833333333,-3.571255041666667,-0.3588396942100341,-0.0593411945678072,0.2241002759560719,28.596745253880623,228.8276530282222,0.15390414263382013
1403638572027829504,49.292803,451.15842937996194,9.831166624999998,-0.7681875833333334,-4.707191999999999,-0.3658210112180114,-0.028623399732707,0.3567452991076409,31.924512468605165,231.05983254433912,0.6845337454782339
1403638572277829376,61.585426,408.1338137571627,8.401030166666667,-0.7191543333333333,-3.064578125,-0.4488986836129415,-0.0565486677646162,0.179419847105017,36.12995205404733,235.3802571751705,0.8732804754077677
1403638572527829504,50.440788,412.1798750889248,10.672904083333334,-0.7763597916666666,-2.999200458333333,-0.249931148885588,0.0774926187885482,0.085870199198121,39.36370522778336,240.53220185994942,1.1908419827526302
1403638572777829376,50.218344,469.44406190020936,10.44408225,-0.8008764166666666,-4.339442625,-0.1445132620651305,-0.0705113017805709,-0.0593411945678072,39.22597746188332,247.25276422355864,1.6749508474756567
1403638573027829504,48.885107,575.33330309086,9.144701125,0.4004382083333333,-4.870636166666666,0.054454272662223,-0.0055850536063818,0.0153588974175501,38.96719028689346,256.54520014366943,1.9487344723961257
1403638573277829376,61.335802,531.9555241010366,10.632043041666666,-0.5230213333333333,-2.574245625,0.0356047167406843,0.064926248174189,0.0132645023151569,37.810346556715665,265.66296425889016,1.7815608200256747
1403638573527829504,60.429096,454.2556550458305,10.648387458333334,0.6292600416666666,-2.941995,-0.0321140582366956,-0.007679448708775,0.1103048087260416,37.037824024833924,275.9161107301536,2.1695793728359263
1403638573777829376,66.381693,282.7470386593199,9.855683249999998,0.7518431666666666,-4.208687291666666,-0.2282890661608583,0.2555162024919699,0.1354375499547599,40.09323211040663,286.6889578779036,2.128655419475706
1403638574027829504,48.851013,187.46477378279175,7.706392458333333,0.269682875,-2.8357562916666668,-0.3567452991076409,0.2143264321449036,0.5696754678509492,39.13600510981265,296.42288841295164,1.808914047587507
1403638574277829376,49.506426,220.12389140151208,9.201906583333331,0.53936575,-3.489532958333333,-0.5473352534254218,0.0642281164733913,0.3169517921621702,35.47702823359842,304.07397289555144,1.4194817603296883
1403638574527829504,64.867735,215.38426138158,9.022118,-0.44129925,-3.195333458333333,-0.4049163864626844,0.1277581012459849,0.1424188669627373,28.20718213766506,311.2014503843397,1.0349553120732935
1403638574777829376,51.0149,283.3454952037867,9.398039583333333,0.3268883333333333,-3.260711125,-0.1766273203018261,-0.0705113017805709,-0.0565486677646162,32.176918903028465,317.08631657502684,0.5127190567197886
1403638575027829504,60.963393,357.53152786753765,9.447072833333332,-0.024516625,-4.355787041666666,0.0635299847725936,-0.0872664625997164,0.3050835532486088,32.89940164957783,320.53021816937695,0.561160231871952
1403638575277829376,50.004959,337.98818895547873,7.085304625,0.0408610416666666,-2.1738074166666665,0.0251327412287183,-0.0370009801422797,0.0774926187885482,31.08435067416872,322.28076338418236,-0.23341193435953755
1403638575527829504,48.987627,303.21296249377366,8.785123958333333,0.0081722083333333,-3.4404997083333333,-0.0404916386462684,-0.0907571211037051,-0.0914552528045028,29.52464014952712,322.0212490409643,0.7517364039948689
1403638575777829376,35.225153,258.8089831666384,7.730909083333333,1.054214875,-3.293399958333333,0.0328121899374933,-0.0488692190558412,-0.104021623418862,36.55500885887321,318.18166559639565,-3.006199525262616
1403638576027829504,48.368216,211.0361729767013,8.474580041666666,0.5883989999999999,-4.4211647083333325,-0.0376991118430775,0.0998328332140756,0.025830872929516,43.36003811067482,313.2737310663432,-2.111305792879932
1403638576277829376,39.106846,238.1136846303069,8.523613291666665,-0.2124774166666666,-2.827584083333333,-0.0495673507566389,0.0376991118430775,-0.0041887902047863,54.695361447103544,297.9714089903916,-3.8118004447512135
1403638576527829504,64.947366,210.72124334995863,8.065969625,-0.3105439166666667,-3.87362675,-0.0425860337486616,0.0237364778271228,0.0139626340159546,55.05854499374131,273.5496673837382,-5.889104485444591
1403638576777829376,49.425602,186.31383272828683,8.605335375,-0.6864655000000001,-3.57942725,0.0390953752446729,0.2373647782712288,0.1263618378443894,50.35097573157612,244.51817926874563,-6.483494957495111
1403638577027829504,50.521612,231.3153862355712,9.700411291666663,0.4331270416666666,-3.211677875,0.0321140582366956,0.093549647906896,0.2157226955464991,47.46487882139852,212.53760947434435,-6.911544670619293
1403638577277829376,50.383807,249.89850047820536,9.839338833333333,-0.2288218333333333,-3.4813607499999994,-0.025830872929516,0.0160570291183478,-0.0747000919853573,44.653424275537446,183.41461311612338,-6.273007426305554
1403638577527829504,50.098181,240.7761099808432,7.077132416666666,-0.1797885833333333,-2.729517583333333,-0.0160570291183478,-0.0139626340159546,0.0635299847725936,54.96348487214053,152.3364962983337,-5.916334968933398
1403638577777829376,38.333416,230.9150537571031,9.80665,-1.2912089166666665,-4.208687291666666,0.0097738438111682,0.0844739357965255,0.0579449311662117,53.16273099905815,131.36745346011716,-2.614481656789195
1403638578027829504,35.17723,233.13991000161909,9.65955025,0.5883989999999999,-4.053415333333333,0.0488692190558412,0.0579449311662117,0.1500983156715123,40.53507710971384,125.81322628038893,0.4211038945614689
1403638578277829376,27.129888,236.1738969223984,11.833357666666666,-0.4494714583333333,-3.906315583333333,0.0370009801422797,0.0279252680319092,0.2638937829015426,48.45244661789376,137.01046497285319,4.041720069805109
1403638578527829504,49.127102,243.8001481554199,9.103840083333331,-0.5557101666666666,-4.2822371666666665,-0.0097738438111682,0.0160570291183478,0.1438151303643327,44.14655055158605,161.36150625863667,5.181724316599684
1403638578777829376,49.825669,250.7918432467908,10.24794925,0.7681875833333334,-4.576436666666666,-0.0865683308989187,-0.0502654824574366,-0.1333431548523667,36.62317104709529,191.05233852814138,6.137887664743431
1403638579027829504,49.517631,236.28827999730723,9.80665,-0.1552719583333333,-3.38329425,0.0335103216382911,0.0293215314335047,0.1137954672300302,30.29502879439346,221.85352089047393,6.6631191448233835
1403638579277829376,49.867392,236.57456485472565,7.984247541666667,-0.0653776666666666,-3.317916583333333,0.0111701072127637,0.0502654824574366,0.0719075651821663,37.27314224672691,255.17689267385504,5.290269755027083
1403638579527829504,35.547734,195.68346825169044,7.755425708333333,-0.2860272916666666,-3.6284605,0.0747000919853573,0.1947787445225671,0.0656243798749867,31.52300566495429,282.1802788765334,7.797264840087166
1403638579777829376,64.044476,156.7044319697071,9.324489708333331,-0.4249548333333333,-3.342433208333333,0.4098033083682685,-0.0139626340159546,-0.2904227875318564,17.59295215432293,299.5790122129926,2.7934425761985153
1403638580027829504,50.60196,126.25088482940166,7.698220249999999,0.2124774166666666,-1.91229675,0.7791149780902686,0.2136283004441059,-0.2178170906488923,10.974035854012005,313.74994501856605,1.739570333852555
1403638580277829376,47.958375,111.33879317900367,8.074141833333334,1.1441091666666665,-2.8357562916666668,0.9487609813841176,0.0418879020478639,-0.1096066770252439,6.614772212574346,318.0993340652546,1.6614718614028448
1403638580527829504,72.54529,140.18020231024465,9.675894666666666,-0.024516625,-3.77556025,0.4600687908257052,-0.0230383461263251,0.1312487597499735,13.95063538533062,319.6468297507111,0.2713341129966693
1403638580777829376,50.127983,160.36773167337853,9.7085835,-0.7109821249999999,-3.661149333333333,0.2806489437206881,-0.0404916386462684,-0.1012290966156711,11.821118496294368,323.259000278944,0.5186487446414958
1403638581027829504,49.704551,197.42868449304615,10.354187958333334,0.4821602916666666,-3.1217835833333334,0.0495673507566389,-0.018151424220741,-0.0111701072127637,9.327589614448744,327.6072193083474,1.097813038185791
1403638581277829376,50.550938,195.1861464256025,11.016136833333332,-0.0980665,-3.849110125,-0.0565486677646162,0.0335103216382911,0.1026253600172665,11.435981370225184,332.1755064962069,0.9005915953597423
1403638581527829504,50.090075,194.1238883502148,8.793296166666666,0.04903325,-3.097266958333333,-0.0844739357965255,0.0565486677646162,0.0551524043630208,12.17230311086827,336.3526374207277,0.6106528949722474
1403638581777829376,49.054861,213.56329446730723,9.937405333333334,-0.1552719583333333,-3.800076875,-0.0586430628670094,0.028623399732707,0.0565486677646162,10.369696527378679,337.3801578884573,0.12663659805309635
1403638582027829504,63.373089,212.20226919110968,8.948568125,0.1879607916666666,-4.453853541666667,-0.0048869219055841,-0.1151917306316257,0.0404916386462684,8.020575378227116,337.9624749424297,0.15785401381873498
1403638582277829376,49.349308,200.17954187765727,10.337843541666668,0.2860272916666666,-3.489532958333333,-0.0481710873550434,0.0502654824574366,-0.0160570291183478,7.398616627791767,336.3097348376034,-0.29177179719965807
1403638582527829504,50.207138,215.39195967360777,11.473780499999998,0.1879607916666666,-4.184170666666667,-0.0223402144255274,0.018151424220741,0.0586430628670094,9.056494824115786,333.295897490065,-0.7883109230929222
1403638582777829376,39.390802,245.46517300974705,11.179581,0.24516625,-3.072750333333333,-0.0251327412287183,-0.0809832772925368,0.0439822971502571,13.041947424414921,327.9268408705728,-1.269052393230993
1403638583027829504,60.097694,226.4556264057028,7.420365166666667,0.2941994999999999,-3.8409379166666655,-0.0132645023151569,-0.0495673507566389,0.1340412865531645,13.973073038402822,321.331067624606,-1.3668340810549466
1403638583277829376,50.142765,235.2979577899819,7.444881791666666,0.4086104166666666,-3.97169325,0.0097738438111682,0.1082104136236484,-0.0034906585039886,10.398075375569995,314.8759246880272,-1.2704322989794719
1403638583527829504,50.155402,225.94869319914417,9.553311541666666,-0.122583125,-2.508867958333333,-0.0027925268031909,0.093549647906896,0.0684169066781777,9.217101447882065,308.1183678592739,-1.4803746652431755
1403638583777829376,51.098346,222.65135506701276,8.899534874999999,-0.1634441666666666,-4.037070916666667,-0.0195476876223364,0.0188495559215387,0.0593411945678072,11.87788373099911,299.7877656551691,-1.7720099034839905
1403638584027829504,50.004244,200.0950506642146,10.117193916666666,0.4086104166666666,-3.178989041666666,-0.0537561409614253,0.189891822616983,0.0579449311662117,11.39470425876797,290.4095764270428,-1.918352707663587
1403638584277829376,65.52124,183.5854484922287,8.270274833333334,0.3105439166666667,-2.754034208333333,-0.0342084533390888,0.1703441349946465,-0.0495673507566389,11.931289576795328,279.82575042688484,-2.1659913645714255
1403638584527829504,49.052,214.08056783856992,11.285819708333332,0.93163175,-5.385485291666667,0.0558505360638185,0.025830872929516,0.0942477796076938,13.642663694422803,268.1667530243298,-2.46659317423655
1403638584777829376,47.591924,160.99437606612744,9.782133375,0.1144109166666666,-3.6202882916666654,0.025830872929516,-0.1556833692778942,0.1591740277818828,14.868365926529552,256.3093445255344,-2.328780612556386
1403638585027829504,39.417505,201.09322888714095,8.074141833333334,0.2288218333333333,-1.8632635,-0.0621337213709981,0.0600393262686049,0.0551524043630208,17.163981510695198,243.32193590650223,-2.6482236221718836
1403638585277829376,51.105737,195.30064210961476,7.583809333333333,0.1307553333333333,-3.1054391666666663,0.0153588974175501,0.2143264321449036,0.0321140582366956,17.06703805822946,230.9417808141009,-2.323847701884148
1403638585527829504,49.681664,206.83793458983027,9.414383999999998,0.4249548333333333,-2.280046125,0.0006981317007977,-0.1305506280491758,0.0956440430092892,16.98781131966204,219.92939915320125,-2.1746507621290903
1403638585777829376,50.774097,180.2230322484748,9.602344791666663,0.5148491249999999,-2.280046125,-0.0034906585039886,-0.1347394182539622,0.0516617458590321,17.94709824407794,208.39313788083555,-2.349426899372588
1403638586027829504,40.631294,173.7356667833322,8.041452999999999,0.465815875,-2.868445125,-0.0593411945678072,0.1759291886010284,0.0719075651821663,18.837969575480063,196.5994742162735,-2.2319505374257744
1403638586277829376,39.974928,180.9827721045874,8.507268875,0.2615106666666666,-3.366949833333333,-0.0565486677646162,0.1473057888683213,0.064926248174189,18.01584557993634,184.93944713363305,-2.1062335728017274
1403638586527829504,48.886776,202.28405052761065,9.36535075,0.3105439166666667,-2.378112625,0.007679448708775,0.0104719755119659,0.0788888821901436,17.71348968147979,174.2138283521507,-2.144701238022037
1403638586777829376,51.959037,196.8338419552146,8.392857958333332,-0.7109821249999999,-1.4628252916666666,0.0879645943005142,0.1542871058762987,0.1333431548523667,19.00038353259558,164.42435211715093,-1.8217340837238112
1403638587027829504,37.117481,203.21072647308097,9.75761675,-0.416782625,-4.175998458333333,-0.0062831853071795,-0.018151424220741,0.1151917306316257,21.332952621285084,157.35090489478046,-1.3769531186950417
1403638587277829376,64.157247,195.62716114368652,9.675894666666666,-1.2176590416666666,-3.4731885416666666,0.0188495559215387,-0.0844739357965255,0.025830872929516,21.296905288878385,151.25313975539743,-1.1498944794516035
1403638587527829504,50.022602,191.32120093989627,8.915879291666666,-0.2615106666666666,-2.378112625,-0.0495673507566389,-0.0293215314335047,0.1151917306316257,21.320871508541707,146.43665739947213,-0.8622597594900583
1403638587777829376,49.669743,198.88967698320135,10.942586958333331,0.4086104166666666,-3.530394,0.0223402144255274,0.0104719755119659,0.1193805208364121,20.94565585456884,144.11821691172128,-0.29465161912301596
1403638588027829504,39.326668,215.0215891603073,8.164036124999999,0.3595771666666666,-3.113611375,-0.0118682389135614,-0.0223402144255274,-0.0020943951023931,21.873675751802143,144.45593172421704,0.34497846212045147
1403638588277829376,48.873425,217.6245949173645,10.174399375,-0.1144109166666666,-2.89296175,0.0013962634015954,-0.0635299847725936,0.0747000919853573,21.52878067058565,147.03220031393911,0.1092673127464252
1403638588527829504,36.475181,221.7955562928219,10.525804333333332,0.5883989999999999,-3.8245935,0.0307177948351002,-0.0027925268031909,0.2024581932313422,22.218367465942542,151.19797285151998,1.0002467072896195
1403638588777829376,50.127029,229.63947233095024,7.420365166666667,0.907115125,-2.533384583333333,-0.0160570291183478,0.0970403064108847,0.0628318530717958,22.842874589861523,157.44646769515148,1.4565383173196835
1403638589027829504,60.889006,237.98136860179127,8.057797416666666,0.5720545833333333,-2.10842975,-0.0090757121103705,0.0230383461263251,0.0705113017805709,23.323700437419696,162.34648050333965,1.8292213861183484
1403638589277829376,49.184799,238.4040354132894,11.163236583333331,-0.7600153749999999,-3.8082490833333327,-0.0048869219055841,-0.0614355896702004,0.0914552528045028,23.139280270815355,173.48087477864917,2.3823242669789124
1403638589527829504,53.064347,242.6183409135614,9.7085835,-0.4331270416666666,-3.28522775,-0.0237364778271228,-0.0593411945678072,0.057246799465414,38.79211569401473,170.05685665246077,-4.895855382262283
1403638589777829376,40.384531,244.8145459329446,6.472389,-0.3350605416666666,-1.887780125,-0.0125663706143591,-0.0048869219055841,0.0795870138909414,20.67172549322832,186.00487983334074,3.018990189144432
1403638590027829504,49.129247,249.32911262870243,8.466407833333333,0.63743225,-4.274064958333334,-0.0530580092606276,-0.0663225115757845,0.0488692190558412,20.23526463360766,202.02075194932019,3.1253800641386817
1403638590277829376,49.966336,241.0117765299402,7.812631166666666,0.980665,-1.4709975,0.0153588974175501,0.1242674427419962,0.0516617458590321,21.72142581285304,218.1983434253218,3.4372118680202846
1403638590527829504,49.768448,240.3462970683563,11.285819708333332,0.4004382083333333,-3.505877375,-0.0265290046303138,-0.0509636141582344,0.1193805208364121,22.619991144504738,235.94490886902736,3.390992506318696
1403638590777829376,60.796976,252.20557395101932,10.901725916666663,0.5720545833333333,-3.9880376666666666,0.0,0.0013962634015954,0.0872664625997164,21.157434019249077,252.8961631253558,3.430205167373515
1403638591027829504,49.812079,272.9537534855523,9.610517,-0.392266,-3.546738416666667,0.0055850536063818,-0.0719075651821663,0.0740019602845595,19.694325615381103,268.8852737060668,3.0112289703786814
1403638591277829376,39.268255,206.32957976642544,9.5124505,0.7191543333333333,-3.8245935,0.0272271363311115,-0.1905899543177807,0.1459095254667259,18.176418921385732,282.7438668282064,2.762431527654144
1403638591527829504,50.207615,251.40573599980436,6.366150291666666,0.1307553333333333,-1.6998193333333331,-0.0167551608191455,-0.1179842574348166,0.1500983156715123,17.029155476374648,294.0038266070856,2.168901986419314
1403638591777829376,49.854517,264.742920590864,9.487933875,-0.1470997499999999,-2.083913125,-0.0153588974175501,0.2234021442552742,0.1375319450571531,15.375615735285757,302.21757069507896,0.9341514284265031
1403638592027829504,37.946701,276.8343637747319,9.978266375,0.2369940416666666,-2.966511625,0.0041887902047863,0.0949459113084915,0.0921533845053006,12.86054784818223,306.48390585710683,0.5650049435470805
1403638592277829376,35.78949,212.89627700202408,10.452254458333334,0.0572054583333333,-4.453853541666667,0.2457423586808016,0.2178170906488923,0.0865683308989187,13.066336857745473,307.4029935400254,-0.030247692719171937
1403638592527829504,50.186634,257.64406197096565,10.059988458333333,-0.4985047083333333,-4.16782625,0.2415535684760151,-0.1731366617978375,-0.1061160185212552,15.585712840995255,306.01933528133685,-0.22163658253458607
1403638592777829376,38.81073,294.9406184423049,8.891362666666666,0.3840937916666667,-3.366949833333333,0.1068141502220529,-0.2227040125544764,0.0551524043630208,16.15360700781407,303.864196406217,-0.6514988145138432
1403638593027829504,60.652733,320.34832214529695,7.50208725,0.196133,-3.0564059166666664,0.0216420827247296,-0.0342084533390888,0.0928515162060983,14.109855771944524,300.36991315442094,-0.8367525777867968
1403638593277829376,49.813032,325.6357862908497,10.182571583333331,0.3514049583333333,-2.729517583333333,-0.0593411945678072,0.2024581932313422,-0.0502654824574366,15.252639229870757,294.00519148585295,-1.3160764099553717
1403638593527829504,50.667047,302.9390200872361,7.534776083333333,0.7191543333333333,-2.6641399166666666,-0.0223402144255274,0.1801179788058148,0.0279252680319092,17.405739224329782,287.4260274027381,-1.2579488649159885
1403638593777829376,50.804615,300.42162202285454,8.662540833333333,-0.4249548333333333,-2.982856041666666,0.054454272662223,0.2548180707911721,0.1926843494201739,15.324894081799798,281.10933113955605,-0.9309034281617414
1403638594027829504,52.82712,350.83407295225896,9.275456458333332,0.0408610416666666,-3.742871416666666,0.1089085453244461,-0.2010619298297467,0.0767944870877505,14.491079346011206,278.12922670900974,-0.48184048369097354
1403638594277829376,29.920817,395.7315981137575,9.291800875,-0.1797885833333333,-2.8439285,-0.0111701072127637,0.0774926187885482,0.0432841654494593,13.064594555202614,278.24420954849245,0.19011160975088615
1403638594527829504,48.726081,357.6165308476717,8.850501625,0.1307553333333333,-3.211677875,0.0432841654494593,0.0034906585039886,0.1319468914507713,12.1828694722647,280.4578502009216,0.7561624088324947
1403638594777829376,37.578345,424.3946890412061,8.262102624999999,-0.7028099166666667,-3.309744375,-0.0048869219055841,0.0034906585039886,0.0872664625997164,14.528530946086734,285.40520436901204,1.1071393039319446
1403638595027829504,62.092066,447.4064863956901,9.733100125,-0.4821602916666666,-2.941995,-0.0565486677646162,-0.0537561409614253,0.0942477796076938,10.772907265003088,291.20189537616653,1.1723540736771838
1403638595277829376,50.42243,437.5269961348146,9.700411291666663,0.4576436666666666,-3.334261,-0.036302848441482,0.0502654824574366,0.0425860337486616,7.413579310247062,296.7277368941305,1.083378605674909
1403638595527829504,39.104223,453.4146098619597,8.858673833333333,0.4903325,-2.770378625,0.0006981317007977,-0.0446804288510548,0.0851720674973232,5.879789217954929,301.72159809384607,0.9661242551911187
1403638595777829376,50.098896,431.9731162717977,7.518431666666666,0.2288218333333333,-2.6886565416666666,-0.0174532925199432,-0.0293215314335047,-0.0223402144255274,5.778975948566393,306.75314812336256,1.0672051299173972
1403638596027829504,34.853458,377.4357596202042,8.662540833333333,-0.1552719583333333,-3.2770555416666665,-0.153588974175501,0.0628318530717958,-0.1682497398922533,6.505869951538424,311.8281611275342,0.947256933939741
1403638596277829376,38.063764,323.74186368852565,10.141710541666669,0.8662540833333333,-4.037070916666667,-0.0712094334813686,0.0537561409614253,-0.1577777643802873,9.513996422526528,317.65403999693444,1.4744099913764899
1403638596527829504,44.828177,408.3413184003598,9.275456458333332,-0.2615106666666666,-2.778550833333333,-0.0474729556542457,-0.0509636141582344,-0.1165879940332212,14.026726180895317,328.57604501415636,2.7325307767812888
1403638596777829376,49.924851,417.5482823512485,10.198916,-0.1552719583333333,-3.652977125,0.0090757121103705,0.0300196631343024,-0.0083775804095727,24.520702369793103,346.19700888608065,4.419361083225851
1403638597027829504,64.591885,421.13855733330064,7.616498166666665,0.9970094166666666,-2.165635208333333,-0.0453785605518525,0.046774823953448,0.0265290046303138,34.98103224336297,374.00232802641807,6.221737312777691
1403638597277829376,38.595676,448.0041901218914,9.716755708333332,0.8825985,-3.4241552916666667,-0.0321140582366956,0.1207767842380075,0.208043246837724,46.192374291548,408.22673837536297,7.644555528043554
1403638597527829504,35.237074,317.12094889887027,8.523613291666665,0.2941994999999999,-3.2361945,0.0949459113084915,0.2254965393576673,0.4384267081009756,54.71045586036012,450.6590174922688,8.46403245239486
1403638597777829376,49.091578,499.3849623599959,9.308145291666667,0.63743225,-3.1217835833333334,0.0432841654494593,0.0174532925199432,-0.1933824811209717,60.465041028347635,499.0670987896174,10.028242668501832
1403638598027829504,51.328898,669.8687356936167,10.207088208333332,0.1552719583333333,-3.710182583333333,0.1682497398922533,0.0656243798749867,0.1647590813882647,65.85151145698725,551.5035761832584,11.196220849685687
1403638598277829376,49.905777,548.0976659904509,8.441891208333333,1.5445473749999998,-3.0564059166666664,0.1263618378443894,-0.1068141502220529,0.3155555287605747,72.01256227566444,609.9798390977663,11.791572331648013
1403638598527829504,50.028324,699.4883308163969,9.553311541666666,0.1389275416666666,-3.2443667083333327,0.1033234917180643,-0.2024581932313422,0.08307767239493,74.29877011666319,667.8817756830961,11.582992728432487
1403638598777829376,56.126356,762.047081248165,11.416575041666665,0.661948875,-1.4137920416666665,0.3099704751541929,0.0844739357965255,-0.0523598775598298,73.168412045318,726.0392669381866,11.636032784846748
1403638599027829504,49.791813,641.8576503823774,10.583009791666663,0.83356525,-3.963521041666666,0.3385938748868999,0.0837758040957278,-0.1857030324121966,77.02702457656017,787.3677310552235,11.966395246273692
1403638599277829376,38.242341,564.9044190663942,10.44408225,2.043052083333333,-4.437509125,0.5152211951887261,-0.1480039205691191,0.0404916386462684,73.87522548754335,845.7222072451805,11.731132150073336
1403638599527829504,51.145792,762.0056914185976,6.995410333333333,0.8744262916666666,-1.6589582916666663,0.2122320370425104,-0.0481710873550434,0.0223402144255274,74.19968571591376,903.8172265469601,11.269432665328736
1403638599777829376,60.854197,791.7526986696867,9.054806833333332,1.201314625,-4.576436666666666,0.0041887902047863,-0.0621337213709981,0.0767944870877505,72.9870157948824,960.3594639628204,11.318976925170318
1403638602527829504,38.983583,222.37541289212533,9.406211791666664,0.0,-4.453853541666667,0.5906194188748812,0.5612978874413763,0.3050835532486088,991.485214290967,563.5044446200623,-440.865671991678
1403638602777829376,49.217463,465.1880624515368,7.117993458333333,0.9234595416666666,-3.023717083333333,0.4300491276914028,-0.0642281164733913,-0.1103048087260416,33.3627004110821,582.269459899411,3.000538638940043
1403638603027829504,63.554287,412.1020932949179,8.891362666666666,-0.196133,-3.759215833333333,0.4712388980384689,-0.0719075651821663,0.0586430628670094,26.172875198713015,591.6099373340622,1.215201325082944
1403638603277829376,50.208569,327.9769869463465,7.346815291666666,-0.0980665,-3.08909475,0.1633628179866692,-0.6290166624187563,-0.0314159265358979,18.99844696019751,593.7595908944363,-0.2521976909139312
1403638603527829504,36.290168,680.2436881219377,9.765788958333331,-0.6047434166666666,-2.459834708333333,0.0928515162060983,0.0244346095279206,0.0272271363311115,13.295323308012092,589.983856619923,-0.5395622828887099
1403638603777829376,64.460993,626.9414982211711,10.019127416666668,0.5557101666666666,-2.803067458333333,-0.0432841654494593,0.1982694030265558,-0.122173047639603,14.355970408962826,583.212670014537,-2.452835031600671
1403638604027829504,50.101042,683.0207003544872,8.711574083333332,0.3105439166666667,-1.5772362083333331,-0.0879645943005142,0.1410226035611418,-0.0642281164733913,17.76433992230515,575.0916137346111,-0.5203521007283598
1403638604277829376,60.868264,499.6428946819681,8.964912541666667,0.93163175,-3.064578125,0.1089085453244461,-0.1947787445225671,0.3197443189653611,18.973843914690786,561.2101182795155,-3.013327606181747
1403638604527829504,45.827866,422.1746189803008,8.401030166666667,0.1552719583333333,-3.0073726666666665,-0.0356047167406843,-0.2059488517353309,0.0349065850398865,22.84744702777353,544.8638318615535,-3.364656686938474
1403638604777829376,50.02141,606.0646859946363,8.343824708333333,-0.2941994999999999,-3.072750333333333,0.0579449311662117,0.0244346095279206,0.208043246837724,25.070642616558004,526.2558186941974,-4.719829286612935
1403638605027829504,50.086498,557.7672674732084,9.5124505,0.4739880833333333,-3.28522775,0.0411897703470661,-0.0635299847725936,0.124965574442794,26.209896354224977,506.6537824644361,-3.819082828327055
1403638605277829376,52.182913,863.0989033490033,9.242767625,-0.024516625,-1.593580625,-0.0698131700797731,-0.0495673507566389,0.0055850536063818,24.56496548317056,489.86330359003,-2.8214914353945346
1403638605527829504,50.244093,753.1529648271231,8.605335375,0.9888372083333332,-3.710182583333333,-0.0446804288510548,0.2066469834361286,-0.1214749159388053,21.11794483621501,477.4466338668277,-2.2349580072977915
1403638605777829376,49.222708,806.9880577247122,9.406211791666664,0.63743225,-3.2035056666666666,-0.036302848441482,-0.0502654824574366,-0.0356047167406843,22.955786708778916,464.7413591590805,-2.5489570068363605
1403638606027829504,50.048113,790.7574941935321,8.768779541666666,0.3840937916666667,-3.5957716666666664,-0.0642281164733913,0.0628318530717958,0.0314159265358979,27.60496583449978,454.1271096127038,-1.6754265102122758
1403638606277829376,50.045252,664.0139670760799,9.283628666666663,0.34323275,-3.6202882916666654,0.0342084533390888,-0.036302848441482,0.1975712713257581,32.0781114987948,445.00496607680213,-1.8142111541735062
1403638606527829504,60.863495,538.4553802227747,10.64021525,-0.5311935416666667,-3.162644625,0.0963421747100869,-0.1829105056090057,0.2932153143350474,37.11279453390849,436.261952237036,-1.610324172983269
1403638606777829376,49.571991,527.5373558534794,9.291800875,-0.416782625,-4.339442625,0.293913446035845,-0.0998328332140756,0.0104719755119659,39.16572381748072,430.4328742627165,-0.7863489144062896
1403638607027829504,49.01886,517.6584698186311,10.44408225,1.2748645,-4.323098208333334,0.4314453910929983,0.0160570291183478,0.0537561409614253,39.06319252004031,430.8067745532032,0.8193409058495718
1403638607277829376,48.106432,462.1273824911299,8.18855275,-0.3023717083333333,-1.4873419166666666,0.2282890661608583,0.2736676267127109,0.064926248174189,37.045224954916705,439.6936989118803,2.1556395628492737
1403638607527829504,63.138723,749.9552949479257,8.891362666666666,0.8825985,-2.435318083333333,0.0963421747100869,-0.025830872929516,0.028623399732707,32.454397888201115,443.2940635222277,1.509140493489042
1403638607777829376,39.191008,824.2218582742303,7.771770125,1.0133538333333332,-2.4843513333333336,-0.0118682389135614,0.0279252680319092,0.0956440430092892,30.99383077038057,453.1113411483228,2.4904628687021955
1403638608027829504,34.37233,906.6153217883513,8.866846041666665,0.8253930416666666,-3.7673880416666665,-0.0795870138909414,0.0453785605518525,0.0293215314335047,29.520707121210265,463.1582779858658,2.05755821191741
1403638608277829376,38.675786,932.4285784189044,8.401030166666667,-0.1062387083333333,-2.729517583333333,-0.0802851455917391,0.1689478715930511,-0.0006981317007977,27.305562475449914,472.815522219065,1.8354829166044624
1403638608527829504,50.589562,698.0345288136288,8.278447041666666,0.7191543333333333,-2.533384583333333,-0.0342084533390888,-0.0195476876223364,0.0418879020478639,26.835311411371283,480.8620280726514,1.4517585863825389
1403638608777829376,50.086021,613.3985931960988,8.768779541666666,1.1195925416666666,-3.0073726666666665,0.0146607657167523,-0.0663225115757845,0.0879645943005142,25.977687951279034,487.26042827455933,1.1241149542274798
1403638609027829504,63.990116,703.156597445106,11.416575041666665,-0.2941994999999999,-4.118792999999999,0.0090757121103705,-0.0781907504893459,0.0621337213709981,22.407026356381703,492.48108140926865,0.9705838239256082
1403638609277829376,50.068378,772.7688008823088,8.629852,0.6456044583333332,-3.0564059166666664,-0.0139626340159546,0.0342084533390888,0.1375319450571531,18.085610658863335,497.3832082360821,0.8501706233350887
1403638609527829504,49.74699,725.9244441240567,8.687057458333333,0.1389275416666666,-3.3506054166666663,-0.0383972435438752,-0.0949459113084915,0.0614355896702004,17.192357518413274,499.90767448069244,0.30324498820039025
1403638609777829376,38.334847,730.1196716369304,8.711574083333332,0.3595771666666666,-3.0809225416666663,0.0,0.0132645023151569,0.0795870138909414,18.165270921991794,500.45246973880575,0.02495205975446879
1403638610027829504,38.646698,841.6533656404208,9.863855458333331,-0.5066769166666666,-4.086104166666667,0.0139626340159546,0.2094395102393195,0.0474729556542457,15.095385833272488,500.4252940783556,-0.01041675418593968
1403638610277829376,27.653217,821.9199840945412,8.809640583333332,0.4576436666666666,-2.2718739166666664,0.0349065850398865,0.0321140582366956,0.0705113017805709,11.164016491842327,499.64592667929475,-0.7028854244261993
1403638610527829504,49.951076,771.194802961133,10.34601575,0.5230213333333333,-3.309744375,0.028623399732707,0.2904227875318564,0.0816814089933346,14.335965742803328,495.1710143644077,-1.0117265839717788
1403638610777829376,61.809302,498.840550368166,8.87501825,-1.2912089166666665,-2.533384583333333,0.0383972435438752,-0.249931148885588,0.1005309649148733,16.800017611635333,487.89497222666,-1.8697086559252512
1403638611027829504,49.359322,801.0975019701882,11.056997875,-0.220649625,-3.530394,-0.0048869219055841,0.1556833692778942,0.0460766922526503,15.768838400754037,478.23569225859507,-2.0112803279550917
1403638611277829376,50.101041,779.0806476037232,9.610517,0.3595771666666666,-3.489532958333333,-0.028623399732707,-0.0293215314335047,-0.0209439510239319,17.953121402887355,466.1810929644181,-2.4684751738480486
1403638611527829504,62.342405,636.2090528509667,10.623870833333331,-0.3595771666666666,-3.702010375,-0.0691150383789754,-0.0816814089933346,-0.0460766922526503,18.340014715787838,452.1259257053143,-2.9203779403098338
1403638611777829376,48.820257,658.9364768242135,9.651378041666666,-0.6946377083333333,-2.181979625,0.0488692190558412,0.0104719755119659,0.2869321290278678,19.10372961823358,436.62710900356973,-3.152348125434685
1403638612027829504,50.086975,772.8533314391204,10.844520458333331,0.34323275,-3.898143375,-0.0502654824574366,0.0593411945678072,0.0027925268031909,20.355512510386365,421.83060110006625,-2.9527452124705746
1403638612277829376,50.138712,866.0357362190963,8.760607333333333,0.6537766666666667,-3.334261,-0.0642281164733913,-0.018151424220741,0.0383972435438752,19.860824404536174,406.5483308553477,-2.858429713764906
1403638612527829504,44.739247,819.7009441941268,7.820803375,0.2043052083333333,-3.67749375,-0.0684169066781777,0.1452113937659282,0.0027925268031909,18.273829987194738,391.6501408072783,-2.9889709123212356
1403638612777829376,52.328825,826.6260190241313,8.3356525,-0.196133,-2.770378625,-0.0439822971502571,0.1312487597499735,0.0488692190558412,19.9807164958545,376.6917191190362,-2.919649180453348
1403638613027829504,38.205623,867.1153366448522,9.324489708333331,-0.2778550833333333,-4.396648083333333,0.0048869219055841,0.1291543646475804,0.153588974175501,20.328483162087295,362.2681648541699,-2.848184863235417
1403638613277829376,60.845137,929.9249820771664,8.38468575,0.1879607916666666,-2.4516625,0.0167551608191455,0.0795870138909414,0.0719075651821663,18.72864810299855,348.5657563493258,-2.629636758444292
1403638613527829504,54.122925,901.7165551602392,8.670713041666666,0.8907707083333333,-3.260711125,-0.0788888821901436,0.0425860337486616,0.1801179788058148,17.565193163176865,335.93545915637,-2.519599547041423
1403638613777829376,50.461293,885.1417267623264,9.234595416666666,0.7028099166666667,-3.2280222916666665,-0.1396263401595463,0.085870199198121,0.1284562329467826,19.16470684388636,323.65753626533336,-2.468022390027727
1403638614027829504,49.609423,611.7949497642993,8.3356525,-0.34323275,-2.043052083333333,-0.382576172037157,-0.0062831853071795,0.2164208272472968,23.41489345551895,310.2933490952055,-2.718811317237112
1403638614277829376,49.833059,643.8247170145935,9.504278291666663,0.4576436666666666,-2.974683833333333,-0.2876302607286655,0.028623399732707,0.161268422884276,25.3716342015869,297.1670082492981,-2.7174070829808556
1403638614527829504,50.928116,778.5579829992652,9.357178541666666,-0.2533384583333333,-2.5170401666666664,-0.1864011641129944,-0.025830872929516,0.1982694030265558,24.683746143144695,285.0126849356608,-2.3550502314470236
1403638614777829376,72.895289,581.1110592151415,9.250939833333334,-0.5883989999999999,-3.7919046666666665,-0.3218387140677544,-0.1151917306316257,0.3546509040052477,24.374689132797727,273.19882334044127,-2.436345006445549
1403638615027829504,49.877643,504.2272992733278,8.866846041666665,0.0735498749999999,-3.3506054166666663,-0.6527531402458793,-0.0146607657167523,0.1926843494201739,26.156187520637026,259.7999436830113,-2.8912854467865827
1403638615277829376,61.348438,453.06088390620687,7.649186999999999,0.2369940416666666,-2.778550833333333,-0.6862634618841703,0.2129301687433081,0.2569124658935653,29.025774029532187,244.28260806792892,-3.1698485378312284
1403638615527829504,62.022448,345.74512771126746,9.324489708333331,-1.1767979999999998,-3.268883333333333,-0.5522221753310059,0.0991347015132779,0.2666863097047335,31.385560246085387,230.45985977283942,-2.6050325520567412
1403638615777829376,49.820661,211.5290464530973,11.024309041666667,0.1389275416666666,-3.8164212916666655,-0.2241002759560719,0.046774823953448,0.2254965393576673,30.968718636603963,219.2355774672412,-1.9857809518856868
1403638616027829504,50.420761,230.7975227838794,7.289609833333333,-0.0326888333333333,-2.0512242916666668,-0.3064798166502042,0.0488692190558412,0.1151917306316257,30.600174472219233,210.63025379705428,-1.4702931498998453
1403638616277829376,50.351858,188.86222245011007,6.439700166666666,0.3350605416666666,-2.40262925,-0.418879020478639,0.0090757121103705,0.2178170906488923,30.721450475121447,205.85241721278345,-0.5819066115687406
1403638616527829504,39.27064,168.07775299960272,8.711574083333332,-0.2860272916666666,-1.4464808749999998,-0.3043854215478111,-0.0509636141582344,0.1647590813882647,32.19649359270811,205.66445815677764,0.27673476567170496
1403638616777829376,49.335003,127.90306627997988,8.196724958333332,-0.1470997499999999,-2.5660734166666663,-0.0565486677646162,-0.2520255439879811,0.2611012560983517,32.54536669455296,208.9612180052527,0.8735684255884166
1403638617027829504,50.353765,180.8721677948638,6.586799916666666,0.6782932916666666,-3.4650163333333333,-0.028623399732707,0.1808161105066125,-0.1193805208364121,33.581045954246704,212.95475050952106,0.607958000518579
1403638617277829376,50.856352,221.5021660655497,8.204897166666667,-0.784532,-3.2770555416666665,0.0781907504893459,-0.0237364778271228,0.1975712713257581,34.01852963126067,216.19793022174161,0.6537778090606992
1403638617527829504,49.900293,207.17626454840843,10.166227166666664,-1.2340034583333332,-4.094276375,0.0237364778271228,0.1033234917180643,0.0802851455917391,33.56773763298573,218.27218121742766,0.28035504254404486
1403638617777829376,35.339356,202.1511876866621,9.275456458333332,-0.1062387083333333,-4.077931958333333,0.0656243798749867,-0.0104719755119659,-0.0279252680319092,33.43122690604311,219.0927189221157,-0.06723195933918191
1403638618027829504,51.663637,206.14694881763293,7.649186999999999,-0.3595771666666666,-3.097266958333333,0.025830872929516,0.08307767239493,0.0125663706143591,33.56614481863255,217.94611257102196,-0.3742763269304987
1403638618277829376,61.294555,210.4257644053207,10.558493166666668,-0.0980665,-3.2770555416666665,0.0125663706143591,0.0698131700797731,0.028623399732707,31.793831721045095,216.85107710093038,-0.11639409025514169
1403638618527829504,46.095132,211.6921570728341,9.07115125,-0.0817220833333333,-3.08909475,-0.0795870138909414,-0.0174532925199432,0.0230383461263251,30.618618923221312,216.3881797830324,-0.07449676664651861
1403638618777829376,53.03979,201.82686538505183,9.724927916666667,-0.34323275,-5.05042475,-0.0809832772925368,-0.0349065850398865,0.057246799465414,28.792034474519184,216.94528738675544,0.024017963251793617
1403638619027829504,49.510956,122.69421081285086,7.232404375,0.04903325,-2.8357562916666668,-0.3804817769347638,0.1410226035611418,0.124965574442794,29.22138277926599,217.3468127032376,0.20773695167730466
1403638619277829376,49.874544,187.9116910453317,8.719746291666667,-0.2124774166666666,-3.4241552916666667,-0.5822418384653083,0.0279252680319092,0.2813470754214859,26.526792232625855,219.9203543665232,0.6429356199094798
1403638619527829504,64.189911,622.1641102916849,9.569655958333334,-1.61809725,-3.113611375,-0.3211405823669566,0.0802851455917391,0.265290046303138,22.419863092215177,224.78181945158897,1.0454629440572774
1403638619777829376,61.867952,914.120201604546,7.79628675,0.0408610416666666,-3.514049583333333,-0.0321140582366956,0.075398223686155,0.239459173373622,19.00013522860844,230.84214497165058,1.2032363716236318
1403638620027829504,50.311565,980.633899920462,9.07115125,-0.4494714583333333,-2.672312125,-0.0223402144255274,0.0174532925199432,0.1368338133563554,17.926084626675447,239.8722943933357,2.115085117222492
1403638620277829376,50.412416,970.2689626544465,11.114203333333332,-0.73549875,-4.314926,-0.036302848441482,-0.0383972435438752,-0.0153588974175501,18.701618122686195,251.17867045977462,2.387412416300407
1403638620527829504,37.619829,1072.1248650465143,8.433719,0.171616375,-2.549729,0.0279252680319092,-0.1005309649148733,0.0614355896702004,18.776411433857263,262.95191595639983,2.4610786351657907
1403638620777829376,49.874783,1009.6404231812278,8.229413791666666,0.9643205833333331,-2.639623291666666,-0.0069813170079773,-0.104021623418862,-0.0153588974175501,19.00090523330139,275.9243528611231,2.5266104676665577
1403638621027829504,63.358784,932.7217853356068,9.749444541666666,-0.1470997499999999,-3.015544875,0.0132645023151569,0.1424188669627373,-0.0132645023151569,19.406807363140036,290.6580373603165,3.0479352090819134
1403638621277829376,49.465417,996.9425117209164,10.076332875,0.24516625,-3.3996386666666667,0.0097738438111682,-0.046774823953448,-0.0390953752446729,19.326573525545555,304.9224531225166,2.685242124074364
1403638621527829504,51.162958,994.2877277864516,10.215260416666666,0.220649625,-3.5957716666666664,-0.0055850536063818,0.0726056968829641,0.0747000919853573,17.62621281742237,318.0622582107691,2.623278746192625
1403638621777829376,49.178123,943.3626150025024,10.174399375,-0.3514049583333333,-3.178989041666666,-0.0307177948351002,0.104021623418862,0.0111701072127637,15.841473722424046,330.58061003949643,2.586718078986223
1403638622027829504,60.250521,988.4721250847372,7.591981541666666,-0.53936575,-3.219850083333333,-0.0188495559215387,0.0886627260013119,0.179419847105017,14.52809938460025,341.90202984287987,2.1474013793464337
1403638622277829376,46.907901,990.6601836388472,8.662540833333333,0.1389275416666666,-3.4404997083333333,-0.0160570291183478,-0.0048869219055841,0.1179842574348166,13.146231347049264,351.6309395984504,1.7899458033356836
1403638622527829504,49.628019,977.646218954654,8.768779541666666,-0.318716125,-4.960530458333333,0.007679448708775,-0.1026253600172665,0.0230383461263251,11.351504592679662,358.95072415517933,1.2834358904253236
1403638622777829376,51.127672,501.8773268461306,10.051816249999998,0.4576436666666666,-2.378112625,0.0062831853071795,0.3853686988403479,0.0719075651821663,10.125313677721353,363.594884395044,0.6482601518616775
1403638623027829504,35.398245,733.6760765429964,8.458235625,-0.024516625,-3.334261,-0.028623399732707,-0.2171189589480945,0.0956440430092892,10.355702430840978,365.08308767408204,0.10922781301815121
1403638623277829376,54.092646,899.7884385504087,9.724927916666667,-0.3595771666666666,-3.514049583333333,0.0090757121103705,-0.1012290966156711,0.1347394182539622,11.887924315485629,365.997172819773,0.1325556132609904
1403638623527829504,49.269676,1030.9429380657116,10.280638083333333,0.0653776666666666,-3.366949833333333,-0.054454272662223,0.1584758960810851,0.0614355896702004,14.409633221833401,366.8273861116899,0.188242417961078
1403638623777829376,35.225153,936.3638827193367,9.299973083333333,0.4739880833333333,-3.4241552916666667,-0.0195476876223364,-0.0083775804095727,0.0558505360638185,14.97831012232159,368.0037074418139,0.14290044860553053
1403638624027829504,62.000752,1056.20979193339,9.259112041666668,-0.367749375,-3.4404997083333333,0.0020943951023931,0.007679448708775,0.2066469834361286,16.132063347582434,368.70821008570925,0.1729381000548642
1403638624277829376,50.236463,1099.660715410125,7.951558708333333,-0.4086104166666666,-2.982856041666666,-0.0460766922526503,0.0111701072127637,0.1207767842380075,16.915329382420577,370.62057373167767,0.758277476158014
1403638624527829504,49.498797,846.1633186714412,9.716755708333332,-0.8662540833333333,-1.9531577916666665,0.0474729556542457,0.2988003679414292,0.210835773640915,17.88603225000125,373.9499861141515,0.7802456522962302
1403638624777829376,64.390898,803.9955988470448,10.942586958333331,-0.6701210833333332,-2.9256505833333333,0.0495673507566389,-0.1473057888683213,-0.1117010721276371,19.090583811066182,378.98823921766996,1.1016823384144345
1403638625027829504,38.604737,971.8524611174574,9.046634625,1.250347875,-2.132946375,0.1389282084587486,-0.0300196631343024,0.1857030324121966,19.8782666073982,384.3104997449217,1.0452579396367696
1403638625277829376,60.758352,1211.3542440260946,9.798477791666668,0.7681875833333334,-4.674503166666667,0.0642281164733913,0.0872664625997164,0.0684169066781777,20.05871700551511,390.4987888908023,1.3906491443640903
1403638625527829504,38.667441,1198.727276392405,9.357178541666666,-0.3350605416666666,-4.56009225,-0.0146607657167523,0.0342084533390888,0.0642281164733913,20.526268676767895,398.3311531906624,1.6789782739199381
1403638625777829376,50.080776,1085.2106418314702,8.343824708333333,-0.9234595416666666,-3.5222217916666665,0.0397935069454707,-0.1305506280491758,0.1668534764906579,19.755136313199095,406.9928727848223,1.818589750703154
1403638626027829504,60.716629,1108.8893888629716,7.976075333333333,0.53936575,-2.3699404166666667,-0.0055850536063818,-0.0781907504893459,0.1563815009786919,19.76030560587076,417.1842175042041,2.227306629862028
1403638626277829376,55.82571,941.4174808150182,10.149882749999998,-0.7109821249999999,-3.2525389166666665,-0.093549647906896,0.1012290966156711,-0.15079644737231,19.39240261033844,428.6807557537756,2.3844837332643465
1403638626527829504,60.365677,994.9723926186422,8.507268875,-0.122583125,-3.293399958333333,0.0146607657167523,-0.0307177948351002,0.1012290966156711,19.33720438716849,440.9540467347674,2.4086301819128266
1403638626777829376,36.323786,1041.5572363183546,10.681076291666663,-0.0898942916666666,-2.827584083333333,0.0216420827247296,0.0062831853071795,0.140324471860344,18.275673218554704,452.38098782648626,2.1097572428662943
1403638627027829504,63.933849,1360.3084188546898,8.482752249999999,0.1879607916666666,-2.7867230416666664,0.0062831853071795,0.0272271363311115,0.0740019602845595,14.26941699188719,461.8628547396825,1.8112338352013921
1403638627277829376,61.034679,1221.2666777333682,9.80665,-0.4249548333333333,-2.8439285,0.0034906585039886,-0.0062831853071795,0.0125663706143591,12.20041962553825,470.27393732101467,1.5995200438271695
1403638627527829504,47.528505,1420.6035278810286,8.221241583333333,0.024516625,-4.4129925,-0.0453785605518525,0.1228711793404008,-0.0069813170079773,10.635551325131438,477.53982668814945,1.3615205297678585
1403638627777829376,38.266421,1480.070278389542,9.381695166666669,-0.3759215833333333,-3.7673880416666665,0.0013962634015954,0.0376991118430775,0.1542871058762987,9.01887042004326,483.55558428455146,1.0985090575284175
1403638628027829504,51.47171,715.3582606375795,9.504278291666663,0.4985047083333333,-2.20649625,-0.0474729556542457,0.0411897703470661,0.0593411945678072,7.349386999013858,488.44370468235024,0.6901783913189661
