stamp,img_delta,blur,lin_acc.x,lin_acc.y,lin_acc.z,ang_vel.x,ang_vel.y,ang_vel.z,rpe,ate,drift
1403636859601666560,49.763441,439.02069621283215,9.030290208333332,-0.367749375,-3.178989041666666,-0.189891822616983,-0.007679448708775,-0.0041887902047863,1.3701991905866222,1.3701991905866193,1.3701991905866193
1403636859651666432,62.537432,380.1771312491698,9.013945791666666,-0.5066769166666666,-3.1463002083333333,-0.143116998663535,0.1947787445225671,0.057246799465414,1.126646501149611,2.4708256773176416,1.1006264867310223
1403636859701666560,47.200918,364.422793850676,9.095667875,-0.0735498749999999,-3.28522775,-0.1598721594826805,0.2673844414055313,-0.0223402144255274,1.195969759757514,3.649168502709706,1.1783428253920643
1403636859751666432,40.638686,364.3705714189168,9.095667875,-0.0735498749999999,-3.28522775,-0.1598721594826805,0.2673844414055313,-0.0223402144255274,1.0345445925425225,4.633202351786279,0.9840338490765732
1403636859801666560,49.873113,408.33536213252506,9.144701125,0.024516625,-3.28522775,-0.1584758960810851,0.2268928027592628,-0.0453785605518525,1.1717550940887518,5.7412946156524125,1.1080922638661335
1403636859851666432,50.154925,477.67145950777103,8.327480291666665,-0.2860272916666666,-3.08909475,-0.1605702911834783,0.1773254520026238,-0.0795870138909414,1.0770103701092382,6.798102491793359,1.0568078761409465
1403636859901666560,49.964189,557.2942993311347,9.087495666666666,0.0653776666666666,-3.08909475,-0.0837758040957278,0.1151917306316257,0.0104719755119659,0.7694470514886095,7.514917878342247,0.7168153865488875
1403636859951666432,49.896002,619.4381603155658,8.106830666666665,0.2615106666666666,-2.7867230416666664,-0.0523598775598298,0.0893608577021096,0.0760963553869527,0.8940630480119881,7.5047347881201985,-0.010183090222048108
1403636860001666560,49.991369,825.4924104080595,7.428537374999999,0.5883989999999999,-2.329079375,-0.0726056968829641,0.0370009801422797,0.0712094334813686,1.1826981620949832,7.408369079664146,-0.09636570845605252
1403636860051666432,49.85857,905.8482114822206,6.644005375,0.4576436666666666,-1.9286411666666663,-0.0774926187885482,-0.0153588974175501,0.085870199198121,1.7428427715709967,7.0237039366677845,-0.38466514299636145
1403636860101666560,50.025463,863.888398053256,6.153672874999999,0.0817220833333333,-1.838746875,-0.064926248174189,-0.0712094334813686,0.1787217154042193,2.7213718661223694,7.335252555458056,0.3115486187902716
1403636860151666432,56.344033,619.7892184410019,6.210878333333333,0.122583125,-1.985846625,-0.0125663706143591,-0.1082104136236484,0.1424188669627373,0.8894029212537788,7.470336203851489,0.135083648393433
1403636860201666560,43.68782,449.9009255408733,6.210878333333333,-0.196133,-2.435318083333333,-0.0034906585039886,-0.1438151303643327,0.124965574442794,1.35851832241076,7.192981984824885,-0.27735421902660384
1403636860251666432,50.317288,363.7301160053871,6.954549291666666,-0.1797885833333333,-2.6477955,0.0705113017805709,-0.1919862177193762,0.1975712713257581,2.149559612119038,8.632716893237275,1.4397349084123894
1403636860301666560,54.078817,308.1738448886844,8.180380541666665,0.1879607916666666,-2.9338227916666666,0.0705113017805709,-0.2925171826342496,0.2066469834361286,0.7055657881282558,8.766992390632398,0.134275497395123
1403636860351666432,45.537233,271.6277836074396,8.294791458333332,-0.2615106666666666,-3.3260887916666664,-0.0139626340159546,-0.3832743037379548,0.1521927107739055,0.7768012659367473,8.109298249004752,-0.6576941416276458
1403636860401666560,50.28081,255.8075160360195,9.079323458333333,-0.1470997499999999,-4.004382083333333,-0.0139626340159546,-0.4363323129985824,0.2052507200345331,0.4808968500059346,7.663140553556556,-0.4461576954481954
1403636860451666432,55.51219,245.4521173280518,9.349006333333334,-0.34323275,-3.7919046666666665,-0.0279252680319092,-0.457974395723312,0.1682497398922533,0.3037965521848645,7.627583987841921,-0.035556565714635724
1403636860501666560,55.069446,236.7545561863351,10.1008495,-0.2533384583333333,-4.445681333333333,0.1061160185212552,-0.3895574890451343,0.1905899543177807,1.2722902683798987,6.8282594427893875,-0.7993245450525333
1403636860551666432,49.196005,242.92309133828712,10.019127416666668,-0.5311935416666667,-5.254729958333334,0.0265290046303138,-0.3274237676741362,0.1494001839707146,0.7179477461645555,6.4756336266256955,-0.35262581616369193
1403636860601666560,43.451548,254.9840224743028,10.019127416666668,-0.5311935416666667,-5.254729958333334,0.0265290046303138,-0.3274237676741362,0.1494001839707146,0.11457365360579498,6.4161464925653,-0.05948713406039552
1403636860651666432,46.98348,301.5859563327504,9.937405333333334,-0.1307553333333333,-5.181180083333333,0.1103048087260416,-0.1766273203018261,0.1228711793404008,0.5986900482655516,6.056867099281534,-0.35927939328376635
1403636860701666560,51.181555,378.7675281496376,10.574837583333332,-0.6210878333333334,-5.279246583333333,0.1033234917180643,-0.0823795406941323,0.0425860337486616,0.502068955715242,5.774720787254916,-0.2821463120266179
1403636860751666432,49.78466,551.586574031004,10.926242541666667,-0.2124774166666666,-5.565273875,-0.0083775804095727,-0.0020943951023931,-0.0621337213709981,1.3720828224653732,5.283892107006725,-0.4908286802481907
1403636860801666560,48.708916,714.7023242334783,10.909898125,-0.3514049583333333,-5.524412833333333,0.0062831853071795,0.0383972435438752,-0.1026253600172665,3.857215910453621,5.983187802629325,0.6992956956225997
1403636860851666432,60.832262,496.53442623685856,11.106031125,-0.269682875,-5.597962708333332,0.0488692190558412,0.0370009801422797,-0.0300196631343024,0.09764314624821024,5.934910423938927,-0.04827737869039783
1403636860901666560,49.616814,382.6166398761287,10.73828175,-0.1470997499999999,-5.508068416666666,0.0607374579694026,0.0516617458590321,-0.0216420827247296,0.43021071099183533,5.751133402284584,-0.1837770216543433
1403636860951666432,50.218105,313.2540772184035,10.427737833333332,0.220649625,-5.074941374999999,0.0153588974175501,0.1452113937659282,-0.0209439510239319,0.4136127319689536,5.462985167607577,-0.28814823467700634
1403636861001666560,44.159412,279.2049617470579,10.427737833333332,0.220649625,-5.074941374999999,0.0153588974175501,0.1452113937659282,-0.0209439510239319,0.2821550647363335,5.323642892532436,-0.1393422750751414
1403636861051666432,48.945189,258.71307758798514,9.602344791666663,-0.2043052083333333,-4.797086291666667,0.0188495559215387,0.2513274122871834,0.0600393262686049,0.15163718981083826,5.201821854281423,-0.12182103825101276
1403636861101666560,45.917272,244.97450590090008,9.455245041666666,0.04903325,-4.347614833333333,-0.0272271363311115,0.3511602455012591,0.0502654824574366,0.15100317353091453,5.068094513720414,-0.1337273405610091
1403636861151666432,60.817004,248.53619482011723,9.136528916666666,-0.367749375,-4.1024485833333335,-0.0048869219055841,0.5124286683855351,0.0516617458590321,0.2924715254487709,5.104897398423666,0.03680288470325177
1403636861201666560,44.342279,253.36510493293707,9.136528916666666,-0.367749375,-4.1024485833333335,-0.0048869219055841,0.5124286683855351,0.0516617458590321,0.11100335279447282,5.122492438262986,0.017595039839320314
1403636861251666432,55.765391,259.8031737234679,8.597163166666666,-0.0408610416666666,-3.4404997083333333,0.0188495559215387,0.5026548245743669,0.1123992038284348,0.0975111466029355,5.1346202184388625,0.012127780175876346
1403636861301666560,39.422512,267.15928665448945,8.597163166666666,-0.0408610416666666,-3.4404997083333333,0.0188495559215387,0.5026548245743669,0.1123992038284348,0.10767297079615008,5.113721678917935,-0.02089853952092735
1403636861351666432,50.376415,297.5293258768765,7.559292708333333,0.3268883333333333,-3.0400615,-0.0223402144255274,0.4440117617073574,0.1068141502220529,0.941701022096018,4.883331118210588,-0.2303905607073471
1403636861401666560,49.782276,328.9191998752134,7.346815291666666,-0.2778550833333333,-2.231012875,-0.0230383461263251,0.3874630939427411,0.1808161105066125,0.2173854104617522,4.795019196648877,-0.08831192156171142
1403636861451666432,50.242901,431.97980102519887,6.219050541666666,0.2043052083333333,-2.3372515833333334,-0.0586430628670094,0.307177948351002,0.0677187749773799,0.17500218043596813,4.746897983680634,-0.04812121296824223
1403636861501666560,63.376665,710.3504168497553,5.965712083333332,0.024516625,-1.9286411666666663,-0.0977384381116824,0.0747000919853573,0.0411897703470661,0.15177929693108022,4.724150900022961,-0.022747083657673528
1403636861551666432,36.934853,937.7339526591225,5.965712083333332,0.024516625,-1.9286411666666663,-0.0977384381116824,0.0747000919853573,0.0411897703470661,0.12491546741095104,4.704711633327218,-0.01943926669574303
1403636861601666560,59.489965,585.8292235252081,6.701210833333333,-0.3350605416666666,-2.10842975,0.036302848441482,-0.1870992958137921,0.0949459113084915,0.0902231319395445,4.716242623891825,0.011530990564606824
1403636861651666432,44.390917,437.83468219075337,6.701210833333333,-0.3350605416666666,-2.10842975,0.036302848441482,-0.1870992958137921,0.0949459113084915,0.12453887852525251,4.782154881190452,0.06591225729862771
1403636861701666560,45.4216,377.7829595618389,7.2487487916666655,-0.2533384583333333,-2.639623291666666,0.0265290046303138,-0.208043246837724,0.0788888821901436,0.1523301571994229,4.909714059014523,0.12755917782407078
1403636861751666432,59.949398,376.64547530266015,8.368341333333333,-0.2860272916666666,-2.974683833333333,-0.007679448708775,-0.2122320370425104,0.0160570291183478,0.0801241675623714,4.956273507244478,0.046559448229954725
1403636861801666560,44.075489,349.9626838826761,8.368341333333333,-0.2860272916666666,-2.974683833333333,-0.007679448708775,-0.2122320370425104,0.0160570291183478,0.1213792648491412,4.94205538565813,-0.01421812158634772
1403636861851666432,55.612803,328.0417202361068,9.479761666666668,-0.0572054583333333,-3.18716125,0.093549647906896,-0.3078760800517997,0.1026253600172665,0.09442927267299486,4.9979231888171896,0.05586780315905937
1403636861901666560,51.174402,290.1225991823515,8.768779541666666,-0.2778550833333333,-3.734699208333333,0.0453785605518525,-0.3888593573443366,0.1242674427419962,0.12308974221456417,5.108487921310254,0.11056473249306453
1403636861951666432,44.767857,259.54480754188586,8.768779541666666,-0.2778550833333333,-3.734699208333333,0.0453785605518525,-0.3888593573443366,0.1242674427419962,0.1439457939108003,5.250143063667865,0.14165514235761112
1403636862001666560,54.216146,248.8484273535615,10.092677291666664,-0.3105439166666667,-4.257720541666666,0.0635299847725936,-0.3658210112180114,0.2010619298297467,0.12096327104953414,5.288794240902015,0.03865117723414979
1403636862051666432,39.544821,264.15596488663675,10.092677291666664,-0.3105439166666667,-4.257720541666666,0.0635299847725936,-0.3658210112180114,0.2010619298297467,0.17024192883036907,5.426654841374116,0.13786060047210125
1403636862101666560,50.579548,274.6135593386791,9.626861416666666,-0.1062387083333333,-4.4129925,0.0069813170079773,-0.265290046303138,0.1445132620651305,0.29769606956578176,5.393171007093438,-0.033483834280677804
1403636862151666432,50.110817,292.67278271523674,10.501287708333331,-0.1307553333333333,-4.895152791666666,0.0802851455917391,-0.1710422666954443,0.1933824811209717,0.10456723470396506,5.423648368013661,0.030477360920222907
1403636862201666560,49.85094,329.13299030230087,11.138719958333333,0.0653776666666666,-5.401829708333333,0.0593411945678072,-0.132645023151569,0.0328121899374933,0.10500426707045121,5.513848146876456,0.09019977886279484
1403636862251666432,59.862614,376.5474843387538,11.751635583333332,-0.0898942916666666,-5.6306515416666665,-0.0167551608191455,-0.1228711793404008,-0.0349065850398865,0.1097639406027035,5.591194479016718,0.07734633214026143
1403636862301666560,40.300369,623.3620989564422,11.751635583333332,-0.0898942916666666,-5.6306515416666665,-0.0167551608191455,-0.1228711793404008,-0.0349065850398865,0.07260005273929727,5.6160849808805455,0.024890501863827907
1403636862351666432,49.906016,563.642279387605,11.833357666666666,-0.2533384583333333,-5.834956749999999,-0.0111701072127637,-0.1514945790731078,-0.0523598775598298,0.03610971148569053,5.63188759314823,0.015802612267684424
1403636862401666560,59.694051,382.9183362819996,10.901725916666663,-0.04903325,-5.597962708333332,0.025830872929516,0.0488692190558412,0.0781907504893459,0.10353283447444561,5.565210650387346,-0.06667694276088376
1403636862451666432,60.261965,300.2742173775072,10.754626166666666,-0.0408610416666666,-5.4917240000000005,0.0209439510239319,0.0621337213709981,0.085870199198121,0.11968876171673255,5.480586231226687,-0.08462441916065888
1403636862501666560,28.798104,272.4895413647482,10.149882749999998,0.1389275416666666,-4.95235825,-0.054454272662223,0.1591740277818828,0.0174532925199432,0.12229514103999255,5.372100868674449,-0.10848536255223795
1403636862551666432,50.568342,250.6280990371409,9.888372083333332,0.2124774166666666,-4.576436666666666,-0.1626646862858715,0.228987197861656,0.0307177948351002,0.09167266471071515,5.296206067940183,-0.07589480073426635
1403636862601666560,50.48418,245.48924723116187,9.46341725,0.220649625,-4.715364208333333,-0.2631956512007449,0.2813470754214859,-0.0663225115757845,0.0993824946690557,5.249375286926436,-0.046830781013746936
1403636862651666432,49.890995,264.8785296405136,8.956740333333332,-0.44129925,-4.4701979583333324,-0.1815142422074102,0.3225368457685521,0.0684169066781777,0.04136522855433659,5.273195007114612,0.02381972018817624
1403636862701666560,59.756995,280.70866424647284,8.376513541666666,-0.1307553333333333,-3.710182583333333,-0.0146607657167523,0.265290046303138,0.3057816849494065,0.03810627948647613,5.309621958349574,0.036426951234961535
1403636862751666432,40.13586,336.98643311246843,8.376513541666666,-0.1307553333333333,-3.710182583333333,-0.0146607657167523,0.265290046303138,0.3057816849494065,0.23299838036395937,5.329722220817506,0.020100262467932062
1403636862801666560,50.288916,379.1335562826157,9.005773583333333,0.24516625,-4.233203916666667,-0.0774926187885482,0.1424188669627373,0.1494001839707146,0.09526851904184859,5.385842361201688,0.05612014038418245
1403636862851666432,49.960851,394.1323500394901,8.28661925,-0.392266,-3.8899711666666654,-0.0537561409614253,0.1382300767579508,0.3043854215478111,0.0805641122970935,5.40098911689511,0.015146755693421277
1403636862901666560,50.203562,401.8110462425996,7.861664416666666,0.0572054583333333,-3.57942725,-0.0537561409614253,0.1438151303643327,0.1891936909161853,0.059455386739563736,5.446437799824475,0.04544868292936499
1403636862951666432,59.560061,408.8544876020809,5.687856999999999,0.0817220833333333,-2.574245625,0.0628318530717958,0.2478367537831947,0.104021623418862,0.07331847717237158,5.4921735657667305,0.045735765942255924
1403636863001666560,44.673919,480.52490667137175,5.687856999999999,0.0817220833333333,-2.574245625,0.0628318530717958,0.2478367537831947,0.104021623418862,0.6140642446634615,5.3434140271526935,-0.148759538614037
1403636863051666432,45.65382,609.1443125262304,5.720545833333333,0.1879607916666666,-1.9695022083333331,-0.0216420827247296,0.2597049926967562,-0.0432841654494593,0.08340572491717349,5.3725405536455115,0.029126526492817995
1403636863101666560,59.768915,720.0072877885812,6.063778583333333,-0.24516625,-2.083913125,-0.0767944870877505,0.1619665545850737,-0.1312487597499735,0.1516599668159723,5.38922945417733,0.016688900531818263
1403636863151666432,46.07153,840.9489207228015,6.063778583333333,-0.24516625,-2.083913125,-0.0767944870877505,0.1619665545850737,-0.1312487597499735,0.18442922819679336,5.399771144025664,0.010541689848333924
1403636863201666560,53.574085,688.695977034048,6.431527958333334,0.367749375,-2.5660734166666663,0.0167551608191455,-0.0125663706143591,-0.007679448708775,0.14446715325035503,5.423961003589964,0.02418985956430042
1403636863251666432,40.383816,536.8252147434216,6.431527958333334,0.367749375,-2.5660734166666663,0.0167551608191455,-0.0125663706143591,-0.007679448708775,0.13585243941521485,5.423815455758943,-0.00014554783102127544
1403636863301666560,69.722175,506.9167431238986,8.433719,1.1522813749999998,-2.8439285,-0.0642281164733913,-0.0509636141582344,0.0628318530717958,0.1588575144425763,5.427865144402886,0.00404968864394295
1403636863351666432,30.375719,457.4450345248735,8.433719,1.1522813749999998,-2.8439285,-0.0642281164733913,-0.0509636141582344,0.0628318530717958,0.1319005102347994,5.459639474419002,0.03177433001611618
1403636863401666560,49.867392,445.54123819624726,8.834157208333334,-0.3840937916666667,-3.734699208333333,-0.1417207352619395,-0.0691150383789754,-0.0209439510239319,0.12954106498999216,5.563025270740483,0.10338579632148104
1403636863451666432,50.148249,362.6706046947278,8.580818749999999,0.661948875,-3.162644625,-0.0795870138909414,-0.0816814089933346,0.0970403064108847,0.14094045956098994,5.689269645882644,0.1262443751421607
1403636863501666560,50.063133,325.7038812725803,8.662540833333333,0.1389275416666666,-3.800076875,-0.0516617458590321,-0.210835773640915,0.2331759880664424,0.10766454202626977,5.769300114845129,0.08003046896248556
1403636863551666432,60.201406,280.0822443187539,9.790305583333332,0.0,-3.9880376666666666,0.1494001839707146,-0.2904227875318564,0.2673844414055313,0.020340586865436293,5.784978819304475,0.015678704459345383
1403636863601666560,46.651602,263.06837127736213,9.790305583333332,0.0,-3.9880376666666666,0.1494001839707146,-0.2904227875318564,0.2673844414055313,0.04042849192856694,5.785224261984148,0.0002454426796729692
1403636863651666432,55.602074,252.0411648677228,10.476771083333333,0.1144109166666666,-4.298581583333333,0.1340412865531645,-0.2764601535159017,0.2296853295624537,0.05306697564946123,5.785044682808577,-0.00017957917557076541
1403636863701666560,49.794197,256.9055538557982,11.097858916666665,-0.0081722083333333,-5.066769166666667,0.036302848441482,-0.2722713633111154,0.239459173373622,0.2589333228027418,5.688587289729976,-0.0964573930786008
1403636863751666432,43.812513,246.0974807077744,11.097858916666665,-0.0081722083333333,-5.066769166666667,0.036302848441482,-0.2722713633111154,0.239459173373622,0.16658088907077004,5.744265288817566,0.05567799908758975
1403636863801666560,54.861308,261.36466863788473,11.76798,-0.3268883333333333,-6.063778583333333,-0.0020943951023931,-0.2296853295624537,0.0705113017805709,0.13314587792425475,5.683684913339442,-0.060580375478124004
1403636863851666432,39.712667,393.49591929598296,11.76798,-0.3268883333333333,-6.063778583333333,-0.0020943951023931,-0.2296853295624537,0.0705113017805709,0.12663860951958175,5.653510183962396,-0.030174729377045573
1403636863901666560,49.572229,656.5796387429771,12.01314625,-0.122583125,-6.080123,0.0349065850398865,-0.161268422884276,0.0551524043630208,0.22817385363229128,5.7062930017995575,0.05278281783716121
1403636863951666432,50.30489,382.9409512252121,12.094868333333332,-0.416782625,-6.145500666666667,0.0970403064108847,-0.0774926187885482,0.0802851455917391,0.20737489734745349,5.507614769825909,-0.19867823197364842
1403636864001666560,60.219526,290.4326643537518,10.419565625,-0.3350605416666666,-5.426346333333333,0.0886627260013119,0.1494001839707146,0.0481710873550434,0.09234945735155307,5.415581172009857,-0.09203359781605247
1403636864051666432,44.824362,278.8061056347937,10.419565625,-0.3350605416666666,-5.426346333333333,0.0886627260013119,0.1494001839707146,0.0481710873550434,0.09994228471891956,5.343796444971576,-0.07178472703828032
1403636864101666560,44.650078,257.7544880576955,10.909898125,-0.3023717083333333,-5.099458,-0.0307177948351002,0.1766273203018261,-0.0991347015132779,0.1474403224833973,5.245283603635369,-0.0985128413362073
1403636864151666432,62.250614,272.5356422707219,9.193734375,-0.4739880833333333,-4.2822371666666665,-0.1361356816555577,0.2087413785385218,-0.0376991118430775,0.0293350190154959,5.218862725457109,-0.026420878178259777
1403636864201666560,37.638426,296.50620131904435,9.193734375,-0.4739880833333333,-4.2822371666666665,-0.1361356816555577,0.2087413785385218,-0.0376991118430775,0.03527412999556057,5.201753781527622,-0.01710894392948692
1403636864251666432,60.572147,358.02276020934784,7.984247541666667,-0.24516625,-3.7919046666666665,0.0300196631343024,0.1165879940332212,0.0886627260013119,0.056924327895010236,5.211155091220792,0.009401309693169324
1403636864301666560,39.555073,390.9456586550511,7.984247541666667,-0.24516625,-3.7919046666666665,0.0300196631343024,0.1165879940332212,0.0886627260013119,0.060846252740715714,5.248449594906152,0.03729450368536025
1403636864351666432,60.386896,387.1359367528788,7.485742833333332,0.220649625,-3.685665958333333,-0.0090757121103705,0.2150245638457014,0.1710422666954443,0.1640973184998087,5.325311390985322,0.07686179607916976
1403636864401666560,39.590836,345.24556952164176,7.485742833333332,0.220649625,-3.685665958333333,-0.0090757121103705,0.2150245638457014,0.1710422666954443,0.03907335382248099,5.361418412127512,0.036107021142190554
1403636864451666432,60.022592,287.40108744364784,6.431527958333334,-0.0817220833333333,-3.1054391666666663,-0.0726056968829641,0.4530874738177279,0.2324778563656447,0.37512307590156235,5.419366594977711,0.05794818285019865
1403636864501666560,49.91436,290.73730609430805,7.191543333333333,-0.465815875,-2.655967708333333,0.0642281164733913,0.478918346747244,0.3036872898470133,0.1888532053328429,5.481040364492222,0.061673769514511534
1403636864551666432,39.889098,310.7482179200618,7.191543333333333,-0.465815875,-2.655967708333333,0.0642281164733913,0.478918346747244,0.3036872898470133,0.17268605494431696,5.524959069256569,0.043918704764347005
1403636864601666560,49.543857,395.9649269301943,5.998400916666666,0.6701210833333332,-2.672312125,-0.0551524043630208,0.4021238596594935,0.1110029404268393,0.1988543907043693,5.60605057138314,0.08109150212657035
1403636864651666432,60.156822,693.8671592852166,6.178189499999999,0.1634441666666666,-2.329079375,-0.0774926187885482,0.1158898623324234,-0.1256637061435917,0.14816245510158305,5.628530122100709,0.02247955071756902
1403636864701666560,40.21883,798.4991056717815,6.178189499999999,0.1634441666666666,-2.329079375,-0.0774926187885482,0.1158898623324234,-0.1256637061435917,0.053968961421602644,5.679644916019465,0.05111479391875662
1403636864751666432,49.760104,599.7561560689179,5.957539875,-0.1389275416666666,-2.3372515833333334,-0.0712094334813686,-0.0335103216382911,-0.1061160185212552,0.028001333847220675,5.678854669429305,-0.0007902465901601374
1403636864801666560,50.070286,479.5077897823103,7.436709583333332,-0.2778550833333333,-2.2228406666666665,0.0111701072127637,-0.143116998663535,-0.0111701072127637,0.096090692055708,5.667926160913764,-0.010928508515541502
1403636864851666432,49.973249,417.331613162741,7.199715541666666,-0.220649625,-3.064578125,-0.0097738438111682,-0.1682497398922533,0.0132645023151569,0.13808690870058477,5.6814109853512935,0.013484824437529852
1403636864901666560,49.993038,390.70471717355935,8.392857958333332,0.6456044583333332,-3.2035056666666666,-0.0216420827247296,-0.1556833692778942,0.0949459113084915,0.07375778882942069,5.727999919836289,0.0465889344849959
1403636864951666432,50.134182,367.7660682609071,9.112012291666666,-0.2533384583333333,-2.941995,-0.0949459113084915,-0.200363798128949,0.0153588974175501,0.1176879001317904,5.828900825771205,0.10090090593491574
1403636865001666560,49.982786,327.41682775557007,8.556302125,0.44129925,-3.693838166666666,-0.1619665545850737,-0.208043246837724,0.0195476876223364,0.07787428290499891,5.888652667914038,0.059751842142833134
1403636865051666432,49.779654,322.64625811883315,9.005773583333333,-0.3023717083333333,-4.045243125,-0.0027925268031909,-0.2261946710584651,0.057246799465414,0.03357143035336611,5.906120388868766,0.017467720954727817
1403636865101666560,59.798002,320.5991856771714,9.26728425,-0.4086104166666666,-4.404820291666666,0.1340412865531645,-0.182212373908208,0.4251622057858186,0.18025665724166884,5.990175918038354,0.08405552916958747
1403636865151666432,49.773693,363.7802738162183,10.010955208333332,-0.0163444166666666,-4.633642125,0.1891936909161853,-0.1480039205691191,0.3937462792499207,0.18853328155102866,6.076467219055948,0.08629130101759408
1403636865201666560,40.457964,362.101331076153,10.010955208333332,-0.0163444166666666,-4.633642125,0.1891936909161853,-0.1480039205691191,0.3937462792499207,0.15070659466653624,6.164775696789646,0.08830847773369843
1403636865251666432,50.191879,406.89754685778337,10.043644041666663,-0.0163444166666666,-5.034080333333333,0.2066469834361286,-0.0970403064108847,0.4146902302738527,0.1614627764124977,6.242352431926481,0.07757673513683461
1403636865301666560,50.032616,472.7029698912818,10.174399375,-0.416782625,-4.690847583333333,0.1354375499547599,-0.0397935069454707,0.2373647782712288,0.13456224560344135,6.293146692988344,0.050794261061863466
1403636865351666432,49.969435,511.1780693608338,10.2969825,-0.392266,-4.641814333333333,-0.0251327412287183,0.0125663706143591,0.1487020522699168,0.1093260722766901,6.385614918201026,0.09246822521268161
1403636865401666560,50.023794,458.01986291056767,10.337843541666668,-0.5475379583333333,-5.017735916666667,-0.0307177948351002,-0.0411897703470661,-0.0013962634015954,0.07914441158646603,6.375824160632325,-0.009790757568700847
1403636865451666432,50.063133,494.5160894484967,11.146892166666666,-0.4903325,-4.960530458333333,-0.0453785605518525,-0.1110029404268393,-0.08307767239493,0.13116319670193963,6.353058886926092,-0.02276527370623249
1403636865501666560,49.663782,620.8817116097296,11.359369583333333,-0.3023717083333333,-5.6306515416666665,-0.085870199198121,-0.1961750079241626,-0.1214749159388053,0.09119547284935678,6.27952299478487,-0.0735358921412228
1403636865551666432,60.179711,703.8651131068156,11.204097625,-0.612915625,-5.777751291666666,0.0209439510239319,-0.1647590813882647,-0.0090757121103705,0.05484580052583513,6.222164515170973,-0.05735847961389684
1403636865601666560,44.356584,482.7493020145816,11.204097625,-0.612915625,-5.777751291666666,0.0209439510239319,-0.1647590813882647,-0.0090757121103705,0.08167234973210473,6.230919041680761,0.008754526509788363
1403636865651666432,44.890166,374.8018608245612,10.158054958333333,-0.44129925,-5.802267916666667,0.0991347015132779,-0.036302848441482,0.0656243798749867,0.15483972675945892,6.0703335636214755,-0.1605854780592857
1403636865701666560,50.861597,287.8961546597074,10.231604833333332,-0.318716125,-5.123974625,0.1047197551196597,0.1179842574348166,0.0760963553869527,0.2301503262119039,5.972572067002045,-0.09776149661943023
1403636865751666432,50.297498,261.55225232435697,9.937405333333334,-0.1797885833333333,-4.846119541666666,0.036302848441482,0.2359685148696333,0.0984365698124801,0.058993952075292046,5.908580964367743,-0.06399110263430252
1403636865801666560,49.877644,257.22257345509354,9.577828166666666,0.2124774166666666,-4.46202575,0.0265290046303138,0.314857397059777,0.1012290966156711,0.09236562192457232,5.84077685545549,-0.0678041089122523
1403636865851666432,49.968958,257.5544226413073,9.635033625,-0.0817220833333333,-4.445681333333333,0.007679448708775,0.3504621138004613,0.1605702911834783,0.10765822583491814,5.755098272694557,-0.08567858276093343
1403636865901666560,50.121069,245.15148661543475,8.474580041666666,-0.2941994999999999,-4.404820291666666,0.0146607657167523,0.4251622057858186,0.1193805208364121,0.057342740639223934,5.6821870319565555,-0.07291124073800148
1403636865951666432,59.696436,233.8915613088305,8.433719,-0.5883989999999999,-3.734699208333333,-0.0027925268031909,0.55710909723659,0.124965574442794,0.07603182285288476,5.620367573341962,-0.06181945861459326
1403636866001666560,44.038534,236.12839285987187,8.433719,-0.5883989999999999,-3.734699208333333,-0.0027925268031909,0.55710909723659,0.124965574442794,0.026955179177274746,5.587815605287183,-0.03255196805477922
1403636866051666432,46.098709,230.37808813170025,8.245758208333333,-0.0817220833333333,-3.2443667083333327,-0.0558505360638185,0.6066764479932288,0.1598721594826805,0.08815051602720496,5.626415005313319,0.038599400026136266
1403636866101666560,49.954653,244.159635619012,7.886181041666666,-0.5965712083333333,-2.79489525,-0.0809832772925368,0.5487315168270172,0.0635299847725936,0.5624514476131083,6.018164469308327,0.39174946399500765
1403636866151666432,59.654236,340.9610152851407,6.668522,-0.7109821249999999,-1.9041245416666663,-0.0328121899374933,0.2771582852166995,0.0125663706143591,0.17691423501094025,6.127694898425027,0.10953042911669986
1403636866201666560,40.555715,489.8595524302215,6.668522,-0.7109821249999999,-1.9041245416666663,-0.0328121899374933,0.2771582852166995,0.0125663706143591,0.1077001410477284,6.169379641609207,0.04168474318418003
1403636866251666432,50.246716,758.4912394638524,6.071950791666666,0.2043052083333333,-1.5854084166666664,-0.0733038285837618,0.1361356816555577,0.0013962634015954,0.10830151602310512,6.237285586329012,0.06790594471980516
1403636866301666560,59.158086,797.2873102654196,6.472389,0.1144109166666666,-1.4464808749999998,-0.1556833692778942,-0.1396263401595463,-0.0216420827247296,0.06490479080157416,6.24201614501345,0.0047305586844377245
1403636866351666432,40.287734,588.8882433442852,6.472389,0.1144109166666666,-1.4464808749999998,-0.1556833692778942,-0.1396263401595463,-0.0216420827247296,0.09607194300455889,6.173178999810775,-0.06883714520267503
1403636866401666560,50.011873,520.6617471759398,7.060788,0.0408610416666666,-1.7733692083333334,-0.085870199198121,-0.2247984076568696,-0.0516617458590321,0.11036841173538195,6.125962607437105,-0.04721639237366926
1403636866451666432,49.968004,471.3809782431237,6.897343833333333,-0.171616375,-2.20649625,-0.0635299847725936,-0.2164208272472968,0.0342084533390888,0.1566022642463971,6.067111966923801,-0.05885064051330424
1403636866501666560,50.224066,453.8109332705422,7.444881791666666,0.3759215833333333,-2.40262925,-0.0160570291183478,-0.2150245638457014,0.0020943951023931,0.16696481040670724,6.0188449776526145,-0.04826698927118667
1403636866551666432,50.146341,439.1490649262327,8.482752249999999,-0.0081722083333333,-2.974683833333333,-0.046774823953448,-0.1996656664281513,0.0370009801422797,0.1495727506036112,6.007719621045608,-0.011125356607006864
1403636866601666560,49.835444,318.94823840123115,9.177389958333332,0.6292600416666666,-3.170816833333333,-0.0502654824574366,-0.2094395102393195,0.0523598775598298,0.19186405757797304,5.968171225671429,-0.039548395374178646
1403636866651666432,49.90983,316.8950942190429,9.953749749999998,0.0898942916666666,-3.87362675,-0.1158898623324234,-0.2317797246648469,-0.0125663706143591,0.11524630335164733,6.022017102449012,0.0538458767775829
1403636866701666560,50.018787,327.9215115539188,10.223432625,0.416782625,-4.36395925,-0.0488692190558412,-0.2415535684760151,0.0677187749773799,0.10279268671868937,5.971205553644097,-0.050811548804914786
1403636866751666432,49.791336,396.3595770232972,9.75761675,-0.2778550833333333,-4.380303666666666,0.0886627260013119,-0.210835773640915,0.0390953752446729,0.23027538656804103,5.843594686342275,-0.12761086730182214
1403636866801666560,50.30632,402.9994307727658,9.912888708333332,-0.0326888333333333,-4.429336916666666,0.1096066770252439,-0.1731366617978375,0.0781907504893459,0.204162712832593,5.8647994358649225,0.021204749522647504
1403636866851666432,49.816132,367.097969826719,9.144701125,-0.34323275,-3.8164212916666655,0.260403124397554,-0.1801179788058148,0.1752310569002306,0.08844532696968757,5.873352964664096,0.008553528799173371
1403636866901666560,59.6807,337.23922197054776,9.626861416666666,-0.024516625,-4.502886791666667,0.2282890661608583,-0.3043854215478111,0.2408554367752175,0.134117206426168,5.932752454531049,0.0593994898669532
1403636866951666432,55.251122,337.6281314680504,9.872027666666666,-0.2941994999999999,-4.576436666666666,0.0816814089933346,-0.2883283924294632,0.1570796326794896,0.3992538522371243,5.948350048757104,0.015597594226054667
1403636867001666560,34.714699,372.4894341909311,9.872027666666666,-0.2941994999999999,-4.576436666666666,0.0816814089933346,-0.2883283924294632,0.1570796326794896,0.13436032179266844,5.969458439700434,0.021108390943330058
1403636867051666432,50.245523,439.8757752371727,10.084505083333331,-0.1470997499999999,-4.576436666666666,-0.0209439510239319,-0.2450442269800038,0.1556833692778942,0.14569972378557516,5.994221302860005,0.024762863159571324
1403636867101666560,50.210238,523.1549203619003,9.635033625,-0.171616375,-5.042252541666667,0.054454272662223,-0.1996656664281513,0.0586430628670094,0.18007599063668697,5.9989580300279535,0.0047367271679483736
1403636867151666432,59.716463,573.317028510525,8.687057458333333,-1.201314625,-5.042252541666667,0.1759291886010284,-0.0705113017805709,0.0872664625997164,0.1935804846842024,6.011742167307708,0.012784137279754582
1403636867201666560,44.52753,472.9622633792082,8.687057458333333,-1.201314625,-5.042252541666667,0.1759291886010284,-0.0705113017805709,0.0872664625997164,0.30322212356283906,6.090907616763152,0.07916544945544413
1403636867251666432,55.183649,574.0146132847914,9.430728416666666,-0.3023717083333333,-4.674503166666667,0.1759291886010284,-0.075398223686155,0.0747000919853573,0.3057407068200981,6.185215302440863,0.09430768567771075
1403636867301666560,50.082684,715.6601516742435,9.079323458333333,-0.1144109166666666,-4.543747833333333,0.0795870138909414,-0.1172861257340189,0.0781907504893459,0.23400144531211498,6.207842461284307,0.02262715884344413
1403636867351666432,44.969797,797.5794619990592,9.079323458333333,-0.1144109166666666,-4.543747833333333,0.0795870138909414,-0.1172861257340189,0.0781907504893459,0.2899561485702262,6.1970523416828796,-0.010790119601427506
1403636867401666560,45.446396,831.1848027360008,8.850501625,-0.7191543333333333,-4.625469916666667,-0.0439822971502571,-0.1305506280491758,0.0230383461263251,0.17883688101060774,6.162995540288358,-0.03405680139452194
1403636867451666432,49.824953,619.7630546433899,8.629852,-0.3023717083333333,-4.944186041666666,-0.0425860337486616,-0.2031563249321399,0.0607374579694026,0.13750989413995343,6.116648407785004,-0.04634713250335398
1403636867501666560,50.164461,430.40617024628295,8.180380541666665,-0.7191543333333333,-4.633642125,-0.093549647906896,-0.3099704751541929,0.0314159265358979,0.13319381094713093,6.082273039955849,-0.03437536782915451
1403636867551666432,49.785614,263.2658679278425,7.763597916666666,0.1797885833333333,-4.985047083333333,-0.0893608577021096,-0.5145230634879283,-0.0446804288510548,0.12213522295759438,6.069316919289629,-0.012956120666220095
1403636867601666560,50.11034,207.65722461131529,7.436709583333332,-0.4494714583333333,-5.009563708333333,-0.0383972435438752,-0.7253588371288433,0.0300196631343024,0.1484867307901398,6.044928814897584,-0.024388104392045307
1403636867651666432,59.713841,179.93991817346384,7.346815291666666,-0.1307553333333333,-5.826784541666666,0.0139626340159546,-1.163785545229819,0.1668534764906579,0.16248233214985003,6.039439254320224,-0.005489560577359498
1403636867701666560,40.14492,164.75643359651917,7.346815291666666,-0.1307553333333333,-5.826784541666666,0.0139626340159546,-1.163785545229819,0.1668534764906579,0.3411574057085144,6.101900504390038,0.06246125006981362
1403636867751666432,49.855948,159.673541946768,7.019926958333333,-0.3514049583333333,-6.4887334166666655,-0.0314159265358979,-1.2482594810263443,0.1591740277818828,0.34215445048849363,6.131036965990692,0.029136461600653973
1403636867801666560,50.337553,168.97138814611955,7.828975583333331,-0.1552719583333333,-6.791105125,-0.1172861257340189,-1.1526154380170552,0.1396263401595463,0.34187095866247397,6.274625894218151,0.1435889282274596
1403636867851666432,59.464693,205.25748587285267,7.289609833333333,-0.612915625,-7.559292708333333,-0.0558505360638185,-0.5159193268895238,0.1724385300970397,0.1756343237249786,6.332423444406022,0.05779755018787025
1403636867901666560,44.900179,435.798673340476,7.289609833333333,-0.612915625,-7.559292708333333,-0.0558505360638185,-0.5159193268895238,0.1724385300970397,0.2922147319673073,6.218875387525427,-0.1135480568805951
1403636867951666432,48.717975,674.763005970048,6.562283291666667,-0.5475379583333333,-7.878008833333333,-0.0593411945678072,-0.1445132620651305,0.2227040125544764,0.589679195577755,5.957527092577253,-0.26134829494817335
1403636868001666560,56.590319,355.9486175747329,5.696029208333333,-0.4576436666666666,-7.698220249999999,-0.0132645023151569,0.3106686068549906,0.1214749159388053,0.5546487359790678,5.810766506121731,-0.14676058645552192
1403636868051666432,40.233135,321.25255036779595,5.696029208333333,-0.4576436666666666,-7.698220249999999,-0.0132645023151569,0.3106686068549906,0.1214749159388053,0.44932297070484717,5.724224644000199,-0.08654186212153192
1403636868101666560,59.731245,369.5078011806971,5.777751291666666,-0.4739880833333333,-7.273265416666667,0.0069813170079773,0.307177948351002,0.0795870138909414,0.11732614974885579,5.696048426470164,-0.028176217530035075
1403636868151666432,39.621115,486.57224591286416,5.777751291666666,-0.4739880833333333,-7.273265416666667,0.0069813170079773,0.307177948351002,0.0795870138909414,0.02418202926052559,5.673144121052576,-0.02290430541758859
1403636868201666560,50.798178,754.0701391080195,6.161845083333333,-0.4004382083333333,-7.052615791666666,0.057246799465414,0.1619665545850737,0.0816814089933346,0.04483226360653735,5.683944480420859,0.010800359368283274
1403636868251666432,60.412883,773.225100873321,6.006573125,-0.93163175,-7.175198916666666,0.0307177948351002,0.0034906585039886,0.2171189589480945,0.058618625792143685,5.722772681597226,0.03882820117636676
1403636868301666560,39.627076,665.6517561996243,6.006573125,-0.93163175,-7.175198916666666,0.0307177948351002,0.0034906585039886,0.2171189589480945,0.055862721229698695,5.777435680098435,0.05466299850120926
1403636868351666432,49.849987,630.4468823767777,6.693038625,-0.5802267916666666,-7.444881791666666,0.0111701072127637,-0.0802851455917391,0.140324471860344,0.07784764247845402,5.858679172229748,0.08124349213131321
1403636868401666560,50.248861,763.3585901506955,6.014745333333333,-0.7273265416666667,-7.2487487916666655,-0.0055850536063818,-0.0062831853071795,0.171740398396242,0.09842259038561876,5.960255575520501,0.10157640329075246
1403636868451666432,49.821854,693.701037926755,6.791105125,-0.7191543333333333,-7.583809333333333,-0.025830872929516,0.114493598930828,0.1228711793404008,0.1388515492812283,6.101193633251993,0.1409380577314927
1403636868501666560,66.152095,604.1454093759648,7.0689602083333325,-0.465815875,-7.485742833333332,-0.1298524963483781,0.268082573106329,0.0949459113084915,0.1431000075386726,6.238852059329941,0.1376584260779472
1403636868551666432,47.460318,542.8708004303384,6.513250041666667,-0.2369940416666666,-7.093476833333334,-0.1075122819228507,0.1954768762233649,0.1661553447898601,0.07795363643745405,6.319531851129442,0.08067979179950147
1403636868601666560,40.227175,710.1471368700085,6.513250041666667,-0.2369940416666666,-7.093476833333334,-0.1075122819228507,0.1954768762233649,0.1661553447898601,0.06725421592775746,6.337803085814925,0.018271234685482973
1403636868651666432,60.310363,862.7118849634575,5.867645583333333,-0.2860272916666666,-6.979065916666666,-0.0509636141582344,-0.0446804288510548,0.0942477796076938,0.10119207237942597,6.309723464484677,-0.02807962133024766
1403636868701666560,44.169426,609.9596128237123,5.867645583333333,-0.2860272916666666,-6.979065916666666,-0.0509636141582344,-0.0446804288510548,0.0942477796076938,0.08030739821248822,6.293170036075553,-0.016553428409124216
1403636868751666432,45.367241,460.852387394665,6.594972124999999,-0.53936575,-6.913688249999999,0.0390953752446729,-0.124965574442794,-0.0006981317007977,0.11971059180173389,6.260452362281348,-0.032717673794205204
1403636868801666560,49.803019,474.57866216082857,6.472389,-0.269682875,-7.093476833333334,0.018151424220741,-0.1494001839707146,-0.007679448708775,0.06949540977223508,6.302757985708668,0.04230562342732025
1403636868851666432,53.53117,720.7499093065578,6.946377083333333,-0.1552719583333333,-6.774760708333333,-0.0216420827247296,-0.1026253600172665,-0.0460766922526503,0.08182282891674492,6.357401449263612,0.054643463554944205
1403636868901666560,46.904564,837.3082388112633,7.003582541666666,-0.4821602916666666,-7.379504124999999,-0.0600393262686049,0.0397935069454707,-0.0279252680319092,0.04495356300038428,6.391348000421862,0.03394655115824996
1403636868951666432,49.706459,652.6861866532918,6.676694208333332,-0.3840937916666667,-7.036271375,-0.0125663706143591,0.1382300767579508,0.0684169066781777,0.052463954012227774,6.362937147859471,-0.028410852562391398
1403636869001666560,59.939146,610.4237448815861,6.529594458333333,-0.3350605416666666,-7.265093208333333,0.1130973355292325,0.1242674427419962,0.1130973355292325,0.04506832584439025,6.337376263003986,-0.025560884855485355
1403636869051666432,51.797867,649.1736563303532,6.398839124999999,-0.392266,-7.117993458333333,0.1082104136236484,0.1075122819228507,0.0579449311662117,0.07650932720271024,6.2878554643511215,-0.04952079865286407
1403636869101666560,37.699699,692.9266376024306,6.398839124999999,-0.392266,-7.117993458333333,0.1082104136236484,0.1075122819228507,0.0579449311662117,0.049857770385403205,6.240456424287215,-0.047399040063906384
1403636869151666432,61.243057,812.8854254433753,6.774760708333333,0.0326888333333333,-6.815621749999999,0.0621337213709981,0.0335103216382911,0.0684169066781777,0.03188823373025782,6.231716408498269,-0.008740015788946565
1403636869201666560,38.610935,842.0802688648521,6.856482791666667,-0.44129925,-6.921860458333333,0.0551524043630208,0.0104719755119659,-0.0006981317007977,0.03838098541427897,6.211490826131673,-0.020225582366595773
1403636869251666432,50.413132,888.0473235946682,6.496905624999999,-0.220649625,-7.183371125,0.0055850536063818,0.0125663706143591,0.0663225115757845,0.04129886158623715,6.182385295101911,-0.029105531029761877
1403636869301666560,50.433874,891.5517906434644,6.815621749999999,-0.4004382083333333,-6.938204874999999,0.0111701072127637,0.0139626340159546,0.018151424220741,0.05691505618784833,6.138127134554085,-0.04425816054782583
1403636869351666432,59.725285,905.9701037751696,6.831966166666666,-0.2941994999999999,-7.150682291666666,0.0167551608191455,0.0272271363311115,0.0418879020478639,0.034919449737219777,6.1105215763433876,-0.027605558210697545
1403636869401666560,40.332317,910.4467708073532,6.831966166666666,-0.2941994999999999,-7.150682291666666,0.0167551608191455,0.0272271363311115,0.0418879020478639,0.03615388327354978,6.076685853654058,-0.03383572268932955
1403636869451666432,49.81637,913.5266658472694,6.554111083333333,-0.1389275416666666,-7.101649041666666,0.025830872929516,0.018151424220741,0.0788888821901436,0.045671737472067,6.035161292105162,-0.041524561548896166
1403636869501666560,59.853316,825.042938197416,6.61948875,0.2615106666666666,-7.134337875,-0.0146607657167523,0.0321140582366956,0.0816814089933346,0.06818148502799795,5.973477397885043,-0.06168389422011877
1403636869551666432,39.84785,743.7233294104561,6.61948875,0.2615106666666666,-7.134337875,-0.0146607657167523,0.0321140582366956,0.0816814089933346,0.1374003520941516,5.85923209609591,-0.11424530178913272
1403636869601666560,56.873084,607.2038465245089,7.01175475,0.6456044583333332,-7.1588545,-0.0195476876223364,-0.0446804288510548,0.0551524043630208,0.21002124047320644,5.692147473630013,-0.1670846224658975
1403636869651666432,42.958259,496.0964527881323,7.01175475,0.6456044583333332,-7.1588545,-0.0195476876223364,-0.0446804288510548,0.0551524043630208,0.28031721070837,5.4916119426570225,-0.20053553097299037
1403636869701666560,60.225248,374.1998378449613,6.995410333333333,0.6456044583333332,-7.052615791666666,-0.0579449311662117,-0.0614355896702004,0.1005309649148733,0.25720116549500605,5.297895320647195,-0.19371662200982787
1403636869751666432,43.879033,324.4799473736102,6.995410333333333,0.6456044583333332,-7.052615791666666,-0.0579449311662117,-0.0614355896702004,0.1005309649148733,0.22669207317544815,5.119515438565935,-0.1783798820812592
1403636869801666560,46.184301,267.5734565390329,6.921860458333333,0.318716125,-7.142510083333334,-0.0809832772925368,0.007679448708775,0.1521927107739055,0.21275208213869,4.933727712427862,-0.1857877261380736
1403636869851666432,60.683489,233.2346987546406,6.823793958333333,0.24516625,-7.10982125,-0.1333431548523667,0.1528908424747032,0.1933824811209717,0.23378709032603204,4.731875270356571,-0.20185244207129038
1403636869901666560,43.649673,224.8639801702254,6.823793958333333,0.24516625,-7.10982125,-0.1333431548523667,0.1528908424747032,0.1933824811209717,0.22132370250172326,4.540855325944661,-0.19101994441191028
1403636869951666432,45.404196,220.864057873404,6.7502440833333335,0.2124774166666666,-6.905516041666667,-0.1068141502220529,0.1682497398922533,0.1954768762233649,0.2382109549530075,4.330798183264169,-0.21005714268049225
1403636870001666560,50.208569,223.54898814848232,6.791105125,0.1797885833333333,-6.815621749999999,-0.1291543646475804,0.1110029404268393,0.1850049007113989,0.19033043603867725,4.175089605702703,-0.15570857756146594
1403636870051666432,49.707174,211.3936807402405,6.554111083333333,0.0326888333333333,-7.003582541666666,-0.1263618378443894,0.0300196631343024,0.2234021442552742,0.19619235999338655,4.035395558189879,-0.13969404751282433
1403636870101666560,50.078869,203.29129325006716,6.733899666666666,0.0081722083333333,-7.028099166666666,-0.1521927107739055,-0.0565486677646162,0.1940806128217694,0.1851119978135127,3.900174903070301,-0.1352206551195776
1403636870151666432,54.754495,198.2572588572462,6.848310583333333,-0.04903325,-7.167026708333333,-0.1877974275145898,-0.1026253600172665,0.153588974175501,0.2271097212069478,3.7303969265642367,-0.1697779765060643
1403636870201666560,48.393727,193.7983212330698,6.668522,-0.3105439166666667,-7.379504124999999,-0.1675516081914556,-0.0872664625997164,0.0621337213709981,0.24420044894338636,3.583291123397251,-0.14710580316698563
1403636870251666432,47.252893,195.82293607412555,6.71755525,-0.34323275,-7.085304625,-0.0809832772925368,-0.0104719755119659,0.1235693110411985,0.1970351567659334,3.477836593868959,-0.10545452952829226
1403636870301666560,49.654007,197.3752582516547,6.815621749999999,-0.367749375,-7.273265416666667,-0.064926248174189,0.1047197551196597,0.1556833692778942,0.12079246851262711,3.430465716065429,-0.047370877803529776
1403636870351666432,50.088644,198.91892532165963,6.594972124999999,-0.44129925,-6.897343833333333,-0.0956440430092892,0.1724385300970397,0.1752310569002306,0.09655033472623196,3.4399347270363765,0.009469010970947433
1403636870401666560,50.444365,192.49927473729923,6.464216791666666,-0.3595771666666666,-7.175198916666666,-0.1598721594826805,0.182212373908208,0.0621337213709981,0.09573889932839479,3.4235902040655275,-0.016344522970848985
1403636870451666432,60.385465,229.8826850158145,6.161845083333333,-1.9041245416666663,-7.216059958333333,-0.0418879020478639,-0.0160570291183478,0.2457423586808016,0.06533750689877889,3.4386318191564187,0.015041615090891192
1403636870501666560,42.692662,271.6250940796024,6.161845083333333,-1.9041245416666663,-7.216059958333333,-0.0418879020478639,-0.0160570291183478,0.2457423586808016,0.05480128532096082,3.468073095105187,0.02944127594876811
1403636870551666432,46.249151,203.0358009890217,6.464216791666666,-0.3105439166666667,-7.093476833333334,-0.0335103216382911,-0.0900589894029074,0.2750638901143063,0.07855865646226065,3.426756079291292,-0.04131701581389491
1403636870601666560,60.035467,188.44188572235976,6.627660958333332,-1.062387083333333,-7.167026708333333,-0.2010619298297467,-0.1186823891356144,0.1054178868204575,0.02121889486554186,3.4239649873436315,-0.0027910919476603624
1403636870651666432,44.055939,199.17196567095428,6.627660958333332,-1.062387083333333,-7.167026708333333,-0.2010619298297467,-0.1186823891356144,0.1054178868204575,0.09122333858674145,3.4956643648256036,0.07169937748197208
1403636870701666560,45.917749,213.2944309481257,6.9300326666666665,-0.9152873333333332,-7.453054,-0.1494001839707146,0.0376991118430775,0.1151917306316257,0.12858237091606547,3.610725664880121,0.11506130005451753
1403636870751666432,61.257363,345.8859018139128,5.859473375,-0.4985047083333333,-7.346815291666666,0.0642281164733913,0.2296853295624537,0.2478367537831947,0.06567276461944735,3.6606374538003417,0.04991178892022052
1403636870801666560,43.017387,361.496620119662,5.859473375,-0.4985047083333333,-7.346815291666666,0.0642281164733913,0.2296853295624537,0.2478367537831947,0.06100435571052303,3.6939914752072136,0.033354021406871937
1403636870851666432,56.021452,367.8325261384875,6.447872374999999,-0.6782932916666666,-7.542948291666666,0.0160570291183478,0.2366666465704311,0.0809832772925368,0.09180765009149809,3.748113067436302,0.0541215922290883
1403636870901666560,39.932251,452.3889708527011,6.447872374999999,-0.6782932916666666,-7.542948291666666,0.0160570291183478,0.2366666465704311,0.0809832772925368,0.05840420889711623,3.7936514920803215,0.04553842464401958
1403636870951666432,60.077906,502.4429958435493,6.774760708333333,-1.0869037083333333,-6.864654999999999,0.0663225115757845,0.0628318530717958,0.1438151303643327,0.1286472602785697,3.89536047289043,0.1017089808101086
1403636871001666560,39.891481,472.95956609882217,6.774760708333333,-1.0869037083333333,-6.864654999999999,0.0663225115757845,0.0628318530717958,0.1438151303643327,0.08639141718855804,3.8976277634321472,0.0022672905417171485
1403636871051666432,50.144672,324.7340369975525,6.627660958333332,-0.5475379583333333,-6.946377083333333,0.0642281164733913,-0.064926248174189,0.2450442269800038,0.1493882425356312,4.006600255599517,0.10897249216737004
1403636871101666560,50.064087,230.5610093881839,6.880999416666667,-0.318716125,-7.1588545,-0.0733038285837618,-0.1940806128217694,0.0991347015132779,0.10909177742035009,4.054583194101266,0.04798293850174851
1403636871151666432,49.142361,275.5115559869354,7.2487487916666655,-1.0705592916666666,-7.297782041666666,-0.1801179788058148,-0.2206096174520832,0.0404916386462684,0.09257261195928403,4.112285021507033,0.05770182740576679
1403636871201666560,50.907373,454.4929264707821,6.831966166666666,-1.005181625,-7.820803375,-0.124965574442794,-0.1424188669627373,0.1242674427419962,0.08734371459994272,4.159115628792178,0.04683060728514565
1403636871251666432,49.736023,333.4690741262364,7.01175475,-1.1767979999999998,-7.0689602083333325,-0.0712094334813686,-0.025830872929516,0.0802851455917391,0.09655304109547826,4.221269096603761,0.06215346781158271
1403636871301666560,60.137749,286.5025009668659,6.505077833333333,-1.2748645,-7.036271375,0.0237364778271228,0.0635299847725936,0.0048869219055841,0.0982559471836274,4.2887150000053325,0.06744590340157153
1403636871351666432,39.621353,263.9514391133761,6.505077833333333,-1.2748645,-7.036271375,0.0237364778271228,0.0635299847725936,0.0048869219055841,0.07010302210465932,4.339157337663179,0.05044233765784689
1403636871401666560,59.836865,246.54692299403,6.529594458333333,-1.1931424166666666,-7.085304625,0.0747000919853573,0.057246799465414,0.0,0.08830232770299094,4.397487436591944,0.05833009892876451
1403636871451666432,40.25197,234.59073022812763,6.529594458333333,-1.1931424166666666,-7.085304625,0.0747000919853573,0.057246799465414,0.0,0.11753672794514373,4.511305281853396,0.113817845261452
1403636871501666560,63.175917,224.900254587028,6.627660958333332,-1.0296982499999998,-7.175198916666666,0.0663225115757845,0.0048869219055841,0.0719075651821663,0.13028475766578657,4.628136198520668,0.11683091666727208
1403636871551666432,43.137788,224.42215411955496,6.627660958333332,-1.0296982499999998,-7.175198916666666,0.0663225115757845,0.0048869219055841,0.0719075651821663,0.1607611351191592,4.783127991041989,0.15499179252132134
1403636871601666560,55.10521,201.0412971896453,6.398839124999999,-0.907115125,-7.167026708333333,0.1459095254667259,-0.0356047167406843,0.0977384381116824,0.12989431440209234,4.896143542478079,0.11301555143608955
1403636871651666432,38.923502,177.05669662942225,6.398839124999999,-0.907115125,-7.167026708333333,0.1459095254667259,-0.0356047167406843,0.0977384381116824,0.13338465145369954,4.996762310470468,0.10061876799238956
1403636871701666560,50.544738,153.545348285364,6.905516041666667,-1.2421756666666668,-7.232404375,0.1780235837034216,-0.0356047167406843,0.0767944870877505,0.11372179567205769,5.1037406999615405,0.10697838949107208
1403636871751666432,59.797287,163.8760910228052,6.848310583333333,-0.6701210833333332,-6.799277333333333,0.1487020522699168,0.0020943951023931,0.0293215314335047,0.12229304473173844,5.214737074747095,0.11099637478555469
1403636871801666560,39.988757,168.8341741171249,6.848310583333333,-0.6701210833333332,-6.799277333333333,0.1487020522699168,0.0020943951023931,0.0293215314335047,0.12006514242032601,5.34527997484748,0.1305429001003846
1403636871851666432,49.660444,182.7631936069341,6.382494708333334,-0.7109821249999999,-7.003582541666666,0.0816814089933346,0.0265290046303138,-0.08307767239493,0.10587515794999117,5.461646814700728,0.11636683985324847
1403636871901666560,60.006618,191.88633020186384,6.840138375,-1.0215260416666667,-7.019926958333333,0.1668534764906579,0.1019272283164688,0.0223402144255274,0.12458133459319197,5.588593408645013,0.1269465939442851
1403636871951666432,49.77274,190.55345978075627,6.42335575,-0.6946377083333333,-6.61948875,0.2457423586808016,0.1577777643802873,0.0537561409614253,0.09623018651819464,5.681935139484329,0.09334173083931585
1403636872001666560,45.437574,201.67190537813,6.42335575,-0.6946377083333333,-6.61948875,0.2457423586808016,0.1577777643802873,0.0537561409614253,0.16840408699397544,5.81967789251919,0.1377427530348605
1403636872051666432,54.762364,207.1396765429293,6.840138375,-0.1797885833333333,-6.913688249999999,0.2171189589480945,0.122173047639603,-0.007679448708775,0.15931899182533124,5.964797176832801,0.1451192843136111
1403636872101666560,50.220489,227.73366395237207,6.554111083333333,-0.122583125,-6.872827208333333,0.1256637061435917,0.0788888821901436,-0.0097738438111682,0.15363874735597383,6.1117391500364775,0.14694197320367675
1403636872151666432,44.179678,237.575782097296,6.554111083333333,-0.122583125,-6.872827208333333,0.1256637061435917,0.0788888821901436,-0.0097738438111682,0.16376674062756313,6.248513324594604,0.13677417455812613
1403636872201666560,56.474447,227.3008588785694,6.848310583333333,-0.2860272916666666,-6.954549291666666,0.1584758960810851,-0.0893608577021096,-0.0195476876223364,0.11104632190290858,6.318332240163524,0.06981891556891995
1403636872251666432,38.799286,220.43996526751624,6.848310583333333,-0.2860272916666666,-6.954549291666666,0.1584758960810851,-0.0893608577021096,-0.0195476876223364,0.12390491517975732,6.37148587748985,0.05315363732632683
1403636872301666560,50.390482,219.67939619630852,6.578627708333332,-0.0817220833333333,-6.856482791666667,0.143116998663535,-0.1549852375770964,-0.0202458193231342,0.14177674760294426,6.371302411782819,-0.00018346570703098308
1403636872351666432,59.921026,239.39086437311485,6.815621749999999,0.3350605416666666,-6.995410333333333,0.1186823891356144,-0.1298524963483781,-0.0132645023151569,0.10099254465447281,6.406810205386643,0.0355077936038235
1403636872401666560,44.294358,273.6643479107719,6.815621749999999,0.3350605416666666,-6.995410333333333,0.1186823891356144,-0.1298524963483781,-0.0132645023151569,0.1358712328426635,6.402449528899552,-0.004360676487090487
1403636872451666432,45.727014,369.58098358112096,7.436709583333332,0.6864655000000001,-7.297782041666666,0.075398223686155,-0.0614355896702004,0.0041887902047863,0.11473243884736822,6.395317547347991,-0.0071319815515611396
1403636872501666560,50.157786,479.07337073111233,6.9300326666666665,0.6782932916666666,-7.363159708333333,0.0802851455917391,-0.0055850536063818,0.0216420827247296,0.19605134993904919,6.310794611124276,-0.0845229362237152
1403636872551666432,50.102949,665.7593718168758,7.10982125,0.7927042083333332,-7.330470875,0.0495673507566389,0.0495673507566389,0.0,0.23603923124750356,6.182479406110248,-0.1283152050140277
1403636872601666560,49.79229,890.4263472107278,6.807449541666666,0.53936575,-7.305954249999999,0.0712094334813686,0.1005309649148733,-0.0104719755119659,0.2538722750690632,6.029941631632661,-0.15253777447758754
1403636872651666432,60.158252,867.6532876099856,7.036271375,0.3759215833333333,-6.954549291666666,-0.0237364778271228,0.1061160185212552,-0.0090757121103705,0.2657029936452864,5.859823470294518,-0.1701181613381424
1403636872701666560,50.130129,765.7100995375608,6.701210833333333,0.24516625,-6.791105125,-0.0691150383789754,0.0579449311662117,0.0656243798749867,0.20122630932817762,5.716398372107892,-0.14342509818662652
1403636872751666432,49.476385,547.1060166296271,7.0689602083333325,0.4821602916666666,-6.807449541666666,-0.1165879940332212,-0.0118682389135614,0.0356047167406843,0.15160570334570234,5.599355953338487,-0.11704241876940458
1403636872801666560,40.173531,486.5225458838181,7.0689602083333325,0.4821602916666666,-6.807449541666666,-0.1165879940332212,-0.0118682389135614,0.0356047167406843,0.14913391900405795,5.4861096182131055,-0.11324633512538185
1403636872851666432,59.666395,374.9511357713896,6.782932916666666,0.784532,-6.774760708333333,-0.0893608577021096,-0.0328121899374933,0.161268422884276,0.13184188092151702,5.386231219112402,-0.09987839910070306
1403636872901666560,44.25025,311.4937313606459,6.782932916666666,0.784532,-6.774760708333333,-0.0893608577021096,-0.0328121899374933,0.161268422884276,0.11282876039637353,5.299053110087385,-0.08717810902501721
1403636872951666432,45.496464,268.90710776578527,6.995410333333333,0.8008764166666666,-6.970893708333333,-0.1438151303643327,-0.0069813170079773,0.1528908424747032,0.1195356211555512,5.203082452900684,-0.09597065718670095
1403636873001666560,50.232648,246.78122855525748,6.701210833333333,0.2941994999999999,-6.905516041666667,-0.1368338133563554,0.0167551608191455,0.1500983156715123,0.1373825827064412,5.110394645470867,-0.09268780742981697
1403636873051666432,54.959298,238.97645073315007,6.970893708333333,0.196133,-7.126165666666666,-0.1661553447898601,0.0460766922526503,0.132645023151569,0.08762590829607078,5.075285641108811,-0.035109004362055884
1403636873101666560,55.363416,228.8904531159618,6.913688249999999,0.0163444166666666,-7.10982125,-0.1165879940332212,-0.0132645023151569,0.1857030324121966,0.09301156551222656,5.019364471042348,-0.05592117006646369
1403636873151666432,39.3219,220.6088426206424,6.913688249999999,0.0163444166666666,-7.10982125,-0.1165879940332212,-0.0132645023151569,0.1857030324121966,0.07923509067440797,4.963625661800516,-0.05573880924183161
1403636873201666560,53.397417,207.4016070413808,6.766588499999999,-0.1634441666666666,-7.1588545,-0.1494001839707146,-0.0083775804095727,0.1877974275145898,0.07822809818905546,4.926721975422576,-0.03690368637793995
1403636873251666432,47.11461,194.14325675690733,6.537766666666666,-0.367749375,-7.028099166666666,-0.1438151303643327,-0.007679448708775,0.2045525883337354,0.12853093297393955,4.874007146425572,-0.052714828997004304
1403636873301666560,60.709715,184.96139732798704,6.513250041666667,-0.4576436666666666,-7.077132416666666,-0.1452113937659282,0.0020943951023931,0.1850049007113989,0.09723301643782756,4.836454708696361,-0.03755243772921091
1403636873351666432,48.998118,174.49247848427854,6.349805875,-0.6292600416666666,-7.134337875,-0.1305506280491758,0.0062831853071795,0.1738347934986352,0.141149304188613,4.791578794516678,-0.044875914179683285
1403636873401666560,51.49436,173.24770643925103,6.32528925,-0.980665,-7.077132416666666,-0.0879645943005142,-0.0020943951023931,0.2199114857512855,0.15510526299018576,4.756997485849547,-0.03458130866713027
1403636873451666432,48.469543,172.6978156910755,6.357978083333332,-0.7600153749999999,-7.2487487916666655,-0.1312487597499735,-0.0376991118430775,0.1186823891356144,0.1640917334883616,4.681820661921183,-0.07517682392836456
1403636873501666560,44.015169,164.74675354307078,6.357978083333332,-0.7600153749999999,-7.2487487916666655,-0.1312487597499735,-0.0376991118430775,0.1186823891356144,0.1491459269961767,4.659028982318159,-0.022791679603023418
1403636873551666432,45.39299,159.0211452020058,6.047434166666666,-1.1686257916666667,-7.265093208333333,-0.1947787445225671,-0.0586430628670094,0.1605702911834783,0.12824880593281582,4.641046400857281,-0.0179825814608785
1403636873601666560,50.65918,165.54105239062287,6.088295208333333,-1.250347875,-7.232404375,-0.1905899543177807,-0.0600393262686049,0.1654572130890624,0.10225580219249966,4.645034671739638,0.003988270882357092
1403636873651666432,59.926987,177.73478747804043,6.268083791666666,-1.4301364583333334,-7.444881791666666,-0.1158898623324234,-0.0635299847725936,0.1843067690106012,0.07752963449313349,4.6673087524407615,0.022274080701123466
1403636873701666560,39.959669,203.7627101782952,6.268083791666666,-1.4301364583333334,-7.444881791666666,-0.1158898623324234,-0.0635299847725936,0.1843067690106012,0.06163865965798773,4.706219509705801,0.038910757265039564
1403636873751666432,50.533056,247.1286259502508,6.080123,-1.6671305,-7.567464916666665,-0.0356047167406843,-0.0495673507566389,0.1319468914507713,0.054654586171974925,4.713752575511725,0.007533065805923833
1403636873801666560,59.497595,281.66983861390275,5.990228708333333,-1.9449855833333327,-7.469398416666666,-0.0132645023151569,0.018151424220741,0.1417207352619395,0.11281476216357585,4.680762117982752,-0.03299045752897278
1403636873851666432,40.48276,338.9654258376204,5.990228708333333,-1.9449855833333327,-7.469398416666666,-0.0132645023151569,0.018151424220741,0.1417207352619395,0.09091421646927349,4.64001532019566,-0.04074679778709189
1403636873901666560,50.03333,383.7056711240475,6.4887334166666655,-1.5445473749999998,-7.297782041666666,-0.0167551608191455,0.0342084533390888,0.1165879940332212,0.04056914597530654,4.6273627093035055,-0.012652610892154748
1403636873951666432,49.856186,440.59748884399175,6.341633666666666,-1.4301364583333334,-7.420365166666667,-0.0558505360638185,0.0705113017805709,0.1019272283164688,0.06945217535587127,4.682979883729773,0.0556171744262679
1403636874001666560,50.026179,536.0891102026465,6.5704555,-1.2912089166666665,-7.379504124999999,-0.0600393262686049,0.0509636141582344,0.1277581012459849,0.12032344040931958,4.7738432065508505,0.09086332282107712
1403636874051666432,50.192594,598.1202736821118,6.554111083333333,-1.2748645,-7.338643083333332,-0.0516617458590321,0.0335103216382911,0.1151917306316257,0.1677436090552542,4.899386183628497,0.1255429770776466
1403636874101666560,59.794903,529.4386021538159,6.578627708333332,-1.201314625,-7.641014791666667,0.0104719755119659,-0.0083775804095727,0.0970403064108847,0.09829725922274454,4.9731342262565414,0.07374804262804435
1403636874151666432,40.128946,462.8884048259754,6.578627708333332,-1.201314625,-7.641014791666667,0.0104719755119659,-0.0083775804095727,0.0970403064108847,0.07825380075952346,5.024164218091209,0.0510299918346675
1403636874201666560,49.53003,394.31778507016026,6.112811833333333,-1.3157255416666664,-7.477570624999999,0.0153588974175501,-0.0230383461263251,0.0300196631343024,0.05422645272799563,5.052980652283495,0.028816434192285634
1403636874251666432,50.764799,342.0828341423752,6.456044583333333,-1.4056198333333334,-7.428537374999999,0.025830872929516,-0.018151424220741,0.0586430628670094,0.06287639264247179,5.086936507972396,0.03395585568890169
1403636874301666560,49.119711,215.5161611600927,6.1209840416666665,-2.018535458333333,-7.305954249999999,0.093549647906896,-0.0342084533390888,-0.057246799465414,0.028982710983237646,5.106760187493433,0.019823679521036475
1403636874351666432,50.691604,184.5327309109072,6.22722275,-1.7325081666666666,-7.371331916666667,0.104021623418862,-0.0293215314335047,0.0383972435438752,0.07808573192898015,5.163980829941023,0.057220642447590286
1403636874401666560,49.4833,155.06928156856418,6.2599115833333325,-1.830574666666667,-7.363159708333333,0.1780235837034216,-0.0265290046303138,-0.0090757121103705,0.09377228301812197,5.223219564696388,0.059238734755364675
1403636874451666432,50.123214,154.53880679287366,6.1209840416666665,-1.52003075,-7.40402075,0.1549852375770964,0.018151424220741,0.0383972435438752,0.07518257617497313,5.2621763858442145,0.03895682114782684
1403636874501666560,49.711466,152.4879666426124,6.382494708333334,-1.046042666666667,-7.583809333333333,0.1130973355292325,0.0809832772925368,-0.0027925268031909,0.07409372786020813,5.307808438069928,0.04563205222571387
1403636874551666432,54.676294,156.59959839836552,6.194533916666667,-1.372931,-7.363159708333333,0.0684169066781777,0.1228711793404008,-0.0041887902047863,0.0829852635698508,5.3475862721926655,0.039777834122737055
1403636874601666560,55.241585,154.68566417142443,6.219050541666666,-1.1931424166666666,-7.289609833333333,0.1787217154042193,0.0844739357965255,0.0083775804095727,0.06167170654656825,5.364619047061544,0.017032774868878775
1403636874651666432,39.547444,154.56646629476637,6.219050541666666,-1.1931424166666666,-7.289609833333333,0.1787217154042193,0.0844739357965255,0.0083775804095727,0.10890801783787636,5.355012530029092,-0.009606517032452189
1403636874701666560,55.504799,160.3756487683443,6.3743225,-0.6047434166666666,-6.831966166666666,0.1710422666954443,0.0656243798749867,-0.0272271363311115,0.11473286677976782,5.387309411962147,0.03229688193305513
1403636874751666432,48.501014,163.2390784982352,6.472389,-0.5230213333333333,-6.970893708333333,0.1521927107739055,0.0328121899374933,0.0230383461263251,0.12677117699051726,5.427119667793066,0.03981025583091924
1403636874801666560,46.959877,168.111796158794,6.104639625,-0.392266,-6.856482791666667,0.1521927107739055,0.0125663706143591,-0.025830872929516,0.11559003216533657,5.471718868191274,0.044599200398207195
1403636874851666432,59.722901,171.92049887455357,6.6603497916666665,0.0163444166666666,-7.191543333333333,0.2052507200345331,-0.0446804288510548,0.0335103216382911,0.09516437979098122,5.498324304443163,0.026605436251889714
1403636874901666560,39.755106,186.6261234852438,6.6603497916666665,0.0163444166666666,-7.191543333333333,0.2052507200345331,-0.0446804288510548,0.0335103216382911,0.07321507191683188,5.490066320349077,-0.008257984094086623
1403636874951666432,50.629854,213.3390758406069,6.987238125,0.4739880833333333,-7.305954249999999,0.1410226035611418,-0.007679448708775,0.0809832772925368,0.05530382902213833,5.506928740828969,0.016862420479892393
1403636875001666560,49.732685,279.0058909581145,6.782932916666666,0.367749375,-7.191543333333333,0.1193805208364121,0.0837758040957278,0.0097738438111682,0.06586670113899772,5.485312006261807,-0.02161673456716251
1403636875051666432,50.254583,382.14025932231806,7.379504124999999,0.2941994999999999,-6.962721499999999,-0.0230383461263251,0.2352703831688356,0.140324471860344,0.0644880460478233,5.530768085163979,0.045456078902172514
1403636875101666560,59.794426,394.0000106969169,6.856482791666667,-0.4494714583333333,-7.265093208333333,-0.289026524130261,0.4293509959906051,0.3127630019573839,0.11785675656066331,5.625034350546316,0.09426626538233673
1403636875151666432,43.300867,350.8680849172697,6.856482791666667,-0.4494714583333333,-7.265093208333333,-0.289026524130261,0.4293509959906051,0.3127630019573839,0.09060567146266964,5.68427270040011,0.0592383498537945
1403636875201666560,46.828509,390.8193722537326,5.826784541666666,-0.2124774166666666,-6.987238125,-0.2624975194999471,0.4105014400690662,0.3127630019573839,0.11243457593406431,5.742338909331162,0.0580662089310513
1403636875251666432,60.155153,473.970066886308,6.112811833333333,-0.4739880833333333,-7.436709583333332,-0.3225368457685521,0.2220058808536787,0.48939032225921,0.09912416045102933,5.788029182898251,0.045690273567089434
1403636875301666560,43.84923,624.9671811306126,6.112811833333333,-0.4739880833333333,-7.436709583333332,-0.3225368457685521,0.2220058808536787,0.48939032225921,0.08014193355461643,5.810426419309384,0.022397236411133115
1403636875351666432,46.138763,683.1179005826779,7.199715541666666,-0.5802267916666666,-7.036271375,-0.2611012560983517,0.1123992038284348,0.5689773361501514,0.06932783756414686,5.820156473140465,0.009730053831081165
1403636875401666560,49.969197,656.925348464899,6.243567166666667,-0.2369940416666666,-7.559292708333333,-0.2066469834361286,0.0013962634015954,0.55710909723659,0.06275885103357573,5.815880999212649,-0.0042754739278167975
1403636875451666432,49.89624,492.7170794075088,6.276256,-0.2043052083333333,-7.681875833333333,-0.1291543646475804,-0.0397935069454707,0.4935791124639964,0.0987935611102283,5.798373467598376,-0.017507531614272764
1403636875501666560,49.747467,401.2831335163704,6.742071875,0.1470997499999999,-7.469398416666666,-0.0844739357965255,-0.1089085453244461,0.4342379178961891,0.19518061041986862,5.7535779005808525,-0.0447955670175233
1403636875551666432,59.99279,365.3561565332283,6.823793958333333,0.0817220833333333,-7.322298666666667,-0.057246799465414,-0.0949459113084915,0.3064798166502042,0.18341457120247906,5.693823565886086,-0.059754334694766875
1403636875601666560,44.456244,377.8381543602403,6.823793958333333,0.0817220833333333,-7.322298666666667,-0.057246799465414,-0.0949459113084915,0.3064798166502042,0.020511404324387462,5.696031851312594,0.0022082854265086382
1403636875651666432,45.570611,385.9026722431082,7.019926958333333,-0.1307553333333333,-7.044443583333333,-0.1291543646475804,-0.0111701072127637,0.3225368457685521,0.028164235278282372,5.687092334997867,-0.008939516314727669
1403636875701666560,60.833931,302.13536068746464,6.52142225,-0.7191543333333333,-6.840138375,-0.3106686068549906,0.1214749159388053,0.2904227875318564,0.02695590933807749,5.6922238183875,0.005131483389633651
1403636875751666432,42.687893,263.2724339854406,6.52142225,-0.7191543333333333,-6.840138375,-0.3106686068549906,0.1214749159388053,0.2904227875318564,0.07740451729381098,5.676635636153648,-0.015588182233852166
1403636875801666560,56.737423,249.87220152138488,7.077132416666666,-0.318716125,-6.7502440833333335,-0.3623303527140228,0.0223402144255274,0.2960078411382383,0.0899611303713066,5.6546780221203194,-0.021957614033328632
1403636875851666432,49.886942,205.64299266081647,7.232404375,-1.1522813749999998,-6.799277333333333,-0.3846705671395502,-0.0244346095279206,0.3351032163829112,0.08634701791260802,5.63904208648887,-0.01563593563144927
1403636875901666560,45.330048,182.8336583826033,7.232404375,-1.1522813749999998,-6.799277333333333,-0.3846705671395502,-0.0244346095279206,0.3351032163829112,0.07619307165415026,5.640145875110428,0.0011037886215579107
1403636875951666432,44.371605,167.79627570051778,7.518431666666666,-0.5148491249999999,-6.594972124999999,-0.4440117617073574,-0.0013962634015954,0.3518583772020568,0.07225038861825657,5.639170857018893,-0.0009750180915348849
1403636876001666560,49.836397,142.31210595609795,7.788114541666666,-0.8989429166666666,-6.684866416666666,-0.4475024202113461,0.08307767239493,0.4230678106834254,0.08969159569712215,5.6341327614443655,-0.005038095574527723
1403636876051666432,49.580336,124.44160848785349,7.918869874999999,-0.5311935416666667,-6.161845083333333,-0.5557128338349946,0.1647590813882647,0.3106686068549906,0.100352149264892,5.630114140250389,-0.004018621193976557
1403636876101666560,50.768852,122.41987096778536,7.886181041666666,-1.2421756666666668,-6.071950791666666,-0.5298819609054785,0.2282890661608583,0.3651228795172137,0.1092146167206966,5.608296600230613,-0.021817540019775983
1403636876151666432,49.500465,134.57751843100695,7.681875833333333,-1.1441091666666665,-5.6306515416666665,-0.4970697709679851,0.2380629099720265,0.335801348083709,0.14836511557235735,5.611356622053367,0.003060021822753889
1403636876201666560,50.473213,130.80343078029975,7.861664416666666,-1.32389775,-5.753234666666667,-0.4132939668722573,0.1773254520026238,0.3309144261781249,0.14666231923814116,5.6220870294971625,0.01073040744379572
1403636876251666432,59.75914,139.29258790606727,7.959730916666666,-1.3320699583333333,-5.459035166666666,-0.2932153143350474,-0.0013962634015954,0.2631956512007449,0.12718198863543262,5.634346365168573,0.012259335671410021
1403636876301666560,49.84808,153.34673305949914,7.665531416666666,-0.980665,-5.6715125833333335,-0.3099704751541929,-0.0383972435438752,0.2722713633111154,0.1226853091873963,5.628681304385717,-0.005665060782855669
1403636876351666432,49.867153,151.9067891001017,7.591981541666666,-1.103248125,-5.761406875,-0.2359685148696333,-0.0781907504893459,0.1891936909161853,0.09333734036734456,5.626608035739551,-0.002073268646165971
1403636876401666560,40.266037,142.62934993385662,7.591981541666666,-1.103248125,-5.761406875,-0.2359685148696333,-0.0781907504893459,0.1891936909161853,0.07997485933882653,5.64664506785527,0.020037032115719278
1403636876451666432,59.616804,132.5580975480562,7.559292708333333,-1.4709975,-6.562283291666667,-0.2331759880664424,0.0865683308989187,-0.0069813170079773,0.11125848994470691,5.680859897911055,0.03421483005578452
1403636876501666560,40.620566,140.6305759644564,7.559292708333333,-1.4709975,-6.562283291666667,-0.2331759880664424,0.0865683308989187,-0.0069813170079773,0.1708664633078326,5.789098736058537,0.10823883814748214
1403636876551666432,50.020218,166.59542455582366,7.518431666666666,-1.7570247916666666,-6.202706124999999,-0.1256637061435917,0.2275909344600605,0.0041887902047863,0.02864313804104705,5.796763707095136,0.0076649710365988
1403636876601666560,49.95656,206.0758746768616,7.935214291666666,-1.6671305,-6.693038625,-0.0565486677646162,0.2771582852166995,-0.1598721594826805,0.1207000670424963,5.903822403576086,0.10705869648095057
1403636876651666432,50.118685,240.4236446713597,6.464216791666666,-2.1166019583333333,-6.733899666666666,0.046774823953448,0.3106686068549906,-0.1500983156715123,0.08212769043051822,5.9647829592520045,0.06096055567591829
1403636876701666560,59.734344,186.35737773292965,6.32528925,-1.9286411666666663,-7.363159708333333,0.2617993877991494,0.1780235837034216,-0.1801179788058148,0.0513314407707553,5.971980177967888,0.007197218715883302
1403636876751666432,40.035486,179.9477169971572,6.32528925,-1.9286411666666663,-7.363159708333333,0.2617993877991494,0.1780235837034216,-0.1801179788058148,0.05779979250825205,5.952719066528186,-0.019261111439702105
1403636876801666560,55.555105,147.5077351264729,6.774760708333333,-2.3209071666666663,-6.840138375,0.2981022362406315,0.1521927107739055,-0.2904227875318564,0.13458253118606026,5.891288501940899,-0.061430564587286796
1403636876851666432,56.792975,153.1564926320073,6.32528925,-2.312734958333333,-6.823793958333333,0.4342379178961891,0.1815142422074102,-0.3302162944773272,0.05796879247929425,5.878800107138217,-0.01248839480268149
1403636876901666560,37.945747,147.34939308562926,6.32528925,-2.312734958333333,-6.823793958333333,0.4342379178961891,0.1815142422074102,-0.3302162944773272,0.06342922753096912,5.863314340293215,-0.01548576684500258
1403636876951666432,54.731608,163.37873094416634,6.357978083333332,-1.9940188333333333,-7.028099166666666,0.4977679026687828,0.1905899543177807,-0.3469714552964727,0.09561809755039302,5.8473298242120695,-0.015984516081145372
1403636877001666560,47.84441,172.78637420962832,6.635833166666666,-1.6834749166666665,-6.946377083333333,0.6108652381980153,0.1703441349946465,-0.3169517921621702,0.06125765550886655,5.8576964665324835,0.010366642320414066
1403636877051666432,46.418667,188.54189371290428,6.390666916666666,-1.9041245416666663,-7.265093208333333,0.6639232474586428,0.1193805208364121,-0.4237659423842232,0.1481664852226224,5.820827166126549,-0.03686930040593417
1403636877101666560,50.778389,198.39897483382444,7.060788,-1.3647587916666666,-7.117993458333333,0.7330382858376184,0.0921533845053006,-0.372104196525191,0.1530935425758742,5.855747391943094,0.03492022581654464
1403636877151666432,49.835681,190.4346755627317,6.415183541666666,-1.8224024583333327,-7.436709583333332,0.7630579489719208,0.0460766922526503,-0.5047492196767601,0.07975714722268247,5.83469769023789,-0.021049701705203816
1403636877201666560,49.901724,186.76068414181069,6.995410333333333,-1.3402421666666664,-7.0689602083333325,0.8042477193189871,0.0027925268031909,-0.3755948550291797,0.06285514986155029,5.783945373282989,-0.050752316954901566
1403636877251666432,60.138226,181.37261717901916,6.529594458333333,-0.9234595416666666,-7.232404375,0.7204719152232593,-0.0174532925199432,-0.3427826650916863,0.12510056664690522,5.665554928135337,-0.11839044514765185
1403636877301666560,39.957285,183.7749448261267,6.529594458333333,-0.9234595416666666,-7.232404375,0.7204719152232593,-0.0174532925199432,-0.3427826650916863,0.1539906231515887,5.51968114126072,-0.14587378687461694
1403636877351666432,49.427747,182.1628890880229,6.4887334166666655,-0.661948875,-7.681875833333333,0.7204719152232593,-0.0376991118430775,-0.4237659423842232,0.1611927548813567,5.389705685867539,-0.1299754553931809
1403636877401666560,50.73452,173.24784978529345,6.390666916666666,-0.563882375,-7.240576583333333,0.6799802765769908,-0.064926248174189,-0.3776892501315729,0.1486188914718408,5.268954666888557,-0.12075101897898222
1403636877451666432,59.631587,166.1322821557002,6.276256,-0.1879607916666666,-7.305954249999999,0.6080727113948244,-0.1570796326794896,-0.2645919146023404,0.09038612442311285,5.199350369038718,-0.06960429784983901
1403636877501666560,51.010847,159.0618867697063,6.251739374999999,0.1389275416666666,-7.273265416666667,0.5173155902911193,-0.1870992958137921,-0.1270599695451872,0.09274800546998876,5.126737880144754,-0.07261248889396388
1403636877551666432,49.110651,158.62216162730743,6.333461458333334,0.5066769166666666,-7.526603874999999,0.450294947014537,-0.2534218073895766,-0.0788888821901436,0.08469306729328362,5.074005229856004,-0.05273265028874974
1403636877601666560,40.150165,167.57444653350402,6.333461458333334,0.5066769166666666,-7.526603874999999,0.450294947014537,-0.2534218073895766,-0.0788888821901436,0.6233800414174996,4.666202734130737,-0.4078024957252673
1403636877651666432,61.031103,172.56967630588494,6.831966166666666,0.4821602916666666,-7.485742833333332,0.3420845333908886,-0.208043246837724,0.0956440430092892,0.09777006116894772,4.589745116469706,-0.07645761766103121
1403636877701666560,42.930603,201.760325485436,6.831966166666666,0.4821602916666666,-7.485742833333332,0.3420845333908886,-0.208043246837724,0.0956440430092892,0.070089928623726,4.600211230897556,0.010466114427850393
1403636877751666432,46.070576,222.91805853678716,6.603144333333333,0.0326888333333333,-7.469398416666666,0.2059488517353309,-0.1864011641129944,0.1340412865531645,0.0515550325495211,4.613370625685516,0.013159394787959577
1403636877801666560,61.022282,239.29966584833767,6.864654999999999,0.1389275416666666,-6.970893708333333,-0.0411897703470661,-0.1689478715930511,0.2911209192326541,0.09471617313620644,4.6442952055432825,0.030924579857766865
1403636877851666432,44.208526,262.7181564899777,6.864654999999999,0.1389275416666666,-6.970893708333333,-0.0411897703470661,-0.1689478715930511,0.2911209192326541,0.06339988395118064,4.630338447668626,-0.013956757874656667
1403636877901666560,44.762135,249.9743284967431,6.398839124999999,0.24516625,-6.913688249999999,-0.1528908424747032,-0.161268422884276,0.2401573050744197,0.08684565559032208,4.650458322206297,0.020119874537670945
1403636877951666432,49.431085,256.37649586020706,7.085304625,0.24516625,-6.880999416666667,-0.2569124658935653,-0.1787217154042193,0.2813470754214859,0.05165069473094157,4.693920658670398,0.043462336464100915
1403636878001666560,50.602198,271.61434944013536,6.52142225,0.2043052083333333,-7.085304625,-0.293913446035845,-0.1186823891356144,0.293913446035845,0.14240950389765156,4.726613808879142,0.03269315020874419
1403636878051666432,49.389839,292.93757058449813,7.40402075,0.8417374583333332,-6.554111083333333,-0.4125958351714595,-0.0733038285837618,0.2960078411382383,0.15110954699450052,4.7350299013956345,0.008416092516492668
1403636878101666560,50.486803,261.52846647894324,7.199715541666666,0.2860272916666666,-6.872827208333333,-0.432143522793796,0.0006981317007977,0.4105014400690662,0.214343625451986,4.689078600577052,-0.04595130081858212
1403636878151666432,59.715033,226.63070130618692,7.485742833333332,0.3105439166666667,-6.831966166666666,-0.4391248398017733,0.1130973355292325,0.4279547325890095,0.1325292317595425,4.6958221490479914,0.006743548470939054
1403636878201666560,40.352583,200.94960508678216,7.485742833333332,0.3105439166666667,-6.831966166666666,-0.4391248398017733,0.1130973355292325,0.4279547325890095,0.21501104514096117,4.737227366527465,0.04140521747947368
1403636878251666432,50.697803,183.6405233045496,7.077132416666666,0.4249548333333333,-6.284428208333333,-0.486597795456019,0.122173047639603,0.4314453910929983,0.3421048266230797,4.597816001517696,-0.13941136500976903
1403636878301666560,49.367667,168.48846595789874,7.869836625,0.0163444166666666,-6.586799916666666,-0.364424747816416,0.1333431548523667,0.5291838292046808,0.0840939470087757,4.600421628686031,0.002605627168335012
1403636878351666432,50.170898,149.17318400918572,7.395848541666666,-0.0817220833333333,-6.317117041666666,-0.3832743037379548,0.1438151303643327,0.5375614096142535,0.09064871109763067,4.602481626472003,0.002059997785972101
1403636878401666560,60.496807,139.24555871101882,7.706392458333333,-0.44129925,-6.300772625,-0.4656538444320871,0.1026253600172665,0.4907865856608055,0.08571210923257738,4.5605372458994315,-0.04194438057257166
1403636878451666432,49.272776,132.12771762368786,8.638024208333333,-0.63743225,-6.276256,-0.5054473513775578,0.1005309649148733,0.3707079331235955,0.1642815347195412,4.562878061473666,0.0023408155742341563
1403636878501666560,50.911665,125.60470274254864,7.992419749999999,-1.0869037083333333,-6.055606375,-0.4970697709679851,0.1061160185212552,0.4230678106834254,0.2131502049347892,4.582510659545385,0.01963259807171891
1403636878551666432,39.055586,121.3598728845858,7.992419749999999,-1.0869037083333333,-6.055606375,-0.4970697709679851,0.1061160185212552,0.4230678106834254,0.28064515080932745,4.645212350111035,0.06270169056565056
1403636878601666560,59.470653,122.0137958177128,7.739081291666666,-1.0869037083333333,-6.112811833333333,-0.4628613176288962,0.1417207352619395,0.3274237676741362,0.43331717162317995,4.819773827768866,0.17456147765783125
1403636878651666432,40.202141,124.8869170981095,7.739081291666666,-1.0869037083333333,-6.112811833333333,-0.4628613176288962,0.1417207352619395,0.3274237676741362,0.5470303667121458,5.128443103013844,0.308669275244978
1403636878701666560,50.124407,130.6020030003027,8.065969625,-1.1767979999999998,-6.063778583333333,-0.48939032225921,0.1494001839707146,0.2052507200345331,0.4275933380315508,5.39732816672074,0.2688850637068958
1403636878751666432,50.355673,141.38820768727123,7.469398416666666,-1.2666922916666667,-6.2599115833333325,-0.4195771521794367,0.1933824811209717,0.1480039205691191,0.245719495781394,5.5911323275790465,0.19380416085830632
1403636878801666560,50.104856,161.98787239917814,7.485742833333332,-1.397447625,-6.047434166666666,-0.3141592653589793,0.1884955592153876,0.2073451151369263,0.20618611706743087,5.735633019460634,0.14450069188158743
1403636878851666432,49.187899,183.52503450884785,7.101649041666666,-1.201314625,-6.137328458333333,-0.2373647782712288,0.132645023151569,0.1151917306316257,0.1866507006934297,5.88914925568278,0.1535162362221456
1403636878901666560,50.454378,191.29446382378197,6.6603497916666665,-1.2094868333333333,-6.3089448333333324,-0.1068141502220529,0.0684169066781777,0.179419847105017,0.1283568841169437,5.994826741411431,0.1056774857286511
1403636878951666432,49.975633,256.5165799099552,7.346815291666666,-1.985846625,-6.300772625,-0.0600393262686049,0.0237364778271228,0.1361356816555577,0.5527639299360526,6.1610444786120695,0.16621773720063882
1403636879001666560,60.100794,269.497488063553,7.60015375,-2.124774166666666,-6.701210833333333,0.0293215314335047,0.0202458193231342,0.1389282084587486,0.09279458594621035,6.22973697846289,0.06869249985082071
1403636879051666432,46.063185,252.55715404235156,7.60015375,-2.124774166666666,-6.701210833333333,0.0293215314335047,0.0202458193231342,0.1389282084587486,0.12838022376564392,6.335623252192875,0.10588627372998438
1403636879101666560,43.549538,168.4706860303363,7.10982125,-1.7325081666666666,-6.970893708333333,0.0446804288510548,0.1277581012459849,0.0684169066781777,0.0898381973480338,6.367876558315309,0.03225330612243482
1403636879151666432,63.072204,146.65075538165925,6.913688249999999,-1.936813375,-6.889171625,0.1172861257340189,0.3197443189653611,0.0125663706143591,0.17113808669914732,6.409651096814427,0.0417745384991175
1403636879201666560,48.518658,146.36534494468617,6.913688249999999,-1.936813375,-6.889171625,0.1172861257340189,0.3197443189653611,0.0125663706143591,0.1880314648227948,6.381655244004865,-0.027995852809562294
1403636879251666432,43.040752,149.3918680636788,6.815621749999999,-1.871435708333333,-6.856482791666667,0.1410226035611418,0.325329372571743,-0.0733038285837618,0.24896732921264403,6.320062321686739,-0.061592922318125964
1403636879301666560,46.478272,149.4239768019174,6.831966166666666,-1.830574666666667,-6.9300326666666665,0.1968731396249603,0.3120648702565861,-0.0628318530717958,0.27312481551593965,6.316162228108807,-0.0039000935779318624
1403636879351666432,60.418844,164.1840192106903,6.946377083333333,-1.7325081666666666,-6.823793958333333,0.3364994797845067,0.1933824811209717,-0.1787217154042193,0.30055843099678753,6.245329674522955,-0.07083255358585205
1403636879401666560,39.684296,178.97868519396337,6.946377083333333,-1.7325081666666666,-6.823793958333333,0.3364994797845067,0.1933824811209717,-0.1787217154042193,0.19655598272965874,6.186218245805319,-0.059111428717635306
1403636879451666432,60.374737,206.953933676831,6.905516041666667,-1.2340034583333332,-6.946377083333333,0.5033529562751646,0.0837758040957278,-0.2848377339254746,0.19824131358347877,6.121935779800883,-0.06428246600443632
1403636879501666560,42.970657,224.13861299094089,6.905516041666667,-1.2340034583333332,-6.946377083333333,0.5033529562751646,0.0837758040957278,-0.2848377339254746,0.23344140570980448,6.016688338728883,-0.10524744107199968
1403636879551666432,56.406736,217.87898082610548,6.987238125,-0.980665,-7.01175475,0.5270894341022875,-0.0265290046303138,-0.2115339053417127,0.17806229885706987,5.957904429357338,-0.05878390937154521
1403636879601666560,39.811135,216.20370118697957,6.987238125,-0.980665,-7.01175475,0.5270894341022875,-0.0265290046303138,-0.2115339053417127,0.1736114948258932,5.880811533866467,-0.07709289549087117
1403636879651666432,49.886703,202.8042489323928,6.758416291666666,-1.372931,-7.142510083333334,0.5403539364174444,-0.0209439510239319,-0.15079644737231,0.1038454145372749,5.878417539549576,-0.0023939943168906908
1403636879701666560,60.165882,196.7812311299104,6.71755525,-0.7927042083333332,-6.6603497916666665,0.5096361415823442,-0.0823795406941323,-0.0837758040957278,0.16668297633641846,5.8330096851085305,-0.04540785444104589
1403636879751666432,39.845944,194.5110693090365,6.71755525,-0.7927042083333332,-6.6603497916666665,0.5096361415823442,-0.0823795406941323,-0.0837758040957278,0.15856059971560432,5.747085323727671,-0.08592436138085979
1403636879801666560,50.221443,189.10856881556072,6.447872374999999,-0.5148491249999999,-7.150682291666666,0.4377285764001778,-0.1312487597499735,-0.1193805208364121,0.17819166762774963,5.659276821787921,-0.0878085019397501
1403636879851666432,49.903393,199.99342042661152,6.513250041666667,0.024516625,-6.684866416666666,0.3790855135331683,-0.1640609496874669,-0.0551524043630208,0.9272453509976637,5.827057597144471,0.16778077535655012
1403636879901666560,50.18115,197.4489598216505,6.472389,-0.0572054583333333,-7.485742833333332,0.2631956512007449,-0.1954768762233649,-0.0977384381116824,0.26134534875416865,5.772868264763187,-0.05418933238128343
1403636879951666432,50.041437,238.7205146057274,6.505077833333333,0.6047434166666666,-7.207887749999999,0.2268928027592628,-0.1857030324121966,0.0104719755119659,0.19912409179440915,5.755064173986811,-0.01780409077637657
1403636880001666560,50.144911,254.46996920555935,6.807449541666666,0.9234595416666666,-7.183371125,0.1500983156715123,-0.1780235837034216,-0.0118682389135614,0.18479125735108007,5.720942339548078,-0.03412183443873307
1403636880051666432,49.622536,306.87052028784376,7.060788,1.250347875,-7.003582541666666,0.1375319450571531,-0.1466076571675237,0.0216420827247296,0.15676754924887917,5.69039916294541,-0.030543176602667366
1403636880101666560,49.919605,310.2922162647784,7.183371125,1.4056198333333334,-7.134337875,0.0244346095279206,-0.0991347015132779,0.0586430628670094,0.15514855931581858,5.628889359046921,-0.061509803898489146
1403636880151666432,49.995184,388.5168403317796,7.273265416666667,1.3647587916666666,-6.693038625,-0.0446804288510548,-0.0432841654494593,0.0474729556542457,0.1390618031719579,5.562650881377249,-0.06623847766967206
1403636880201666560,60.157061,467.1400871906288,7.117993458333333,0.7927042083333332,-6.594972124999999,-0.3134611336581816,0.1256637061435917,0.2094395102393195,0.15873491000507903,5.517286968842416,-0.04536391253483263
1403636880251666432,42.917251,422.091586012949,7.117993458333333,0.7927042083333332,-6.594972124999999,-0.3134611336581816,0.1256637061435917,0.2094395102393195,0.16876945805178303,5.409603879652601,-0.10768308918981528
1403636880301666560,46.940565,349.7074205531626,7.305954249999999,0.1552719583333333,-6.407011333333333,-0.4419173666049642,0.153588974175501,0.2974041045398337,0.0982853681592301,5.354452671330576,-0.055151208322024914
1403636880351666432,49.790621,298.55910376395326,7.763597916666666,0.1470997499999999,-6.447872374999999,-0.4977679026687828,0.1696460032938488,0.3197443189653611,0.08324446219035896,5.303136100771982,-0.051316570558594066
1403636880401666560,60.157061,279.57778966729944,7.681875833333333,-0.8744262916666666,-6.733899666666666,-0.5801474433629151,0.1696460032938488,0.3337069529813158,0.11883183249467937,5.222210256308349,-0.08092584446363293
1403636880451666432,39.634943,276.4966690964606,7.681875833333333,-0.8744262916666666,-6.733899666666666,-0.5801474433629151,0.1696460032938488,0.3337069529813158,0.07858777941048836,5.181892086856964,-0.040318169451385444
1403636880501666560,50.302505,303.0240322785488,7.273265416666667,-1.6344416666666666,-6.505077833333333,-0.4984660343695805,0.1389282084587486,0.2834414705238791,0.11336652554177669,5.1325066275807485,-0.04938545927621529
1403636880551666432,49.873829,335.92961918286846,7.469398416666666,-1.6017528333333333,-6.341633666666666,-0.5187118536927147,0.0837758040957278,0.3197443189653611,0.04006773106603758,5.131444860570179,-0.001061767010569703
1403636880601666560,50.1647,344.81163264004283,7.093476833333334,-1.9041245416666663,-6.03108975,-0.382576172037157,-0.0111701072127637,0.2254965393576673,0.05604826427220629,5.173757242291039,0.04231238172086016
1403636880651666432,49.724578,290.81827336319924,7.534776083333333,-2.1492907916666666,-6.104639625,-0.3162536604613725,-0.1019272283164688,0.2429498318776106,0.08602612089980978,5.249618878079086,0.07586163578804683
1403636880701666560,50.228358,280.6049667139351,7.085304625,-1.8632635,-5.736890249999999,-0.1710422666954443,-0.1675516081914556,0.1919862177193762,0.09736783916689205,5.346728486172244,0.0971096080931586
1403636880751666432,59.735775,390.1474056287913,7.477570624999999,-1.6099250416666664,-5.524412833333333,0.0244346095279206,-0.1284562329467826,0.1361356816555577,0.1425416027619424,5.473530334745216,0.1268018485729714
1403636880801666560,40.179968,387.1649972678009,7.477570624999999,-1.6099250416666664,-5.524412833333333,0.0244346095279206,-0.1284562329467826,0.1361356816555577,0.14921926846443656,5.599720220043328,0.12618988529811226
1403636880851666432,60.820341,277.27983305261483,7.976075333333333,-1.4301364583333334,-5.410001916666666,0.2373647782712288,0.0223402144255274,0.0244346095279206,0.13723168003105574,5.714569530548658,0.11484931050533032
1403636880901666560,48.707008,247.15995618138737,8.164036124999999,-0.93163175,-5.213868916666666,0.2548180707911721,0.1291543646475804,-0.0160570291183478,0.17867538836777325,5.8528603112036794,0.1382907806550211
1403636880951666432,39.629936,245.4861387909428,8.164036124999999,-0.93163175,-5.213868916666666,0.2548180707911721,0.1291543646475804,-0.0160570291183478,0.21593209476712094,6.016492741001112,0.16363242979743298
1403636881001666560,50.611258,258.0153603067202,8.458235625,-0.784532,-5.385485291666667,0.2520255439879811,0.2143264321449036,-0.0781907504893459,0.21068651082203643,6.163417331142528,0.146924590141416
1403636881051666432,49.675941,255.17381525545744,7.951558708333333,-0.6782932916666666,-5.189352291666666,0.2764601535159017,0.2708750999095199,-0.1291543646475804,0.16062673881401646,6.276190004449626,0.11277267330709773
1403636881101666560,60.497523,249.442795280962,8.245758208333333,-0.3268883333333333,-5.279246583333333,0.4237659423842232,0.2157226955464991,-0.1668534764906579,0.11884205627693631,6.36046490221293,0.08427489776330344
1403636881151666432,49.474716,261.3250974959948,8.302963666666667,-0.1144109166666666,-5.295591,0.507541746479951,0.1661553447898601,-0.1689478715930511,0.0884799130303782,6.378235327936631,0.017770425723701244
1403636881201666560,40.636063,267.0097386461163,8.302963666666667,-0.1144109166666666,-5.295591,0.507541746479951,0.1661553447898601,-0.1689478715930511,0.153747572808407,6.400547230938739,0.022311903002107947
1403636881251666432,49.454927,286.4832360667846,8.450063416666666,0.3023717083333333,-5.311935416666666,0.5417501998190398,0.1123992038284348,-0.1864011641129944,0.11263598975666353,6.3979818366915575,-0.002565394247181274
1403636881301666560,61.178923,334.08134652524546,8.294791458333332,0.563882375,-5.107630208333333,0.3769911184307752,0.057246799465414,-0.2436479635784084,0.14135411232874506,6.330224259867129,-0.06775757682442851
1403636881351666432,38.838386,415.6503549466416,8.294791458333332,0.563882375,-5.107630208333333,0.3769911184307752,0.057246799465414,-0.2436479635784084,0.1614366587407746,6.238015199226082,-0.09220906064104728
1403636881401666560,60.365677,535.9947386362613,7.976075333333333,0.907115125,-5.123974625,0.1710422666954443,0.0774926187885482,-0.2562143341927675,0.16709625793047733,6.131335266684871,-0.10667993254121111
1403636881451666432,44.251919,455.1381458683609,7.976075333333333,0.907115125,-5.123974625,0.1710422666954443,0.0774926187885482,-0.2562143341927675,0.1313724937357197,6.050226351564854,-0.08110891512001661
1403636881501666560,50.12083,418.5598935693746,8.5317855,1.3647587916666666,-5.54075725,0.0921533845053006,0.1298524963483781,-0.1738347934986352,0.15879114655755536,6.030415598484855,-0.01981075307999891
1403636881551666432,45.711279,391.9976901724195,7.477570624999999,0.8744262916666666,-5.410001916666666,0.0446804288510548,0.1514945790731078,-0.2750638901143063,0.19159921537825475,5.964515536595304,-0.06590006188955133
1403636881601666560,59.672356,384.2776172928325,7.240576583333333,1.103248125,-5.589790499999999,0.0593411945678072,0.0963421747100869,-0.2199114857512855,0.16718154928051246,5.922532380302072,-0.041983156293231794
1403636881651666432,40.228844,409.0153657027871,7.240576583333333,1.103248125,-5.589790499999999,0.0593411945678072,0.0963421747100869,-0.2199114857512855,0.14586464023804596,5.853463277240515,-0.06906910306155734
1403636881701666560,50.253391,419.91389475195257,7.763597916666666,1.1686257916666667,-5.638823749999999,-0.0139626340159546,0.0628318530717958,-0.1298524963483781,0.10718929120268099,5.783201447522734,-0.07026182971778105
1403636881751666432,49.949407,384.4714890180742,7.518431666666666,0.784532,-5.704201416666666,-0.0118682389135614,-0.0244346095279206,-0.0851720674973232,0.1411709108669565,5.663220913363823,-0.11998053415891086
1403636881801666560,49.989462,332.86306368584,7.40402075,0.2860272916666666,-6.055606375,-0.1375319450571531,-0.0307177948351002,-0.025830872929516,0.12898703620268603,5.573418695756112,-0.08980221760771112
1403636881851666432,49.316168,317.82743954470226,7.2487487916666655,0.5311935416666667,-6.300772625,-0.1605702911834783,-0.0195476876223364,0.1354375499547599,0.10054154751610989,5.5006108445856405,-0.07280785117047106
1403636881901666560,60.763836,311.2741349795858,7.060788,0.3023717083333333,-6.742071875,-0.1668534764906579,-0.0404916386462684,0.2310815929640492,0.09487017671426558,5.453333943182772,-0.04727690140286889
1403636881951666432,38.819313,308.8871571271121,7.060788,0.3023717083333333,-6.742071875,-0.1668534764906579,-0.0404916386462684,0.2310815929640492,0.12567405658896857,5.376689479447416,-0.07664446373535583
1403636882001666560,60.902357,298.6240915690101,6.799277333333333,-0.1797885833333333,-6.840138375,-0.1745329251994329,0.0356047167406843,0.247138622082397,0.10089117557345025,5.3552357358438165,-0.021453743603599307
1403636882051666432,44.252157,295.37545775047084,6.799277333333333,-0.1797885833333333,-6.840138375,-0.1745329251994329,0.0356047167406843,0.247138622082397,0.08411586843231181,5.369014851299259,0.013779115455442081
1403636882101666560,45.538903,293.47494549164674,6.668522,-0.5883989999999999,-6.594972124999999,-0.1801179788058148,0.0516617458590321,0.2722713633111154,0.059079182064709426,5.353994459016068,-0.015020392283190631
1403636882151666432,60.064792,306.25133539947683,6.889171625,-1.2666922916666667,-6.627660958333332,-0.2303834612632515,0.1054178868204575,0.2059488517353309,0.0737015679252602,5.356869998898134,0.002875539882065681
1403636882201666560,45.344592,285.4519347461143,6.889171625,-1.2666922916666667,-6.627660958333332,-0.2303834612632515,0.1054178868204575,0.2059488517353309,0.07934841946929395,5.419062160555371,0.0621921616572374
1403636882251666432,45.048952,328.64644538311063,7.265093208333333,-1.7815414166666663,-6.815621749999999,-0.2171189589480945,0.1389282084587486,0.1445132620651305,0.08158346821568357,5.481211685396979,0.062149524841608184
1403636882301666560,59.942007,389.6647846971893,7.755425708333333,-1.9286411666666663,-6.096467416666667,-0.0104719755119659,0.1396263401595463,0.1500983156715123,0.07849804832334242,5.5383203324198815,0.057108647022902304
1403636882351666432,49.737453,418.7636402973423,7.804458958333332,-1.846919083333333,-5.581618291666667,0.0684169066781777,0.0970403064108847,0.0509636141582344,0.08928913300487583,5.62044230609327,0.08212197367338803
1403636882401666560,39.700985,383.0919995874178,7.804458958333332,-1.846919083333333,-5.581618291666667,0.0684169066781777,0.0970403064108847,0.0509636141582344,0.07229306875887913,5.656092078710788,0.03564977261751867
1403636882451666432,60.323,374.63372071085394,8.711574083333332,-1.3320699583333333,-4.690847583333333,0.2045525883337354,0.0705113017805709,0.0712094334813686,0.06100669249632666,5.690259112969556,0.03416703425876744
1403636882501666560,45.336247,366.9223071336955,8.711574083333332,-1.3320699583333333,-4.690847583333333,0.2045525883337354,0.0705113017805709,0.0712094334813686,0.09609121952900627,5.77531744830827,0.08505833533871421
1403636882551666432,44.186592,337.82295928437014,8.850501625,-1.201314625,-4.674503166666667,0.2925171826342496,0.1054178868204575,0.1005309649148733,0.10511011453363153,5.868682937768945,0.09336548946067502
1403636882601666560,49.827575,298.73536660804524,9.250939833333334,-0.7518431666666666,-4.200515083333333,0.228987197861656,0.1891936909161853,0.0013962634015954,0.053991013225938196,5.920378394881638,0.05169545711269308
1403636882651666432,49.801827,277.0999206520788,9.218251,-0.7927042083333332,-4.004382083333333,0.2638937829015426,0.3274237676741362,0.0097738438111682,0.07437318587608095,5.979551885272265,0.05917349039062714
1403636882701666560,50.397396,246.8199958896056,8.915879291666666,-0.7436709583333333,-4.020726499999999,0.3385938748868999,0.5033529562751646,-0.0013962634015954,0.06489142283840331,6.033738879512333,0.054186994240067676
1403636882751666432,49.965382,252.1648317412617,8.719746291666667,-0.3268883333333333,-3.669321541666666,0.481710873550435,0.6024876577884426,-0.0356047167406843,0.08386176875977658,6.088764795945213,0.05502591643288035
1403636882801666560,50.139665,266.0962532629372,8.425546791666665,-0.4004382083333333,-3.947176625,0.4740314248416599,0.6366961111275314,-0.1207767842380075,0.0905419042240396,6.1484821107580325,0.05971731481281939
1403636882851666432,49.84498,306.2215981738991,8.131347291666666,-0.196133,-3.734699208333333,0.5166174585903216,0.6003932626860493,-0.1256637061435917,0.06597292599245531,6.2014046272904935,0.05292251653246094
1403636882901666560,60.646534,320.3936926261242,8.368341333333333,-0.4004382083333333,-3.9144877916666654,0.5319763560078716,0.2708750999095199,-0.0593411945678072,0.08962208109203412,6.266353352061989,0.06494872477149549
1403636882951666432,42.637587,326.18850096302367,8.368341333333333,-0.4004382083333333,-3.9144877916666654,0.5319763560078716,0.2708750999095199,-0.0593411945678072,0.07909420396991547,6.3173162287073215,0.0509628766453325
1403636883001666560,46.910524,300.1354095144614,8.613507583333332,-0.7109821249999999,-4.028898708333333,0.4928809807631986,0.1019272283164688,-0.0781907504893459,0.0814841408661377,6.3556388804418855,0.03832265173456406
1403636883051666432,60.071945,320.1196321982295,9.013945791666666,-0.5557101666666666,-4.2822371666666665,0.3239331091701475,0.0356047167406843,-0.1137954672300302,0.07002850760308534,6.412594448054112,0.056955567612226865
1403636883101666560,44.97552,369.5693897827818,9.013945791666666,-0.5557101666666666,-4.2822371666666665,0.3239331091701475,0.0356047167406843,-0.1137954672300302,0.04764658241040676,6.454059478951805,0.041465030897692934
1403636883151666432,54.874897,381.29273563785455,8.940395916666665,-0.5311935416666667,-4.069759749999999,0.1542871058762987,0.1759291886010284,-0.1752310569002306,0.054689791095207156,6.49493262351645,0.04087314456464508
1403636883201666560,39.810657,423.0740108727418,8.940395916666665,-0.5311935416666667,-4.069759749999999,0.1542871058762987,0.1759291886010284,-0.1752310569002306,0.054840033867389185,6.510237656227607,0.015305032711157018
1403636883251666432,50.176859,407.8512125999106,9.193734375,-0.3759215833333333,-3.9880376666666666,0.1452113937659282,0.1884955592153876,-0.1389282084587486,0.05258184588134236,6.558683313756989,0.048445657529381236
1403636883301666560,50.432682,436.98136051933767,9.242767625,-0.2369940416666666,-4.249548333333333,0.1843067690106012,0.1836086373098034,0.0013962634015954,0.024974627744039208,6.571131019646092,0.012447705889103489
1403636883351666432,49.740791,491.00597840890464,9.618689208333333,-0.0898942916666666,-3.8899711666666654,0.1193805208364121,0.1228711793404008,0.0006981317007977,0.02301517939172367,6.569342241186529,-0.0017887784595629341
1403636883401666560,50.438643,492.0248414255538,9.536967125,-0.3268883333333333,-3.9390044166666662,0.1473057888683213,0.1033234917180643,0.0907571211037051,0.034216000533325706,6.555261010153821,-0.01408123103270853
1403636883451666432,59.640646,543.7496857665416,9.749444541666666,-0.196133,-3.759215833333333,0.1570796326794896,0.1919862177193762,0.0265290046303138,0.04586113913418098,6.544942366962079,-0.010318643191741472
1403636883501666560,40.155172,509.0287966359356,9.749444541666666,-0.196133,-3.759215833333333,0.1570796326794896,0.1919862177193762,0.0265290046303138,0.03061085732742411,6.535702223275214,-0.00924014368686521
1403636883551666432,50.132036,478.0874392006217,9.177389958333332,-0.8172208333333333,-3.3751220416666667,0.1340412865531645,0.239459173373622,-0.0335103216382911,0.03611494536799479,6.519569232805833,-0.016132990469380992
1403636883601666560,59.53908,516.598183406041,9.234595416666666,-0.6782932916666666,-3.260711125,0.1870992958137921,0.132645023151569,0.0488692190558412,0.013986014026790653,6.506178444908807,-0.01339078789702608
1403636883651666432,40.163517,503.1366725462548,9.234595416666666,-0.6782932916666666,-3.260711125,0.1870992958137921,0.132645023151569,0.0488692190558412,0.018151738040250737,6.502836738661949,-0.003341706246858145
1403636883701666560,50.395012,537.4038431600073,9.667722458333332,-0.220649625,-3.358777625,0.1096066770252439,0.0411897703470661,-0.104021623418862,0.03581872709617889,6.499493486070023,-0.003343252591926138
1403636883751666432,49.514532,585.8995032992003,9.389867375,-0.2860272916666666,-3.1544724166666662,0.1103048087260416,0.0300196631343024,0.0663225115757845,0.03979874337778827,6.500729193585239,0.001235707515216511
1403636883801666560,55.312395,571.832471229665,8.809640583333332,-0.4249548333333333,-3.015544875,0.0593411945678072,0.0237364778271228,0.0307177948351002,0.042617550886769454,6.499735933760327,-0.0009932598249120517
1403636883851666432,48.387051,588.9976193780163,9.471589458333332,-0.220649625,-3.18716125,0.1563815009786919,0.0642281164733913,0.2366666465704311,0.01405889385719707,6.491207853354163,-0.008528080406164484
1403636883901666560,56.569576,572.6244853185045,9.471589458333332,-0.4249548333333333,-3.0073726666666665,0.0376991118430775,0.0432841654494593,0.0418879020478639,0.030802776314785726,6.490648827755718,-0.0005590255984442294
1403636883951666432,39.940119,594.0316266707489,9.471589458333332,-0.4249548333333333,-3.0073726666666665,0.0376991118430775,0.0432841654494593,0.0418879020478639,0.041764887342982705,6.490136484153605,-0.0005123436021134964
1403636884001666560,50.266504,536.6340292090156,12.470789916666666,-0.5883989999999999,-4.584608875,0.0733038285837618,0.171740398396242,0.1061160185212552,0.01475285174133983,6.486262872477126,-0.0038736116764788164
1403636884051666432,59.686661,540.1588224151232,8.9240515,-0.0408610416666666,-2.8357562916666668,0.1158898623324234,0.1110029404268393,0.1347394182539622,0.0424690951319531,6.461273022815149,-0.024989849661976926
1403636884101666560,50.219059,475.7636253309424,9.643205833333331,-0.8825985,-2.803067458333333,-0.1417207352619395,0.0677187749773799,-0.2792526803190927,0.022594854161744175,6.456011156929612,-0.005261865885537453
1403636884151666432,39.794207,605.181407906332,9.643205833333331,-0.8825985,-2.803067458333333,-0.1417207352619395,0.0677187749773799,-0.2792526803190927,0.031735468279383,6.457986064598933,0.001974907669321624
1403636884201666560,60.397148,644.1464845214325,9.112012291666666,-0.0735498749999999,-2.288218333333333,-0.028623399732707,0.1780235837034216,0.0202458193231342,0.03678495548403985,6.47792607020823,0.019940005609297096
1403636884251666432,40.339946,571.2619504525361,9.112012291666666,-0.0735498749999999,-2.288218333333333,-0.028623399732707,0.1780235837034216,0.0202458193231342,0.026874584675038955,6.486777341977515,0.008851271769284352
1403636884301666560,59.498072,576.76861068447,9.177389958333332,0.1634441666666666,-2.9583394166666666,0.0202458193231342,0.0446804288510548,0.1019272283164688,0.03055712856042124,6.490171372280824,0.0033940303033093144
1403636884351666432,39.993763,659.7786275301468,9.177389958333332,0.1634441666666666,-2.9583394166666666,0.0202458193231342,0.0446804288510548,0.1019272283164688,0.01211069560352555,6.484596213446165,-0.0055751588346586445
1403636884401666560,49.53146,654.029337503673,9.422556208333331,-0.5148491249999999,-2.427145875,0.0055850536063818,0.0223402144255274,0.0907571211037051,0.01699400268776713,6.479943536198024,-0.004652677248141224
1403636884451666432,60.029268,652.5352850285539,8.719746291666667,-0.04903325,-2.3699404166666667,0.0,0.0509636141582344,0.1019272283164688,0.008859601180184688,6.484335284079931,0.00439174788190666
1403636884501666560,40.418863,650.2537799191077,8.719746291666667,-0.04903325,-2.3699404166666667,0.0,0.0509636141582344,0.1019272283164688,0.006421817224993215,6.483175388666431,-0.001159895413500145
1403636884551666432,60.8809,656.0062382537715,9.635033625,-0.34323275,-2.623278875,0.0111701072127637,0.0439822971502571,0.0928515162060983,0.01132860049143279,6.480568351065368,-0.002607037601062956
1403636884601666560,45.506,657.7972715543225,9.316317499999998,-0.122583125,-2.533384583333333,0.007679448708775,0.0481710873550434,0.0963421747100869,0.009995962823683443,6.479804640593691,-0.0007637104716771148
1403636884651666432,43.282748,658.4919641284285,10.198916,-0.4739880833333333,-2.7622064166666664,0.0069813170079773,0.0132645023151569,0.0823795406941323,0.008964573891710027,6.478469548002439,-0.001335092591252085
1403636884701666560,60.492754,652.0357275298526,9.332661916666666,-0.1634441666666666,-2.4925235416666665,0.0167551608191455,-0.007679448708775,0.0970403064108847,0.009703200195951164,6.474798058053813,-0.003671489948625428
1403636884751666432,49.796343,661.8354013410972,9.438900625,-0.6292600416666666,-2.655967708333333,-0.0062831853071795,0.0272271363311115,0.0502654824574366,0.014751157204662756,6.473966750370947,-0.0008313076828665444
1403636884801666560,40.14182,660.4479242879949,9.438900625,-0.6292600416666666,-2.655967708333333,-0.0062831853071795,0.0272271363311115,0.0502654824574366,0.01063992961864469,6.466772593794509,-0.007194156576437294
1403636884851666432,50.846816,663.3585911434802,9.528794916666666,-0.3595771666666666,-2.557901208333333,0.0160570291183478,0.025830872929516,0.1026253600172665,0.01135351435781474,6.461684563523264,-0.005088030271245714
1403636884901666560,61.0466,659.961374818844,9.357178541666666,-0.612915625,-2.508867958333333,0.0125663706143591,0.0069813170079773,0.1026253600172665,0.005225876267822653,6.457632426865595,-0.004052136657668903
1403636884951666432,38.489818,661.8470032723071,9.357178541666666,-0.612915625,-2.508867958333333,0.0125663706143591,0.0069813170079773,0.1026253600172665,0.008667505706250762,6.452605739779131,-0.005026687086463255
1403636885001666560,50.043107,661.7255517894644,9.422556208333331,-0.2941994999999999,-2.533384583333333,-0.0027925268031909,0.0188495559215387,0.0579449311662117,0.008603664529628458,6.445770442048812,-0.006835297730319212
1403636885051666432,55.125236,662.3375693650842,9.422556208333331,-0.5883989999999999,-2.5660734166666663,-0.0020943951023931,0.0237364778271228,0.0816814089933346,0.003986281884887194,6.445720822200893,-4.9619847919402105e-05
1403636885101666560,44.843912,664.231494167265,9.528794916666666,-0.2288218333333333,-2.606934458333333,0.0,0.0244346095279206,0.0823795406941323,0.013639250513627119,6.43568103705459,-0.010039785146302549
1403636885151666432,49.966097,663.9557662712816,9.414383999999998,-0.4576436666666666,-2.557901208333333,-0.0090757121103705,0.0125663706143591,0.0719075651821663,0.006746474746507441,6.431220540309554,-0.004460496745036124
1403636885201666560,55.193424,666.6721872130141,9.438900625,-0.4004382083333333,-2.655967708333333,0.0041887902047863,0.0209439510239319,0.0893608577021096,0.006424362398012794,6.426975949845873,-0.004244590463681419
1403636885251666432,44.711352,665.3708687994763,9.26728425,-0.3840937916666667,-2.4516625,-0.0083775804095727,0.0139626340159546,0.0607374579694026,0.002779150622447241,6.42581525096933,-0.0011606988765429094
1403636885301666560,60.179948,666.1469847752022,9.308145291666667,-0.3268883333333333,-2.476179125,-0.0055850536063818,0.0209439510239319,0.0823795406941323,0.005915117733321705,6.422155674677568,-0.0036595762917617236
1403636885351666432,39.920092,667.7684719489899,9.308145291666667,-0.3268883333333333,-2.476179125,-0.0055850536063818,0.0209439510239319,0.0823795406941323,0.009006681769265723,6.418183425316444,-0.003972249361123836
1403636885401666560,49.589157,666.7162092290238,9.46341725,-0.4739880833333333,-2.672312125,-0.0069813170079773,0.0160570291183478,0.0712094334813686,0.0070730456747851115,6.4148569524567005,-0.0033264728597437454
1403636885451666432,49.909592,665.697964550383,9.56148375,-0.3595771666666666,-2.5905900416666663,-0.0034906585039886,0.0237364778271228,0.0719075651821663,0.007215978290743784,6.411946749320505,-0.0029102031361958325
1403636885501666560,55.91917,666.4248085955182,9.46341725,-0.3759215833333333,-2.5660734166666663,-0.0034906585039886,0.0195476876223364,0.0774926187885482,0.01027535255524542,6.403977304756473,-0.007969444564031924
1403636885551666432,43.740273,666.9478779069863,9.438900625,-0.4331270416666666,-2.5415567916666664,-0.0041887902047863,0.0146607657167523,0.0767944870877505,0.003681263898951074,6.405219356963487,0.0012420522070142326
1403636885601666560,60.842514,664.8847348219018,9.422556208333331,-0.4576436666666666,-2.525212375,-0.0027925268031909,0.0174532925199432,0.0656243798749867,0.012539077517800964,6.4055155487437005,0.00029619178021356163
1403636885651666432,49.20721,665.4693021571304,9.471589458333332,-0.392266,-2.582417833333333,0.0013962634015954,0.0153588974175501,0.0921533845053006,0.007208703222677116,6.408532005567524,0.0030164568238237877
1403636885701666560,52.558661,666.2264231226624,9.455245041666666,-0.3840937916666667,-2.6151066666666667,-0.0041887902047863,0.0293215314335047,0.0607374579694026,0.004535599115061911,6.406516503386797,-0.0020155021807273243
1403636885751666432,47.456503,664.990916185649,9.528794916666666,-0.4004382083333333,-2.5170401666666664,-0.0027925268031909,0.0153588974175501,0.085870199198121,0.0010602598396366725,6.406061362307888,-0.0004551410789090937
1403636885801666560,45.237064,665.5327134786253,9.528794916666666,-0.4004382083333333,-2.5170401666666664,-0.0027925268031909,0.0153588974175501,0.085870199198121,0.006854733179929608,6.40552357220667,-0.0005377901012177944
1403636885851666432,44.995785,664.0561626588401,9.520622708333333,-0.4985047083333333,-2.623278875,-0.0041887902047863,0.0293215314335047,0.0705113017805709,0.009453067064897243,6.399004617692221,-0.006518954514449504
1403636885901666560,50.388098,666.6270093401489,9.340834125,-0.2941994999999999,-2.5660734166666663,-0.0013962634015954,0.0055850536063818,0.0942477796076938,0.009930425777438748,6.395320798449072,-0.003683819243148534
1403636885951666432,49.733638,663.877517511473,9.381695166666669,-0.4903325,-2.557901208333333,-0.0069813170079773,0.025830872929516,0.0565486677646162,0.0037829436208046885,6.396882840762147,0.001562042313074663
1403636886001666560,49.859286,665.519824484545,9.381695166666669,-0.392266,-2.476179125,0.0062831853071795,0.0209439510239319,0.0970403064108847,0.0027259675442296277,6.39428875746246,-0.002594083299686467
1403636886051666432,55.057049,665.6224745682167,9.569655958333334,-0.3023717083333333,-2.680484333333333,-0.0062831853071795,0.0209439510239319,0.0593411945678072,0.007466787406285243,6.389535787526475,-0.004752969935985618
1403636886101666560,59.169292,664.5458235330477,9.308145291666667,-0.3023717083333333,-2.5170401666666664,-0.0020943951023931,0.0174532925199432,0.0809832772925368,0.0010521094291307841,6.390067448184747,0.0005316606582725925
1403636886151666432,45.330524,664.5452977398136,9.373522958333332,-0.5557101666666666,-2.5170401666666664,-0.0069813170079773,0.0202458193231342,0.0712094334813686,0.005394344679819205,6.387440270363514,-0.0026271778212336727
1403636886201666560,40.536643,666.9379183635228,9.373522958333332,-0.5557101666666666,-2.5170401666666664,-0.0069813170079773,0.0202458193231342,0.0712094334813686,0.0032576045876581495,6.3860564804297875,-0.0013837899337261206
1403636886251666432,50.411701,665.0085800875848,9.46341725,-0.3595771666666666,-2.631451083333333,0.0,0.0272271363311115,0.0879645943005142,0.004434764679573223,6.388364542499482,0.002308062069694472
1403636886301666560,49.9053,665.2247963317453,9.398039583333333,-0.4004382083333333,-2.50069575,-0.0069813170079773,0.0209439510239319,0.0635299847725936,0.007942013892872836,6.394651356636811,0.006286814137329344
1403636886351666432,49.906015,666.7018175919471,9.5124505,-0.44129925,-2.6477955,0.0034906585039886,0.0153588974175501,0.0900589894029074,0.00826978625296614,6.387319506537091,-0.00733185009972015
1403636886401666560,50.212384,665.2425272317846,9.471589458333332,-0.3023717083333333,-2.557901208333333,-0.0048869219055841,0.018151424220741,0.0705113017805709,0.003042109054750557,6.3848904866051495,-0.002429019931941667
1403636886451666432,49.323558,664.1888950957415,9.438900625,-0.4903325,-2.623278875,-0.0034906585039886,0.0188495559215387,0.0802851455917391,0.005813404529910295,6.382443228096321,-0.0024472585088286536
1403636886501666560,50.584793,662.3991512769719,9.422556208333331,-0.3840937916666667,-2.4925235416666665,-0.0006981317007977,0.0251327412287183,0.0788888821901436,0.0019529847894915672,6.383740717669573,0.001297489573252264
1403636886551666432,49.487591,663.6077205794074,9.316317499999998,-0.4249548333333333,-2.606934458333333,-0.0055850536063818,0.0216420827247296,0.0781907504893459,0.0060059928538894955,6.3884994871372225,0.004758769467649415
1403636886601666560,50.61698,665.0896591122743,9.373522958333332,-0.3840937916666667,-2.508867958333333,-0.0013962634015954,0.0230383461263251,0.0802851455917391,0.006759670594010128,6.38314621829448,-0.0053532688427422315
1403636886651666432,49.552679,662.4090605587621,9.438900625,-0.3759215833333333,-2.582417833333333,-0.0006981317007977,0.0230383461263251,0.0781907504893459,0.0032396051754836593,6.3823749518430954,-0.0007712664513848111
1403636886701666560,60.556888,662.5778097655216,9.504278291666663,-0.392266,-2.6477955,0.0,0.0132645023151569,0.0781907504893459,0.007635705608203389,6.376452806794007,-0.005922145049088279
1403636886751666432,38.630248,663.0392582281735,9.504278291666663,-0.392266,-2.6477955,0.0,0.0132645023151569,0.0781907504893459,0.005014373632283716,6.37273323017699,-0.003719576617017495
1403636886801666560,50.727129,663.1463759503016,9.422556208333331,-0.4086104166666666,-2.5660734166666663,-0.0034906585039886,0.0223402144255274,0.0726056968829641,0.0038705412134511057,6.3715263407951,-0.0012068893818897308
1403636886851666432,55.567264,663.5760244613207,9.520622708333333,-0.4086104166666666,-2.655967708333333,0.0013962634015954,0.0195476876223364,0.0802851455917391,0.003927483469189644,6.370273517557545,-0.0012528232375546011
1403636886901666560,54.44932,663.2109270698912,9.455245041666666,-0.392266,-2.59876225,-0.0027925268031909,0.0216420827247296,0.075398223686155,0.001914897056958884,6.370194150500552,-7.93670569931848e-05
1403636886951666432,39.503813,663.2258015563623,9.455245041666666,-0.392266,-2.59876225,-0.0027925268031909,0.0216420827247296,0.075398223686155,0.0020621091732152446,6.3707099798250555,0.0005158293245033363
1403636887001666560,60.187578,663.273544490076,9.430728416666666,-0.367749375,-2.574245625,0.0027925268031909,0.0195476876223364,0.0816814089933346,0.004721050988785711,6.373524639005004,0.0028146591799487197
1403636887051666432,39.468765,661.8970621900673,9.430728416666666,-0.367749375,-2.574245625,0.0027925268031909,0.0195476876223364,0.0816814089933346,0.008984981295783595,6.366129724676571,-0.007394914328433089
1403636887101666560,60.814381,662.3016923728948,9.340834125,-0.392266,-2.5415567916666664,0.0020943951023931,0.0195476876223364,0.0872664625997164,0.002824856633689371,6.366777732235124,0.0006480075585528766
1403636887151666432,50.670147,662.3910096410311,9.291800875,-0.4086104166666666,-2.533384583333333,0.0034906585039886,0.0356047167406843,0.0809832772925368,0.0030519501729296024,6.368553286921467,0.0017755546863433835
1403636887201666560,39.273977,661.5201599779615,9.291800875,-0.4086104166666666,-2.533384583333333,0.0034906585039886,0.0356047167406843,0.0809832772925368,0.002544334864091368,6.370441781633822,0.001888494712354749
1403636887251666432,50.311327,660.6522408130314,9.594172583333334,-0.4821602916666666,-2.5905900416666663,-0.0020943951023931,0.0139626340159546,0.0747000919853573,0.001973210303639887,6.369123931412836,-0.0013178502209862941
