stamp,img_delta,blur,lin_acc.x,lin_acc.y,lin_acc.z,ang_vel.x,ang_vel.y,ang_vel.z,rpe,ate,drift
1403637132938319104,48.97356,636.4816544764593,9.26728425,-1.0869037083333333,-2.4108014583333333,-0.0020943951023931,0.0272271363311115,0.0851720674973232,0.0817697066207157,0.08176970662075103,0.08176970662075103
1403637132988318976,62.779188,636.1110342792591,9.667722458333332,-0.24516625,-2.3699404166666667,-0.0055850536063818,-0.0195476876223364,0.1123992038284348,0.33481154030521243,0.31025016347305845,0.22848045685230742
1403637133038319104,37.068844,637.9982096187158,9.1201845,-0.7191543333333333,-2.69682875,-0.0202458193231342,0.0293215314335047,0.064926248174189,0.2569962612000462,0.5564084466725836,0.24615828319952515
1403637133088318976,50.264597,573.8899625019152,9.259112041666668,-1.299381125,-2.778550833333333,0.0404916386462684,0.1033234917180643,0.0970403064108847,0.05820984281889725,0.611455901462782,0.05504745479019835
1403637133138319104,49.832583,614.6451505979545,9.610517,-0.4086104166666666,-2.288218333333333,0.0174532925199432,0.0314159265358979,0.0970403064108847,0.7830547942779443,1.3698895968697526,0.7584336954069707
1403637133188318976,59.025526,616.8716052627084,9.152873333333332,-0.4739880833333333,-2.0021910416666664,-0.0900589894029074,0.0188495559215387,-0.0432841654494593,0.5055053069701643,1.8674567674273908,0.4975671705576381
1403637133238319104,41.180133,623.5057844815999,9.986438583333332,-0.4903325,-2.9174783749999995,-0.0900589894029074,-0.018151424220741,-0.0439822971502571,1.029929131318393,2.896072278115226,1.0286155106878354
1403637133288318976,50.515891,637.6487089981041,9.855683249999998,-0.5311935416666667,-2.5905900416666663,-0.0293215314335047,-0.0195476876223364,0.0509636141582344,0.41609274541709856,3.1799141713872032,0.28384189327197706
1403637133338319104,50.219059,566.7687801764292,10.092677291666664,-0.4004382083333333,-2.6641399166666666,-0.1235693110411985,-0.0488692190558412,0.0279252680319092,0.4338486217824778,3.4843131597913892,0.304398988404186
1403637133388318976,49.863815,514.8504848180705,9.136528916666666,-0.6456044583333332,-2.4843513333333336,-0.1528908424747032,-0.075398223686155,0.0844739357965255,0.33890566369702785,3.582459099984714,0.09814594019332468
1403637133438319104,50.008535,626.9280769888006,8.597163166666666,-0.8008764166666666,-2.672312125,0.0027925268031909,-0.114493598930828,0.1466076571675237,0.5724610830406661,3.960694025868467,0.3782349258837532
1403637133488318976,57.979584,566.6336360420353,9.553311541666666,0.563882375,-1.6753027083333332,-0.0893608577021096,-0.2136283004441059,0.1151917306316257,0.609019859041946,4.514601228514914,0.5539072026464473
1403637133538319104,41.90135,548.8719082999107,9.136528916666666,-0.612915625,-2.827584083333333,-0.0691150383789754,-0.1947787445225671,0.1787217154042193,0.5604275803127542,4.14334407498583,-0.3712571535290845
1403637133588318976,49.815893,543.7175994674341,9.986438583333332,-0.4249548333333333,-3.178989041666666,-0.1207767842380075,-0.124965574442794,0.0900589894029074,0.3909157664814074,3.847372686273958,-0.2959713887118718
1403637133638319104,48.928023,566.9091153594354,10.386876791666666,-0.392266,-3.415983083333333,-0.1026253600172665,-0.0760963553869527,0.0879645943005142,0.4798090504503776,4.03570867916579,0.18833599289183178
1403637133688318976,50.82941,505.6363821976785,10.386876791666666,-0.7273265416666667,-3.546738416666667,-0.1110029404268393,-0.0111701072127637,0.0188495559215387,0.641616226064557,4.588637743227851,0.5529290640620612
1403637133738319104,49.901247,438.8320871425889,10.730109541666666,-0.6701210833333332,-3.612116083333333,-0.0949459113084915,0.0279252680319092,0.0614355896702004,0.16364660193620212,4.643115158947912,0.054477415720060485
1403637133788318976,49.925327,395.6025251368385,11.073342291666666,-0.34323275,-2.9338227916666666,-0.189891822616983,0.0027925268031909,0.0788888821901436,0.2282983960604447,4.430527344689727,-0.21258781425818452
1403637133838319104,58.138609,375.5016091269175,10.983448,-0.6210878333333334,-3.4404997083333333,-0.2199114857512855,-0.0781907504893459,0.1158898623324234,0.21480206327997975,4.3937999959454,-0.036727348744326704
1403637133888318976,41.855097,380.9937969481648,11.310336333333332,-0.8744262916666666,-3.759215833333333,-0.1382300767579508,-0.0900589894029074,0.1926843494201739,0.4581450997548452,4.334133213069901,-0.059666782875499536
1403637133938319104,50.171376,412.9765591447626,10.664731875,-0.7028099166666667,-3.6284605,-0.1291543646475804,-0.0551524043630208,0.1193805208364121,0.42926750041350525,4.6519209633070355,0.3177877502371347
1403637133988318976,49.82376,387.1385666854548,9.643205833333331,-0.6292600416666666,-3.2361945,-0.1891936909161853,0.0146607657167523,0.0342084533390888,0.48493025613749924,5.014888371658865,0.36296740835182906
1403637134038319104,50.116063,414.7877609262831,9.651378041666666,-0.3759215833333333,-3.3015721666666664,-0.1270599695451872,0.0418879020478639,-0.025830872929516,0.5751796879526506,5.409841671390446,0.394953299731581
1403637134088318976,57.760238,392.8247746722085,9.103840083333331,-0.6782932916666666,-3.1544724166666662,-0.2087413785385218,0.0593411945678072,-0.0397935069454707,0.5078708299936672,5.847680903135388,0.43783923174494266
1403637134138319104,41.886092,374.8012880294906,8.850501625,-0.2288218333333333,-2.582417833333333,-0.2464404903815993,0.1019272283164688,-0.1033234917180643,0.33002338337284404,6.099283797358449,0.25160289422306104
1403637134188318976,49.947738,331.262789488079,9.471589458333332,-0.318716125,-2.9583394166666666,-0.2450442269800038,0.21851522234969,-0.0677187749773799,0.34116988775094476,6.410063921432591,0.31078012407414146
1403637134238319104,50.386667,295.7307706900906,8.253930416666666,-0.1552719583333333,-2.69682875,-0.1480039205691191,0.3225368457685521,0.0,0.6084104791227755,6.668463388636084,0.2583994672034935
1403637134288318976,49.722672,301.91044120597843,7.690048041666667,0.2288218333333333,-2.2473572916666664,-0.046774823953448,0.3686135380212024,0.0760963553869527,0.36071165434325614,6.912438519427509,0.24397513079142463
1403637134338319104,50.144911,319.7578547883513,7.60015375,0.1062387083333333,-1.9695022083333331,-0.0090757121103705,0.390255620745932,0.0774926187885482,0.1271008804952065,6.984804824084362,0.07236630465685323
1403637134388318976,49.722194,353.5186705167905,6.668522,0.0408610416666666,-1.6753027083333332,-0.0851720674973232,0.3316125578789226,0.1368338133563554,0.10977165060564102,6.932771648105525,-0.0520331759788375
1403637134438319104,50.083399,462.5808120296968,6.235394958333333,-0.0898942916666666,-1.22583125,-0.0279252680319092,0.2373647782712288,0.2743657584135086,0.07402360614406828,6.87330955546331,-0.05946209264221469
1403637134488318976,57.607651,802.398265670854,6.251739374999999,0.3350605416666666,-1.201314625,-0.0509636141582344,0.0823795406941323,0.2429498318776106,0.24399560801790757,6.6957604433398945,-0.1775491121234154
1403637134538319104,42.586327,830.5509749606839,6.03108975,0.2778550833333333,-1.184970208333333,-0.0013962634015954,-0.0558505360638185,0.1919862177193762,0.26378535656197977,6.529577175550859,-0.16618326778903558
1403637134588318976,49.496173,525.4988645255969,6.537766666666666,-0.0163444166666666,-1.4464808749999998,-0.0991347015132779,-0.1759291886010284,-0.0055850536063818,0.46767174403198375,6.201357704689115,-0.3282194708617441
1403637134638319104,50.398112,422.4511662896354,6.611316541666667,0.2369940416666666,-1.6262694583333333,-0.0139626340159546,-0.2443460952792061,0.0300196631343024,0.6753547111613388,5.54121797604052,-0.6601397286485948
1403637134688318976,49.495458,341.7560176094638,7.363159708333333,-0.3268883333333333,-1.8550912916666664,0.0048869219055841,-0.3511602455012591,-0.057246799465414,1.2335553075569847,4.573377580375042,-0.967840395665478
1403637134738319104,50.455571,285.7679022217641,7.837147791666666,-0.0408610416666666,-2.8357562916666668,0.0956440430092892,-0.4265584691874141,0.046774823953448,0.5806734757714825,4.075328784149539,-0.49804879622550313
1403637134788318976,49.949884,192.9719103289128,8.801468374999999,-0.4494714583333333,-3.3751220416666667,0.1487020522699168,-0.4810127418496372,0.1710422666954443,0.34199836863531397,3.7918839280799235,-0.28344485606961545
1403637134838319104,49.358845,178.71824358399272,9.814822208333332,-0.5311935416666667,-3.57942725,0.0733038285837618,-0.5403539364174444,0.0781907504893459,0.2454297904260558,3.5955415805842743,-0.19634234749564916
1403637134888318976,50.188303,190.48364122128936,9.80665,-0.04903325,-4.26589275,0.0781907504893459,-0.4565781323217166,0.2911209192326541,0.311133725137625,3.322697011025467,-0.2728445695588073
1403637134938319104,50.635814,234.96254946048103,10.599354208333333,-0.7028099166666667,-4.404820291666666,0.0879645943005142,-0.3218387140677544,0.1975712713257581,0.3422557233679067,3.0668681825139354,-0.25582882851153155
1403637134988318976,57.196379,284.69013344978777,11.040653458333331,-0.1307553333333333,-4.478370166666666,0.0474729556542457,-0.1494001839707146,0.1905899543177807,0.30040562212120486,2.9027661465305394,-0.164102035983396
1403637135038319104,42.678118,316.8519012059437,11.048825666666666,-0.5311935416666667,-4.731708625,0.0767944870877505,-0.0837758040957278,0.2115339053417127,0.2201476620397512,2.764351267607302,-0.13841487892323734
1403637135088318976,61.470985,313.4887982578066,10.681076291666663,-0.4903325,-4.633642125,-0.0006981317007977,-0.0691150383789754,0.0237364778271228,0.20823508084295084,2.6020721109321276,-0.16227915667517445
1403637135138319104,38.628579,302.52626278056545,11.547330375,-0.4331270416666666,-5.0013915,0.0027925268031909,-0.1207767842380075,0.0509636141582344,0.46607019395905647,2.9674023865608317,0.365330275628704
1403637135188318976,50.946235,263.65558365652555,11.964113,-0.6782932916666666,-5.271074375,-0.0174532925199432,-0.2569124658935653,-0.0174532925199432,0.11928026473669934,2.9073275374773058,-0.060074849083525894
1403637135238319104,49.956322,432.5511652795976,12.789506041666666,-0.4494714583333333,-5.4998962083333325,-0.0621337213709981,-0.2869321290278678,-0.0048869219055841,0.13787034085527422,2.8222664846229493,-0.0850610528543565
1403637135288318976,52.011728,345.08658813123515,13.124566583333332,-0.318716125,-5.802267916666667,-0.0600393262686049,-0.1473057888683213,0.057246799465414,0.12734557190243723,2.7170890409860387,-0.10517744363691062
1403637135338319104,48.994065,264.21439570080656,11.882390916666663,-0.6864655000000001,-5.442690750000001,-0.0733038285837618,0.1012290966156711,0.0670206432765822,0.12796128719083222,2.6547880006399356,-0.062301040346103065
1403637135388318976,51.401853,199.0774915648546,11.195925416666665,-0.3023717083333333,-5.115802416666666,-0.104021623418862,0.3469714552964727,-0.0251327412287183,0.5788163231629042,3.2157817243732287,0.5609937237332931
1403637135438319104,63.187838,192.03248235011463,10.697420708333333,-0.1552719583333333,-4.625469916666667,-0.1291543646475804,0.4635594493296939,-0.0802851455917391,0.3361592168961313,3.520540291896343,0.30475856752311437
1403637135488318976,49.343347,193.14835710323564,9.308145291666667,-0.392266,-4.045243125,-0.0942477796076938,0.5375614096142535,-0.0370009801422797,0.1721850566913257,3.4742037767754175,-0.046336515120925625
1403637135538319104,38.011551,211.38337963911852,9.773961166666666,0.0735498749999999,-3.6202882916666654,-0.1452113937659282,0.4858996637552213,-0.0705113017805709,0.10863639909690209,3.487424017931133,0.013220241155715406
1403637135588318976,49.994469,221.2970411201285,8.580818749999999,-0.220649625,-3.211677875,-0.1487020522699168,0.4488986836129415,0.0432841654494593,0.06533631288345723,3.506180385393129,0.01875636746199616
1403637135638319104,50.224781,229.1203861627808,8.000591958333333,-0.1062387083333333,-2.999200458333333,-0.1675516081914556,0.468446371235278,0.0537561409614253,0.10082714442644027,3.5007831375897838,-0.005397247803345273
1403637135688318976,49.360037,266.4784942981233,7.428537374999999,-0.1879607916666666,-2.6477955,-0.036302848441482,0.4300491276914028,0.182212373908208,0.20979569523502128,3.4127172949929445,-0.08806584259683925
1403637135738319104,61.440944,300.5209877319168,6.61948875,-0.0326888333333333,-2.280046125,-0.0097738438111682,0.3741985916275842,0.2275909344600605,0.04693997082645716,3.4290738153931475,0.016356520400202967
1403637135788318976,38.406611,363.28528018946616,6.022917541666666,0.5883989999999999,-1.7243359583333333,0.0439822971502571,0.2827433388230814,0.2401573050744197,0.05279049595126348,3.4546119568417475,0.025538141448600005
1403637135838319104,50.383091,529.9500725668976,5.908506625,-0.1470997499999999,-1.32389775,0.0237364778271228,0.182212373908208,0.1989675347273535,0.08199292048424023,3.450349874859697,-0.004262081982050692
1403637135888318976,49.48163,775.7703960080731,5.287418791666666,0.3105439166666667,-1.184970208333333,-0.0565486677646162,0.0677187749773799,0.1305506280491758,0.10514164754680595,3.454294717312354,0.003944842452657138
1403637135938319104,50.494433,866.9403333377832,5.720545833333333,-0.3595771666666666,-1.5527195833333332,0.0404916386462684,-0.0425860337486616,0.1542871058762987,0.7112667836176461,3.806198190465292,0.35190347315293824
1403637135988318976,65.415144,651.1974067967284,5.3936575,-0.4004382083333333,-1.372931,-0.0118682389135614,-0.124965574442794,-0.0083775804095727,0.17364957861920538,3.8493862762482,0.04318808578290767
1403637136038319104,34.430503,498.48062660144,6.349805875,0.2860272916666666,-1.5772362083333331,0.025830872929516,-0.1605702911834783,0.0642281164733913,0.3112289505064212,3.8559705762917487,0.006584300043548819
1403637136088318976,49.716711,439.3399218547302,6.496905624999999,-0.4249548333333333,-1.8550912916666664,0.0097738438111682,-0.2010619298297467,0.0118682389135614,0.3213081771559963,3.924137370176898,0.06816679388514935
1403637136138319104,50.747872,283.3780681332002,7.591981541666666,-0.0735498749999999,-2.239185083333333,-0.1005309649148733,-0.2736676267127109,-0.0495673507566389,0.26989766805063137,3.843323663752296,-0.08081370642460195
1403637136188318976,49.209595,243.42418181757503,8.670713041666666,-0.2533384583333333,-3.178989041666666,-0.0013962634015954,-0.3574434308084387,0.1347394182539622,0.5997917730416901,3.6332056323499176,-0.2101180314023785
1403637136238319104,61.582088,215.33471690493212,8.695229666666666,-0.1389275416666666,-3.661149333333333,-0.0202458193231342,-0.4530874738177279,-0.0726056968829641,0.07905039994539399,3.6569086363120054,0.0237030039620878
1403637136288318976,38.550854,231.04753093251497,9.831166624999998,0.269682875,-3.963521041666666,0.0167551608191455,-0.4872959271568168,0.208043246837724,0.07578866264312656,3.5636811019326116,-0.0932275343793938
1403637136338319104,49.293279,214.28134672860372,9.863855458333331,-0.2288218333333333,-4.633642125,0.0265290046303138,-0.5145230634879283,0.0907571211037051,0.06480223840531125,3.513152383609117,-0.05052871832349437
1403637136388318976,50.675393,206.3642013740836,10.019127416666668,-0.1144109166666666,-4.993219291666667,0.0383972435438752,-0.4858996637552213,0.1096066770252439,0.08852482289563669,3.4325151262627105,-0.0806372573464067
1403637136438319104,66.761493,190.98053011107004,11.686257916666666,0.0572054583333333,-5.360968666666666,0.15079644737231,-0.4132939668722573,0.2380629099720265,0.08202160991559568,3.343278426603191,-0.0892366996595193
1403637136488318976,33.389569,201.9967769572262,11.62088025,-0.4576436666666666,-5.810440125,0.1235693110411985,-0.333008821280518,0.2359685148696333,0.34860494291906136,3.5213031696006425,0.1780247429974513
1403637136538319104,50.322055,246.27078997365865,11.923251958333331,-0.2860272916666666,-5.589790499999999,0.0733038285837618,-0.1989675347273535,0.2087413785385218,0.11124257283184784,3.5543153377403254,0.033012168139682885
1403637136588318976,49.591542,325.7066753408289,12.536167583333333,-0.5148491249999999,-6.161845083333333,0.0104719755119659,-0.1186823891356144,0.0321140582366956,0.1094045152697106,3.581457530201558,0.027142192461232728
1403637136638319104,49.965858,567.0857395348069,12.715956166666665,-0.4576436666666666,-6.317117041666666,-0.0111701072127637,-0.0593411945678072,-0.0027925268031909,0.14969124931286493,3.542433046819703,-0.039024483381854935
1403637136688318976,49.784899,339.0228503762118,12.822194875,-0.6047434166666666,-6.635833166666666,-0.0125663706143591,0.0153588974175501,0.0174532925199432,0.2329049165013931,3.6212203594796337,0.07878731265993055
1403637136738319104,49.948692,265.83641243455656,12.152073791666666,-0.2369940416666666,-6.268083791666666,0.0209439510239319,0.0872664625997164,0.0914552528045028,0.1735830077269271,3.7584779683251885,0.13725760884555482
1403637136788318976,51.0149,213.18623947189607,11.343025166666669,-0.4985047083333333,-5.834956749999999,0.0328121899374933,0.2611012560983517,0.0600393262686049,0.19179167415630113,3.8927292632104717,0.1342512948852832
1403637136838319104,49.559594,196.76065180812128,11.269475291666666,-0.1307553333333333,-5.042252541666667,-0.0432841654494593,0.3993313328563026,-0.0272271363311115,0.14156265812833743,3.9836776649182357,0.09094840170776397
1403637136888318976,63.745021,181.9327672065785,9.234595416666666,-0.0653776666666666,-4.4701979583333324,-0.0481710873550434,0.5242969072990966,0.0907571211037051,0.13129519966577327,4.064212129317546,0.08053446439931067
1403637136938319104,46.844006,184.9170445740212,9.749444541666666,0.024516625,-3.8082490833333327,-0.2143264321449036,0.507541746479951,-0.0020943951023931,0.11825647841986,4.128233635585835,0.06402150626828895
1403637136988318976,56.991339,190.426082145676,7.567464916666665,-0.367749375,-3.726527,-0.2485348854839925,0.5298819609054785,0.0642281164733913,0.06619001138762638,4.16579755466273,0.03756391907689505
1403637137038319104,32.159805,211.87322851652755,7.297782041666666,-0.3514049583333333,-2.868445125,-0.1801179788058148,0.528485697503883,0.1857030324121966,0.10061043829323459,4.207206237353427,0.04140868269069653
1403637137088318976,60.946703,224.8158476843469,6.129156249999999,-0.7763597916666666,-2.459834708333333,-0.1291543646475804,0.5242969072990966,0.208043246837724,0.14753433296798518,4.282146763848155,0.07494052649472849
1403637137138319104,39.239407,277.2380717244457,5.303763208333334,-0.2533384583333333,-1.7406803749999995,0.1005309649148733,0.4663519761328848,0.4098033083682685,0.09594842273347659,4.328924502867709,0.04677773901955362
1403637137188318976,49.781322,355.3564418995844,5.254729958333334,-0.1552719583333333,-1.4137920416666665,0.0376991118430775,0.3588396942100341,0.093549647906896,0.10075465610012305,4.376495463655057,0.047570960787347794
1403637137238319104,50.064087,473.7778639570176,5.140319041666666,0.1634441666666666,-1.299381125,0.0684169066781777,0.2555162024919699,0.1137954672300302,0.2818621984401454,4.216290229967737,-0.16020523368731965
1403637137288318976,60.558081,701.7478601930678,5.475379583333333,-0.4086104166666666,-1.32389775,-0.0230383461263251,0.1780235837034216,0.0020943951023931,0.04979608732019198,4.173070885424828,-0.04321934454290943
1403637137338319104,39.193391,927.452895778397,5.24655775,-0.5230213333333333,-1.4628252916666666,0.0027925268031909,0.1291543646475804,0.054454272662223,0.14661393760671854,4.0350671637903694,-0.1380037216344583
1403637137388318976,49.132824,804.4514204025364,6.210878333333333,-0.2615106666666666,-1.372931,0.0809832772925368,0.046774823953448,0.0509636141582344,0.10150047379166346,3.9471211378696545,-0.08794602592071499
1403637137438319104,50.731421,567.1363181331451,6.439700166666666,-0.2369940416666666,-1.838746875,0.0418879020478639,-0.0970403064108847,-0.0488692190558412,0.05614627711043247,3.892975474967479,-0.054145662902175484
1403637137488318976,77.425957,410.7703289752786,8.28661925,0.5965712083333333,-2.533384583333333,-0.0195476876223364,-0.3881612256435388,-0.1158898623324234,0.10283701493036781,3.8500999338837647,-0.042875541083714275
1403637137538319104,24.67966,324.77210282525635,8.28661925,0.5965712083333333,-2.533384583333333,-0.0195476876223364,-0.3881612256435388,-0.1158898623324234,0.11066944764353845,3.8118432443720534,-0.03825668951171135
1403637137588318976,48.138857,282.6609093244208,8.425546791666665,-0.4821602916666666,-2.8766173333333334,-0.1082104136236484,-0.5256931707006921,-0.161268422884276,0.19318686829465762,3.7598190413846675,-0.05202420298738586
1403637137638319104,49.063445,188.8290290121425,9.201906583333331,-0.0980665,-3.8082490833333327,-0.1563815009786919,-0.5508259119294103,-0.0083775804095727,0.182762081987011,3.7012965910456925,-0.05852245033897496
1403637137688318976,61.579704,179.78579473384676,10.231604833333332,0.0817220833333333,-3.881798958333333,0.0446804288510548,-0.57246799465414,0.1165879940332212,0.1897585036759514,3.665026741557504,-0.036269849488188566
1403637137738319104,39.177656,184.69547779925784,9.798477791666668,-0.2860272916666666,-5.4998962083333325,0.0579449311662117,-0.457974395723312,0.1242674427419962,0.13561353214207825,3.597098049714466,-0.06792869184303818
1403637137788318976,50.144911,209.265953454541,10.746453958333332,0.0980665,-5.410001916666666,0.1445132620651305,-0.3162536604613725,0.1773254520026238,0.19777019437744592,3.533422367659501,-0.06367568205496488
1403637137838319104,49.844742,201.4955841818068,11.212269833333332,-0.04903325,-5.418174124999999,0.1640609496874669,-0.293913446035845,0.1277581012459849,0.7569256393502399,3.929427024522314,0.39600465686281305
1403637137888318976,50.138473,197.67527491884812,12.184762625,0.2043052083333333,-5.655168166666666,0.0726056968829641,-0.28623399732707,0.0132645023151569,0.32949748452912553,3.949230262144676,0.019803237622362246
1403637137938319104,49.783707,198.56470550308387,12.8467115,0.1062387083333333,-5.704201416666666,0.0020943951023931,-0.3316125578789226,0.0062831853071795,0.21341693304526005,3.931548936043553,-0.01768132610112305
1403637137988318976,50.074577,247.8385706865028,13.353388416666665,0.0735498749999999,-6.292600416666667,0.0174532925199432,-0.3309144261781249,0.0167551608191455,0.2666508275433331,3.9720211355540402,0.040472199510487084
1403637138038319104,60.588122,384.1499389758883,13.189944249999998,-0.2778550833333333,-6.864654999999999,0.0090757121103705,-0.2017600615305445,0.1256637061435917,0.4215051695042391,3.9215934306650686,-0.050427704888971636
1403637138088318976,39.13474,257.9003557491461,12.634234083333332,-0.44129925,-6.537766666666666,0.1242674427419962,0.0425860337486616,0.1829105056090057,0.23344045610775815,4.040925895591877,0.11933246492680816
1403637138138319104,61.020851,191.9384831403267,12.160246,0.3268883333333333,-5.875817791666666,0.1200786525372098,0.2443460952792061,-0.0432841654494593,0.33766839261813175,4.3717535159082335,0.3308276203163567
1403637138188318976,38.906813,183.7069878887827,11.253130874999998,0.171616375,-5.973884291666666,-0.1019272283164688,0.4237659423842232,-0.3155555287605747,0.506042386622329,4.682621547045767,0.3108680311375336
1403637138238319104,65.85908,163.94122061832326,9.733100125,-0.5230213333333333,-4.829775124999999,-0.1989675347273535,0.5885250237724878,-0.1759291886010284,0.09807825106498422,4.785430634112838,0.10280908706707059
1403637138288318976,34.041166,165.01435812382226,8.5317855,-0.3268883333333333,-4.26589275,-0.1759291886010284,0.6953391739945409,-0.0481710873550434,0.14034242845201836,4.883728848938565,0.09829821482572765
1403637138338319104,50.597668,171.99016008187405,8.515441083333332,-0.0980665,-3.603943875,-0.1696460032938488,0.7588691587671345,0.1312487597499735,0.16497005067939832,4.902925717601214,0.01919686866264847
1403637138388318976,49.804449,190.42830562424427,7.216059958333333,0.44129925,-3.015544875,-0.2178170906488923,0.7379252077432026,0.0698131700797731,0.23882972573773653,4.930642831291292,0.027717113690078676
1403637138438319104,60.895919,208.68436945614985,6.545938874999999,0.1062387083333333,-2.4680069166666665,-0.2094395102393195,0.6311110575211495,0.1361356816555577,0.248676491287111,5.03836762930127,0.10772479800997736
1403637138488318976,38.979054,242.3516532504141,5.573446083333333,0.0,-1.8224024583333327,-0.182212373908208,0.5054473513775578,0.1619665545850737,0.30754616268257035,5.034450623191717,-0.003917006109552368
1403637138538319104,50.184727,331.13867942872605,5.189352291666666,0.3840937916666667,-1.3811032083333332,-0.0886627260013119,0.3853686988403479,0.1417207352619395,0.3297450629091584,5.039979070828648,0.005528447636930167
1403637138588318976,60.624122,475.53114583774646,5.230213333333333,0.0326888333333333,-1.0787315,-0.0132645023151569,0.2562143341927675,0.1110029404268393,0.16240743217935907,5.090296205949338,0.05031713512069036
1403637138638319104,39.077759,810.3096542785208,5.303763208333334,0.1797885833333333,-0.8253930416666666,0.0167551608191455,0.0970403064108847,0.104021623418862,0.5671012717314217,4.755551785682108,-0.3347444202672296
1403637138688318976,50.293446,842.07144873735,5.377313083333333,-0.0408610416666666,-0.980665,0.0949459113084915,-0.0272271363311115,0.2241002759560719,0.3206239251950138,4.519081643249575,-0.23647014243253306
1403637138738319104,49.953937,614.9695146658506,6.03108975,0.0980665,-1.2340034583333332,0.0237364778271228,-0.1235693110411985,0.1005309649148733,0.22550379709563104,4.390739551512246,-0.1283420917373297
1403637138788318976,50.110102,454.1745056184581,6.6603497916666665,0.0326888333333333,-1.1767979999999998,-0.0041887902047863,-0.2408554367752175,0.2408554367752175,0.32035300236510145,4.26580234019034,-0.12493721132190583
1403637138838319104,50.048351,294.721534536713,6.872827208333333,0.0980665,-2.4680069166666665,-0.0949459113084915,-0.3169517921621702,0.0118682389135614,0.18195211127123473,4.312439973387009,0.046637633196668915
1403637138888318976,49.830675,276.6115630813092,7.730909083333333,-0.1144109166666666,-3.1463002083333333,0.0460766922526503,-0.3155555287605747,0.0446804288510548,0.13375880824697128,4.2877773719133145,-0.024662601473694146
1403637138938319104,50.044537,259.52905765420434,9.398039583333333,-0.3840937916666667,-2.525212375,0.182212373908208,-0.2848377339254746,0.21851522234969,0.18130794496558725,4.153767864882128,-0.13400950703118664
1403637138988318976,50.063133,269.1457205479722,9.471589458333332,-0.318716125,-3.4731885416666666,0.2401573050744197,-0.2450442269800038,0.2659881780039358,0.23265260495556017,4.084676904732551,-0.06909096014957683
1403637139038319104,49.747467,282.94753446365706,10.059988458333333,-0.465815875,-4.110620791666666,0.2492330171847902,-0.1870992958137921,0.2401573050744197,0.2959215963646054,4.064789173465776,-0.0198877312667749
1403637139088318976,60.718536,301.13766968194034,10.509459916666668,-0.3759215833333333,-3.9880376666666666,0.2164208272472968,-0.1577777643802873,0.2778564169174973,0.10405356679239336,4.0106420116281045,-0.054147161837671653
1403637139138319104,39.211989,268.2839725290036,10.427737833333332,-0.6047434166666666,-4.26589275,0.1480039205691191,-0.1773254520026238,0.1424188669627373,0.13735793977155827,3.922818959994777,-0.0878230516333276
1403637139188318976,60.862541,265.76092787558844,11.22861425,-0.1879607916666666,-4.135137416666667,0.1186823891356144,-0.1452113937659282,0.0628318530717958,0.4883046400456841,4.187695959183395,0.26487699918861773
1403637139238319104,38.458347,309.8042802326967,11.539158166666668,-0.4086104166666666,-4.200515083333333,0.1319468914507713,-0.036302848441482,0.1319468914507713,0.14610938263757842,4.176784073386265,-0.010911885797129983
1403637139288318976,67.332745,315.6115406193218,11.416575041666665,-0.4004382083333333,-4.110620791666666,0.0712094334813686,-0.0237364778271228,-0.0230383461263251,0.07062113870012356,4.136628473514869,-0.04015559987139561
1403637139338319104,43.890715,341.8704172102375,11.024309041666667,-0.318716125,-4.0615875416666665,0.0370009801422797,-0.0139626340159546,-0.0083775804095727,0.10264358619067608,4.1272305346879525,-0.00939793882691653
1403637139388318976,41.774988,299.1144060059882,10.117193916666666,-0.5802267916666666,-4.5519200416666665,0.15079644737231,0.0,-0.0607374579694026,0.08168563364015773,4.098536841047116,-0.028693693640836848
1403637139438319104,48.411131,374.3927753818616,9.872027666666666,-0.5802267916666666,-3.800076875,0.1884955592153876,0.085870199198121,0.0237364778271228,0.08559101600813401,4.065603055141772,-0.03293378590534335
1403637139488318976,62.119007,396.8133032537786,9.381695166666669,-0.6782932916666666,-3.7919046666666665,0.1773254520026238,0.0956440430092892,0.0383972435438752,0.1898902235225769,3.9590080392557683,-0.10659501588600406
1403637139538319104,37.890434,470.117657640322,9.234595416666666,-0.3759215833333333,-3.702010375,0.1089085453244461,0.1466076571675237,0.1172861257340189,0.20354634584321724,3.853097670322736,-0.1059103689330323
1403637139588318976,49.793482,482.0475840184338,9.406211791666664,-0.4086104166666666,-3.571255041666667,0.0272271363311115,0.1598721594826805,-0.0328121899374933,0.2096138535872317,3.747947860658237,-0.10514980966449894
1403637139638319104,61.347008,476.0720564776728,9.054806833333332,-0.3105439166666667,-3.3996386666666667,0.0691150383789754,0.140324471860344,0.0167551608191455,0.13517844373302765,3.6814991180935612,-0.06644874256467581
1403637139688318976,38.595676,468.2693516922441,8.866846041666665,-0.24516625,-3.28522775,0.0670206432765822,0.1033234917180643,0.0383972435438752,0.09135698242429609,3.639053235522284,-0.04244588257127724
1403637139738319104,65.259934,484.7018991117187,9.496106083333332,-0.0980665,-3.4977051666666665,0.0342084533390888,0.0579449311662117,0.0719075651821663,0.023499715326829526,3.6169566249123104,-0.022096610609973588
1403637139788318976,39.642334,453.8080867638202,9.087495666666666,-0.3268883333333333,-3.57942725,-0.0293215314335047,0.0090757121103705,0.0132645023151569,0.02239976410730658,3.6052514215122287,-0.011705203400081743
1403637139838319104,44.408083,291.82163474964085,8.695229666666666,0.318716125,-3.334261,0.1151917306316257,0.3064798166502042,0.0998328332140756,0.11255721708815143,3.6029982464612282,-0.0022531750510004223
1403637139888318976,50.780057,355.6990097442622,9.259112041666668,-0.9479761666666666,-3.391466458333333,-0.0432841654494593,0.2541199390903744,0.1494001839707146,0.10691886737478065,3.5201785932656153,-0.08281965319561291
1403637139938319104,50.034047,365.0440455401948,8.621679791666667,-1.1359369583333332,-3.064578125,-0.0970403064108847,0.1982694030265558,0.2038544566329376,0.047276165829604706,3.47568175104847,-0.04449684221714545
1403637139988318976,61.007976,424.02595046022327,9.586000375,-0.4331270416666666,-3.072750333333333,-0.0656243798749867,0.132645023151569,0.2750638901143063,0.0497201755980677,3.4489614639960453,-0.026720287052424574
1403637140038319104,38.967848,335.78160975869787,9.635033625,-0.4494714583333333,-2.803067458333333,-0.0837758040957278,0.2827433388230814,0.1954768762233649,0.07429476410656119,3.4369422471625164,-0.012019216833528912
1403637140088318976,61.119318,383.1970292958681,9.332661916666666,-0.93163175,-3.0400615,-0.1570796326794896,0.2247984076568696,0.0565486677646162,0.10758945660271323,3.4056537969272114,-0.03128845023530502
1403637140138319104,38.609505,299.9603540940421,9.586000375,-0.809048625,-2.459834708333333,-0.093549647906896,0.333008821280518,0.1396263401595463,0.11429656666439264,3.3301455621045277,-0.07550823482268365
1403637140188318976,66.123724,486.399465162128,9.103840083333331,-0.4004382083333333,-2.157463,-0.1270599695451872,-0.0698131700797731,0.0740019602845595,0.16414270369158102,3.2079697873904482,-0.12217577471407948
1403637140238319104,34.147024,546.696160812957,9.504278291666663,-0.6047434166666666,-2.533384583333333,-0.0635299847725936,0.0279252680319092,0.0816814089933346,0.21070549861526106,3.190927799627394,-0.017041987763054323
1403637140288318976,61.32555,557.5833497640739,9.022118,-0.5148491249999999,-2.459834708333333,-0.0006981317007977,0.0069813170079773,0.1836086373098034,0.22515378140901174,3.202011852061325,0.01108405243393129
1403637140338319104,38.636208,386.0817314241585,7.232404375,-1.062387083333333,-1.4709975,0.0188495559215387,0.1843067690106012,0.1773254520026238,0.22162113434650763,3.2601705426943575,0.05815869063303225
1403637140388318976,49.706697,566.6644439981552,9.986438583333332,0.024516625,-3.195333458333333,0.0055850536063818,0.093549647906896,0.0376991118430775,0.09609246198674308,3.268412476801318,0.008241934106960613
1403637140438319104,60.317039,560.6257998617086,9.643205833333331,-0.83356525,-2.7622064166666664,0.0020943951023931,0.0984365698124801,0.1284562329467826,0.055775591933138594,3.2971728985590096,0.028760421757691557
1403637140488318976,39.535285,577.6127979741179,9.349006333333334,-0.4331270416666666,-2.435318083333333,-0.0020943951023931,0.0349065850398865,0.0921533845053006,0.0511110589361979,3.3179036402357864,0.020730741676776798
1403637140538319104,49.091577,576.0826994628967,9.553311541666666,-0.8825985,-2.705000958333333,0.018151424220741,0.0383972435438752,0.1214749159388053,0.036389799297356404,3.3419545406433095,0.024050900407523113
1403637140588318976,51.038265,579.1032676158678,9.651378041666666,-0.6946377083333333,-2.582417833333333,0.0104719755119659,0.0237364778271228,0.0942477796076938,0.06143982100363218,3.3719689911532313,0.030014450509921797
1403637140638319104,50.175667,580.4900547969817,9.291800875,-0.8008764166666666,-2.606934458333333,0.0125663706143591,0.0251327412287183,0.064926248174189,0.034225497867679186,3.4030407713089814,0.031071780155750073
1403637140688318976,49.838543,578.1380848692465,9.389867375,-0.318716125,-2.582417833333333,0.0146607657167523,0.0202458193231342,0.0712094334813686,0.017195612604176392,3.4170557322222335,0.01401496091325205
1403637140738319104,49.941063,579.9189853606543,9.332661916666666,-0.63743225,-2.574245625,-0.0027925268031909,0.0188495559215387,0.0586430628670094,0.01430368334240128,3.430380447576282,0.013324715354048333
1403637140788318976,50.291538,580.168572752683,9.643205833333331,-0.4086104166666666,-2.6886565416666666,0.0048869219055841,0.0188495559215387,0.0893608577021096,0.013137379940057798,3.438837128272966,0.008456680696684149
1403637140838319104,49.587965,579.5962750631886,9.193734375,-0.809048625,-2.459834708333333,-0.0279252680319092,0.0188495559215387,0.0719075651821663,0.003430225487598574,3.4407335726006987,0.001896444327732727
1403637140888318976,50.085068,578.2237129280962,9.65955025,-0.9398039583333332,-2.533384583333333,-0.0202458193231342,0.0230383461263251,0.0767944870877505,0.010492014911738075,3.447162826432357,0.006429253831658155
1403637140938319104,50.154686,579.9318926737318,9.389867375,-0.9643205833333331,-2.574245625,-0.0083775804095727,0.0251327412287183,0.0795870138909414,0.008590805426397436,3.4473673806367318,0.00020455420437492933
1403637140988318976,60.222149,579.7446477592624,9.5124505,-0.9234595416666666,-2.6151066666666667,-0.0083775804095727,0.0251327412287183,0.0760963553869527,0.010609621011501555,3.4476887760274058,0.00032139539067399525
1403637141038319104,38.602114,580.9284507777867,9.553311541666666,-0.9234595416666666,-2.582417833333333,-0.0041887902047863,0.0265290046303138,0.0802851455917391,0.008034693956139989,3.448556333198987,0.000867557171581268
1403637141088318976,51.16415,580.2474536010931,9.316317499999998,-0.73549875,-2.549729,-0.0034906585039886,0.0167551608191455,0.0760963553869527,0.009820121338516723,3.4493708955428546,0.0008145623438675642
1403637141138319104,48.782587,581.4173999789716,9.389867375,-0.7600153749999999,-2.6151066666666667,0.0048869219055841,0.0265290046303138,0.0760963553869527,0.00737094081896955,3.4460329377886816,-0.0033379577541730043
1403637141188318976,51.064253,580.8356840091858,9.299973083333333,-0.6864655000000001,-2.5170401666666664,0.0069813170079773,0.0293215314335047,0.0837758040957278,0.005274388141405494,3.443332867722823,-0.002700070065858373
1403637141238319104,50.123453,582.028311066937,9.332661916666666,-0.7600153749999999,-2.5905900416666663,0.0006981317007977,0.0167551608191455,0.0726056968829641,0.0035930990235856592,3.4420901635326384,-0.0012427041901847957
1403637141288318976,49.802065,581.7980564097285,9.36535075,-0.661948875,-2.6477955,0.0069813170079773,0.0251327412287183,0.0809832772925368,0.00861136790033088,3.434972374844499,-0.0071177886881392816
1403637141338319104,49.047947,581.299209831694,9.226423208333332,-0.6292600416666666,-2.50069575,-0.0041887902047863,0.0216420827247296,0.075398223686155,0.005411021299570244,3.4327749880310323,-0.0021973868134668173
1403637141388318976,51.135778,581.7317730948363,9.406211791666664,-0.6292600416666666,-2.6477955,-0.0020943951023931,0.0195476876223364,0.0795870138909414,0.0053424557805517615,3.4274951304694836,-0.005279857561548695
1403637141438319104,49.823761,582.6376160891681,9.471589458333332,-0.6537766666666667,-2.533384583333333,-0.0062831853071795,0.025830872929516,0.0733038285837618,0.004849466413511927,3.426331748848204,-0.0011633816212794912
1403637141488318976,49.978495,582.2045742309487,9.5124505,-0.6701210833333332,-2.631451083333333,-0.0062831853071795,0.0167551608191455,0.0781907504893459,0.003319449895772733,3.4275008795089144,0.001169130660710227
1403637141538319104,65.409422,583.2944061064395,9.471589458333332,-0.6782932916666666,-2.639623291666666,-0.0048869219055841,0.0195476876223364,0.0733038285837618,0.008317925837985948,3.4208925720286985,-0.0066083074802159025
1403637141588318976,44.55328,582.6165811520489,9.430728416666666,-0.5883989999999999,-2.5905900416666663,-0.0041887902047863,0.0202458193231342,0.0823795406941323,0.0025858756109726345,3.422410206087517,0.001517634058818551
1403637141638319104,50.558328,582.3702158936676,9.455245041666666,-0.6864655000000001,-2.623278875,-0.0006981317007977,0.0188495559215387,0.0788888821901436,0.010870544161641493,3.411497222030869,-0.010912984056647979
1403637141688318976,39.444685,582.1270679291097,9.430728416666666,-0.6456044583333332,-2.582417833333333,-0.0034906585039886,0.0202458193231342,0.0740019602845595,0.009853607634180656,3.401847365436498,-0.009649856594371009
1403637141738319104,60.565233,582.0941167985401,9.36535075,-0.7436709583333333,-2.574245625,-0.0013962634015954,0.018151424220741,0.0726056968829641,0.0025051812373901436,3.40395649795373,0.002109132517231771
1403637141788318976,39.456606,581.3650852557764,9.430728416666666,-0.7028099166666667,-2.59876225,0.0020943951023931,0.025830872929516,0.0893608577021096,0.003506017892282927,3.401290272114837,-0.002666225838892977
1403637141838319104,65.655709,582.0047378970302,9.373522958333332,-0.6864655000000001,-2.5660734166666663,-0.0006981317007977,0.0188495559215387,0.0733038285837618,0.010163605206758639,3.3944672584512112,-0.006823013663625588
1403637141888318976,44.375658,580.6582609743841,9.332661916666666,-0.7273265416666667,-2.606934458333333,-0.0006981317007977,0.0230383461263251,0.0816814089933346,0.008716462303091482,3.3884009305907443,-0.006066327860466902
1403637141938319104,38.958549,580.3616717587014,9.471589458333332,-0.5965712083333333,-2.582417833333333,0.0006981317007977,0.0230383461263251,0.075398223686155,0.007857013280828481,3.386777639530659,-0.0016232910600852968
1403637141988318976,66.87212,580.4368791654092,9.422556208333331,-0.7109821249999999,-2.59876225,-0.0006981317007977,0.0209439510239319,0.0823795406941323,0.004867151206539983,3.3833389551187123,-0.003438684411946724
1403637142038319104,44.558525,580.6538344359186,9.422556208333331,-0.6537766666666667,-2.6477955,-0.0013962634015954,0.0153588974175501,0.0740019602845595,0.005991744390139441,3.383617319258999,0.00027836414028659107
1403637142088318976,44.048071,582.4355328563395,9.381695166666669,-0.7109821249999999,-2.606934458333333,-0.0048869219055841,0.0230383461263251,0.0733038285837618,0.00602778106654475,3.3845590604413243,0.000941741182325373
1403637142138319104,45.738697,581.9008149499962,9.479761666666668,-0.612915625,-2.574245625,-0.0034906585039886,0.0230383461263251,0.0747000919853573,0.01088968189759307,3.387444576867117,0.0028855164257928223
1403637142188318976,50.045967,582.1070469451624,9.471589458333332,-0.7028099166666667,-2.6151066666666667,-0.0020943951023931,0.0223402144255274,0.0802851455917391,0.010257629088058835,3.3864426494455238,-0.0010019274215933294
1403637142238319104,49.916029,581.3012306431812,9.5124505,-0.6210878333333334,-2.639623291666666,-0.0020943951023931,0.0188495559215387,0.0774926187885482,0.004935369241381765,3.385192337178744,-0.0012503122667797406
1403637142288318976,50.007582,581.8199460493242,9.438900625,-0.6537766666666667,-2.639623291666666,-0.0041887902047863,0.0153588974175501,0.0733038285837618,0.007775719505094953,3.3820375385224124,-0.0031547986563316144
1403637142338319104,50.110578,581.8740778486488,9.36535075,-0.63743225,-2.557901208333333,-0.0048869219055841,0.018151424220741,0.0740019602845595,0.006573649355073038,3.379742315036125,-0.002295223486287412
1403637142388318976,48.960925,580.7406857930847,9.340834125,-0.7681875833333334,-2.5660734166666663,-0.0027925268031909,0.0195476876223364,0.0795870138909414,0.014116882829746399,3.3656996865942084,-0.014042628441916616
1403637142438319104,66.858768,580.3477504690431,9.471589458333332,-0.6537766666666667,-2.639623291666666,-0.0034906585039886,0.0223402144255274,0.0809832772925368,0.00455596101705307,3.3624165295214956,-0.0032831570727127612
1403637142488318976,44.627428,579.9626294007636,9.414383999999998,-0.7191543333333333,-2.582417833333333,-0.0020943951023931,0.0202458193231342,0.075398223686155,0.0037592555408311554,3.3591354789770786,-0.0032810505444169635
1403637142538319104,38.481951,581.3643681075418,9.389867375,-0.6946377083333333,-2.5415567916666664,-0.0006981317007977,0.0146607657167523,0.0816814089933346,0.004715548710533021,3.359489419113822,0.0003539401367431694
1403637142588318976,51.031112,580.1095440673524,9.357178541666666,-0.6701210833333332,-2.582417833333333,-0.0027925268031909,0.0195476876223364,0.0781907504893459,0.004225114364478527,3.3584272349906525,-0.0010621841231692741
1403637142638319104,49.672604,581.3630554630864,9.447072833333332,-0.6946377083333333,-2.606934458333333,0.0020943951023931,0.0167551608191455,0.08307767239493,0.009149167173023758,3.3645017027057738,0.006074467715121212
1403637142688318976,60.814858,580.059035971297,9.389867375,-0.6782932916666666,-2.574245625,0.0020943951023931,0.0237364778271228,0.0740019602845595,0.003972994680378405,3.3611862292757206,-0.0033154734300531175
1403637142738319104,39.488792,582.0562718946469,9.447072833333332,-0.6701210833333332,-2.5905900416666663,0.0020943951023931,0.0216420827247296,0.0823795406941323,0.006277170896193615,3.3633752629969766,0.0021890337212560063
1403637142788318976,64.563274,581.2665597809329,9.398039583333333,-0.661948875,-2.582417833333333,0.0013962634015954,0.0125663706143591,0.08307767239493,0.004241487917820306,3.3601788265137205,-0.003196436483256182
1403637142838319104,35.618306,581.9891075088918,9.406211791666664,-0.6864655000000001,-2.606934458333333,0.0013962634015954,0.0223402144255274,0.0837758040957278,0.007398137057481099,3.363853386882934,0.003674560369213431
1403637142888318976,48.682212,581.4973497911864,9.414383999999998,-0.7191543333333333,-2.557901208333333,0.0,0.0174532925199432,0.0781907504893459,0.01192143015328892,3.363001571019316,-0.0008518158636179329
1403637142938319104,49.962283,582.3673368197806,9.430728416666666,-0.6292600416666666,-2.655967708333333,0.0,0.0188495559215387,0.0823795406941323,0.01154619758802091,3.370866331272367,0.007864760253050829
1403637142988318976,51.032781,581.8654140235523,9.479761666666668,-0.6210878333333334,-2.582417833333333,0.0,0.0216420827247296,0.0809832772925368,0.0026460605400299864,3.3703163254637896,-0.0005500058085772253
1403637143038319104,65.779925,581.6971802402439,9.373522958333332,-0.6456044583333332,-2.582417833333333,0.0006981317007977,0.0132645023151569,0.0851720674973232,0.008017588849958372,3.370802773344192,0.0004864478804025296
1403637143088318976,34.069299,582.6678348722508,9.447072833333332,-0.7028099166666667,-2.5905900416666663,-0.0034906585039886,0.0195476876223364,0.0747000919853573,0.009249420684967254,3.3731605991966673,0.002357825852475237
1403637143138319104,50.065279,582.1343697695916,9.422556208333331,-0.661948875,-2.574245625,-0.0006981317007977,0.0209439510239319,0.0816814089933346,0.010880868269387193,3.3754929645132754,0.002332365316608076
1403637143188318976,65.480948,582.5862556844266,9.447072833333332,-0.63743225,-2.549729,-0.0034906585039886,0.0167551608191455,0.0795870138909414,0.006860083881343862,3.3738690096013357,-0.0016239549119396735
1403637143238319104,34.556865,581.810631106156,9.455245041666666,-0.7191543333333333,-2.582417833333333,-0.0020943951023931,0.0167551608191455,0.08307767239493,0.006311605941871941,3.373353399559979,-0.0005156100413565845
1403637143288318976,50.17376,581.8361899001882,9.414383999999998,-0.661948875,-2.557901208333333,-0.0020943951023931,0.0188495559215387,0.0705113017805709,0.007536677121301767,3.3752148656604466,0.001861466100467446
1403637143338319104,60.929537,581.9568194417674,9.479761666666668,-0.6537766666666667,-2.631451083333333,-0.0006981317007977,0.0272271363311115,0.0760963553869527,0.007334952941240727,3.3735801375428935,-0.0016347281175530526
1403637143388318976,38.612127,582.0661315831318,9.422556208333331,-0.6701210833333332,-2.4843513333333336,-0.0006981317007977,0.0223402144255274,0.0872664625997164,0.007525692155454528,3.3704737522008483,-0.0031063853420452148
1403637143438319104,61.071634,580.9972423414434,9.528794916666666,-0.7518431666666666,-2.574245625,0.0,0.0062831853071795,0.0726056968829641,0.00691041679536688,3.3740945429527667,0.0036207907519183458
1403637143488318976,55.313349,580.9393936818894,9.291800875,-0.6946377083333333,-2.705000958333333,-0.0006981317007977,0.0307177948351002,0.0767944870877505,0.008482805720574714,3.3767730405273033,0.0026784975745366424
1403637143538319104,44.457674,580.0681493690865,9.643205833333331,-0.6782932916666666,-2.4843513333333336,0.0,0.0209439510239319,0.0733038285837618,0.0064509200228841405,3.3786960935366928,0.0019230530093894416
1403637143588318976,49.629212,582.7885076645417,9.283628666666663,-0.6946377083333333,-2.6151066666666667,0.0006981317007977,0.0069813170079773,0.0774926187885482,0.010758236586675943,3.3830266707550813,0.004330577218388587
1403637143638319104,38.842201,581.0514438160394,9.36535075,-0.6864655000000001,-2.655967708333333,0.0,0.0265290046303138,0.075398223686155,0.0035491419839751297,3.3801493834555623,-0.0028772872995190824
1403637143688318976,50.918817,582.5825047754154,9.455245041666666,-0.7028099166666667,-2.525212375,-0.0034906585039886,0.0188495559215387,0.0733038285837618,0.0067010227848119394,3.3753141073081894,-0.004835276147372891
1403637143738319104,60.519934,582.6650933326653,9.46341725,-0.7109821249999999,-2.574245625,-0.0027925268031909,0.0216420827247296,0.0767944870877505,0.007162306482104176,3.369597675611307,-0.005716431696882296
1403637143788318976,55.64642,581.768810865568,9.389867375,-0.63743225,-2.631451083333333,-0.0034906585039886,0.0237364778271228,0.0767944870877505,0.008974181627283246,3.365762119176611,-0.00383555643469613
1403637143838319104,33.799409,582.3356946016297,9.520622708333333,-0.6292600416666666,-2.557901208333333,-0.0027925268031909,0.0244346095279206,0.0781907504893459,0.013746522886391103,3.357980921028624,-0.007781198147986945
1403637143888318976,60.761214,581.6475362149909,9.422556208333331,-0.6456044583333332,-2.5415567916666664,0.0006981317007977,0.0111701072127637,0.0767944870877505,0.0066359302591094075,3.3531978661345683,-0.004783054894055727
1403637143938319104,49.759626,578.1304382215541,8.956740333333332,0.9152873333333332,-2.5905900416666663,-0.0132645023151569,-0.0153588974175501,0.0816814089933346,0.004627072319332484,3.350758969404594,-0.002438896729974438
1403637143988318976,39.623737,579.5509885369462,9.863855458333331,-0.0081722083333333,-3.023717083333333,-0.0516617458590321,0.0013962634015954,0.1019272283164688,0.010785687830180324,3.349099566066175,-0.0016594033384187412
1403637144038319104,49.736977,578.3229881854653,9.790305583333332,-0.2778550833333333,-2.655967708333333,-0.0551524043630208,-0.0048869219055841,0.093549647906896,0.019891687382035617,3.368509338598743,0.019409772532567704
1403637144088318976,67.435026,572.6491242078598,9.872027666666666,-0.612915625,-2.6641399166666666,-0.0530580092606276,-0.0048869219055841,0.0984365698124801,0.01762379361686491,3.383473301954866,0.014963963356123156
1403637144138319104,32.65357,521.5048080215158,9.978266375,-1.789713625,-2.639623291666666,-0.1061160185212552,0.0328121899374933,0.0991347015132779,0.01891381464942615,3.4004487422633103,0.016975440308444334
1403637144188318976,50.059557,544.8970251762328,9.455245041666666,-2.239185083333333,-2.3209071666666663,-0.0279252680319092,0.0167551608191455,0.0928515162060983,0.014476100078139657,3.393664521282702,-0.006784220980608158
1403637144238319104,50.143481,556.3026855273419,9.994610791666668,-1.871435708333333,-2.754034208333333,-0.0069813170079773,0.0600393262686049,0.0914552528045028,0.016344116365647463,3.389325669977904,-0.0043388513047979416
1403637144288318976,49.883842,571.8224388897816,9.430728416666666,-1.6099250416666664,-2.30456275,0.0118682389135614,0.0677187749773799,0.0705113017805709,0.018907685105379237,3.3731665145838723,-0.0161591553940319
1403637144338319104,72.291136,571.6736551472657,9.626861416666666,-1.3075533333333331,-2.69682875,0.0823795406941323,0.0418879020478639,0.0495673507566389,0.020456943973531108,3.3751062402640306,0.0019397256801583218
1403637144388318976,45.442104,531.9235100274782,9.128356708333332,0.0653776666666666,-2.557901208333333,0.0970403064108847,0.0237364778271228,0.0495673507566389,0.009371815327750959,3.3806611619844107,0.005554921720380079
1403637144438319104,32.379151,552.6407458029375,8.654368624999998,-0.1062387083333333,-2.50069575,0.0628318530717958,0.0125663706143591,0.054454272662223,0.015121608797106768,3.394452846634498,0.013791684650087177
1403637144488318976,50.215959,563.5261444057721,9.291800875,0.0,-2.745862,0.0453785605518525,0.0167551608191455,0.0642281164733913,0.00811235479426974,3.4004726502868876,0.006019803652389744
1403637144538319104,49.776554,576.9177459564753,9.1201845,-0.1879607916666666,-2.655967708333333,-0.0607374579694026,0.0118682389135614,0.1054178868204575,0.005200038958906842,3.3954204282548353,-0.005052222032052356
1403637144588318976,49.995423,538.2182943567863,9.332661916666666,-3.4650163333333333,-2.3862848333333333,0.0349065850398865,0.0635299847725936,0.0551524043630208,0.008680248393476336,3.393161349620884,-0.0022590786339513613
1403637144638319104,60.689687,573.9625413817729,9.332661916666666,-0.661948875,-2.4108014583333333,0.0335103216382911,0.0376991118430775,0.0886627260013119,0.01709649506878868,3.383236787269413,-0.009924562351470989
1403637144688318976,39.059163,571.3227287464708,9.038462416666666,-1.593580625,-2.40262925,0.0726056968829641,0.0530580092606276,0.0481710873550434,0.009194523553339327,3.3743161393009027,-0.00892064796851022
1403637144738319104,50.400257,507.25868081085866,9.103840083333331,0.563882375,-2.639623291666666,0.1033234917180643,0.0209439510239319,0.0356047167406843,0.023144868114840712,3.3514837928507535,-0.0228323464501492
1403637144788318976,49.894809,551.7873301912294,8.785123958333333,0.1470997499999999,-2.508867958333333,0.0453785605518525,0.0055850536063818,0.0558505360638185,0.01658690963782694,3.339884449183031,-0.01159934366772264
1403637144838319104,64.399958,565.5909648448843,9.259112041666668,0.1062387083333333,-2.69682875,0.0293215314335047,0.0,0.057246799465414,0.010197215787121709,3.3339614065058254,-0.005923042677205448
1403637144888318976,46.056271,573.0680686369219,9.26728425,0.1307553333333333,-2.79489525,0.0041887902047863,0.0027925268031909,0.0628318530717958,0.016126720057785145,3.346271453807468,0.012310047301642424
1403637144938319104,39.47401,579.9039016342105,9.332661916666666,0.3595771666666666,-2.6477955,-0.0537561409614253,-0.007679448708775,0.0914552528045028,0.010240070669515077,3.348249692377526,0.0019782385700581884
1403637144988318976,65.427065,556.4586131844521,9.692239083333332,-0.3759215833333333,-2.9174783749999995,-0.1117010721276371,-0.0020943951023931,0.1361356816555577,0.02122237667706149,3.3581290197017437,0.009879327324217702
1403637145038319104,34.461498,554.7398140475058,10.158054958333333,-0.53936575,-2.8602729166666667,-0.104021623418862,-0.0272271363311115,0.1019272283164688,0.017769081502801654,3.3417873814990062,-0.016341638202737485
1403637145088318976,50.101519,555.0240156199819,10.092677291666664,-0.9479761666666666,-2.729517583333333,-0.0747000919853573,-0.0083775804095727,0.1235693110411985,0.017492156461662075,3.326010361994553,-0.015777019504453094
1403637145138319104,49.864769,554.490155997245,10.043644041666663,-0.980665,-2.803067458333333,-0.0705113017805709,0.0146607657167523,0.0956440430092892,0.016517764757169474,3.3099916818105215,-0.01601868018403163
1403637145188318976,49.972296,567.9315383995636,9.324489708333331,-1.32389775,-2.40262925,-0.0342084533390888,0.0216420827247296,0.0956440430092892,0.01669123612773679,3.298597461547508,-0.011394220263013288
1403637145238319104,50.179243,569.1670584999976,9.643205833333331,-1.0869037083333333,-2.4843513333333336,-0.0321140582366956,0.0118682389135614,0.0809832772925368,0.016571779194863325,3.29185631869246,-0.006741142855048121
1403637145288318976,49.944639,579.1537728444742,9.56148375,-1.1441091666666665,-2.557901208333333,0.0083775804095727,0.0488692190558412,0.0851720674973232,0.008549319187352723,3.288285220037493,-0.0035710986549672974
1403637145338319104,50.015688,578.4032883531693,9.226423208333332,-1.103248125,-2.3862848333333333,-0.0027925268031909,0.0397935069454707,0.0670206432765822,0.01043126316502627,3.2887750542758396,0.0004898342383468091
1403637145388318976,60.239553,582.017980692119,9.414383999999998,-1.0215260416666667,-2.476179125,0.0118682389135614,0.0376991118430775,0.0712094334813686,0.008634129331961993,3.2926982339361572,0.003923179660317633
1403637145438319104,54.165364,581.433705993709,9.487933875,-0.7109821249999999,-2.557901208333333,0.0139626340159546,0.0397935069454707,0.0851720674973232,0.008753902660008325,3.292257935607125,-0.00044029832903236255
1403637145488318976,46.274185,581.7489639953103,9.349006333333334,-0.784532,-2.5415567916666664,0.0027925268031909,0.0251327412287183,0.0677187749773799,0.0069233722593043,3.287944788075655,-0.004313147531469941
1403637145538319104,49.774408,582.0271864667449,9.75761675,-1.005181625,-2.778550833333333,0.0195476876223364,0.0397935069454707,0.0635299847725936,0.005905571034692365,3.2887599042808247,0.0008151162051697192
1403637145588318976,52.065849,579.0455456480266,9.030290208333332,-0.5965712083333333,-2.40262925,0.0244346095279206,0.0,0.0809832772925368,0.004485243767455155,3.2860162131567088,-0.002743691124115877
1403637145638319104,36.278964,581.3674422203898,9.226423208333332,-0.4086104166666666,-2.5905900416666663,0.007679448708775,0.0265290046303138,0.0600393262686049,0.012454897749662942,3.292550393970849,0.006534180814140367
1403637145688318976,51.04804,581.5877236941391,9.528794916666666,-0.465815875,-2.680484333333333,0.0090757121103705,0.028623399732707,0.0844739357965255,0.004722130486236041,3.294344941250903,0.0017945472800540152
1403637145738319104,50.037146,583.7517151974904,9.193734375,-0.4249548333333333,-2.59876225,-0.0034906585039886,0.0139626340159546,0.0795870138909414,0.005231489639852337,3.2979188328836493,0.003573891632746129
1403637145788318976,50.548553,584.6817445145049,9.103840083333331,-0.4086104166666666,-2.3454237916666667,-0.0174532925199432,0.0237364778271228,0.085870199198121,0.0024676882001793536,3.297584632125852,-0.00033420075779710956
1403637145838319104,60.109615,582.3014505035432,9.577828166666666,-0.784532,-2.606934458333333,-0.0139626340159546,0.0146607657167523,0.08307767239493,0.0032160964172799084,3.2985139326807045,0.000929300554852297
1403637145888318976,39.356709,582.7662442337496,9.291800875,-0.8907707083333333,-2.50069575,-0.0020943951023931,0.0174532925199432,0.0851720674973232,0.008263639395138547,3.2953260014525156,-0.003187931228188834
1403637145938319104,50.046682,583.6149424151827,9.128356708333332,-0.6537766666666667,-2.427145875,0.0034906585039886,0.0062831853071795,0.0823795406941323,0.007316854580953575,3.298353596935218,0.00302759548270215
1403637145988318976,60.922861,583.1277722754879,9.46341725,-0.5557101666666666,-2.6641399166666666,-0.0006981317007977,0.0104719755119659,0.0795870138909414,0.00835714111779617,3.3043890758523022,0.006035478917084447
1403637146038319104,54.141283,581.9274611513504,9.299973083333333,-0.6537766666666667,-2.427145875,-0.007679448708775,0.025830872929516,0.0816814089933346,0.010188951701484162,3.3139122574615945,0.00952318160929222
1403637146088318976,45.572758,582.343843568812,9.504278291666663,-0.8253930416666666,-2.7213453750000003,0.0,0.0342084533390888,0.0726056968829641,0.014365659275726486,3.3198597525841858,0.005947495122591295
1403637146138319104,39.142132,583.1644060499817,9.716755708333332,-0.7927042083333332,-2.672312125,0.0013962634015954,0.0216420827247296,0.0684169066781777,0.014598436852133858,3.3287242292156574,0.008864476631471607
1403637146188318976,50.089836,580.806231056345,9.234595416666666,-0.4004382083333333,-2.7213453750000003,0.0146607657167523,0.0125663706143591,0.0537561409614253,0.02053039304162728,3.3260307890837213,-0.0026934401319360646
1403637146238319104,49.969673,579.9470677439947,8.883190458333333,-1.1767979999999998,-2.353596,-0.0006981317007977,0.0069813170079773,0.1019272283164688,0.03619114623669048,3.3104664886905075,-0.01556430039321377
1403637146288318976,49.952984,567.5551737550262,9.193734375,-0.2778550833333333,-2.803067458333333,-0.0411897703470661,0.0300196631343024,0.1061160185212552,0.025422201140419327,3.330387669988398,0.019921181297890556
1403637146338319104,49.971819,570.5298494793947,8.87501825,-1.0705592916666666,-2.288218333333333,-0.0439822971502571,0.0041887902047863,0.0397935069454707,0.039448262597158605,3.2957177154884403,-0.0346699544999578
1403637146388318976,50.076008,574.1928835958414,9.218251,-1.438308666666667,-2.231012875,-0.0390953752446729,0.0614355896702004,0.0747000919853573,0.02238658089050212,3.293018418680507,-0.002699296807933127
1403637146438319104,50.394773,577.6088028552294,9.414383999999998,-1.52003075,-2.6477955,-0.0202458193231342,0.0174532925199432,0.0893608577021096,0.023702487930666906,3.2715353288728863,-0.021483089807620814
1403637146488318976,66.62345,581.5312331104446,9.872027666666666,-0.4249548333333333,-2.8602729166666667,-0.0027925268031909,0.0272271363311115,0.1186823891356144,0.034193685812574696,3.2909751568855747,0.019439828012688398
1403637146538319104,33.191681,579.0603662672954,9.912888708333332,-0.8662540833333333,-2.982856041666666,-0.0013962634015954,0.057246799465414,0.1047197551196597,0.012526975467990921,3.2879082269769286,-0.003066929908646099
1403637146588318976,54.270267,578.369713940248,9.953749749999998,-0.4331270416666666,-2.745862,0.0013962634015954,0.0383972435438752,0.1096066770252439,0.02934315224130655,3.3073883478666377,0.019480120889709074
1403637146638319104,64.084053,579.257480078972,8.948568125,-1.0215260416666667,-2.3617682083333333,0.0006981317007977,0.0118682389135614,0.0809832772925368,0.007269331482897409,3.3047347249692627,-0.0026536228973750298
1403637146688318976,32.018185,580.7583055912953,9.749444541666666,-0.4249548333333333,-2.69682875,0.0146607657167523,0.0244346095279206,0.1186823891356144,0.02338524251529071,3.322689544138842,0.017954819169579306
1403637146738319104,49.788952,578.9881968390557,9.773961166666666,-1.1359369583333332,-2.8602729166666667,-0.0041887902047863,0.0062831853071795,0.0474729556542457,0.01603210175738213,3.3169609738518875,-0.005728570286954504
1403637146788318976,50.263881,580.6120831078632,9.455245041666666,-0.7681875833333334,-2.5415567916666664,-0.0020943951023931,0.0314159265358979,0.0914552528045028,0.016863335150569935,3.3316257943810506,0.01466482052916307
1403637146838319104,48.811198,581.609134916105,9.316317499999998,-0.7600153749999999,-2.378112625,-0.0090757121103705,0.0216420827247296,0.0712094334813686,0.0063221560672619805,3.331766432429594,0.00014063804854336226
1403637146888318976,51.237344,579.1013657905161,9.700411291666663,-0.6456044583333332,-2.6641399166666666,-0.0006981317007977,-0.0090757121103705,0.114493598930828,0.006940279189613882,3.336197564789107,0.004431132359512979
1403637146938319104,49.647332,580.393747497247,9.528794916666666,-0.4903325,-2.705000958333333,-0.0139626340159546,0.0321140582366956,0.0558505360638185,0.006660459644530316,3.33901943341021,0.0028218686211030075
1403637146988318976,48.979759,581.4757426412497,8.989429166666666,-0.3514049583333333,-2.353596,0.0055850536063818,0.0167551608191455,0.1242674427419962,0.008787639203517937,3.3318379689643094,-0.0071814644459005095
1403637147038319104,50.712585,570.9803389594279,9.65955025,-1.1767979999999998,-2.427145875,-0.0432841654494593,0.0432841654494593,0.0837758040957278,0.01067725805974042,3.3294638902270477,-0.002374078737261698
1403637147088318976,50.181151,575.6990439354087,9.381695166666669,-0.9234595416666666,-2.5415567916666664,-0.0244346095279206,0.0055850536063818,0.1019272283164688,0.010890623335609069,3.3195425056938124,-0.009921384533235322
1403637147138319104,60.474157,576.2694002406895,9.308145291666667,-1.1441091666666665,-2.533384583333333,-0.0237364778271228,0.0349065850398865,0.08307767239493,0.006391614490582718,3.315732598528023,-0.00380990716578955
1403637147188318976,39.395332,578.0451755506218,9.9047165,-1.1359369583333332,-2.8602729166666667,-0.0055850536063818,0.0153588974175501,0.0977384381116824,0.007776976621501457,3.3155213274013393,-0.0002112711266835099
1403637147238319104,64.767838,580.6196486081626,9.398039583333333,-0.8172208333333333,-2.672312125,-0.0006981317007977,0.0237364778271228,0.0802851455917391,0.00992525008127561,3.309817548639238,-0.005703778762101486
1403637147288318976,35.181999,579.7385898528421,8.956740333333332,-0.8417374583333332,-2.3454237916666667,0.0006981317007977,0.0209439510239319,0.0767944870877505,0.009564893204373447,3.309913731790232,9.618315099402253e-05
1403637147338319104,50.036192,577.77059734129,8.817812791666666,-0.8008764166666666,-2.1983240416666665,-0.0027925268031909,0.0551524043630208,0.0474729556542457,0.009840791579056526,3.308036164773378,-0.0018775670168538205
1403637147388318976,50.157785,576.9571893773734,9.242767625,-0.612915625,-2.623278875,-0.0104719755119659,0.0607374579694026,0.0628318530717958,0.008066275904410211,3.3103632932442255,0.0023271284708474838
1403637147438319104,49.727202,580.6344955403351,10.1008495,-0.8825985,-3.08909475,0.0013962634015954,0.036302848441482,0.0621337213709981,0.011681365734173872,3.310047747004995,-0.00031554623923035763
1403637147488318976,50.578356,579.8540955774183,9.765788958333331,-0.367749375,-2.8357562916666668,0.0020943951023931,0.0383972435438752,0.0802851455917391,0.014415291802925261,3.32084880045452,0.010801053449524645
1403637147538319104,49.45898,580.6399048197786,10.027299625,-0.5720545833333333,-2.754034208333333,0.0020943951023931,-0.0048869219055841,0.1110029404268393,0.014481430813067101,3.328708223745611,0.00785942329109135
1403637147588318976,50.10891,580.3494589170234,10.207088208333332,-0.5557101666666666,-3.064578125,-0.0062831853071795,0.0279252680319092,0.0886627260013119,0.0047239473350566665,3.324917679084956,-0.003790544660655204
1403637147638319104,60.397148,581.247165480526,9.994610791666668,-0.612915625,-2.9011339583333333,0.0006981317007977,0.036302848441482,0.0942477796076938,0.024599751270277734,3.305699346973116,-0.019218332111839764
1403637147688318976,39.713621,581.3928042875312,9.610517,-0.3105439166666667,-2.5415567916666664,-0.0118682389135614,0.0453785605518525,0.0942477796076938,0.020981654285195894,3.291251055420511,-0.014448291552604964
1403637147738319104,60.379744,581.2810215287719,8.703401874999999,-0.8172208333333333,-2.1411185833333333,-0.0118682389135614,0.0460766922526503,0.0719075651821663,0.022297839349325162,3.2719076152130375,-0.019343440207473694
1403637147788318976,39.574861,581.3276422613029,9.144701125,-0.6047434166666666,-2.4189736666666666,-0.0174532925199432,0.0104719755119659,0.0642281164733913,0.020310344492625837,3.2587962918228115,-0.013111323390226026
1403637147838319104,49.864769,581.4867988437451,8.907707083333333,-0.5066769166666666,-2.69682875,0.0006981317007977,-0.007679448708775,0.0809832772925368,0.017949841890707516,3.2437103664944704,-0.015085925328341077
1403637147888318976,60.436011,580.3284220678464,9.471589458333332,-0.7028099166666667,-2.549729,-0.0097738438111682,0.0349065850398865,0.0600393262686049,0.013788296065892313,3.2308273131234486,-0.012883053371021802
1403637147938319104,39.313316,582.0391270618085,9.643205833333331,-0.809048625,-2.672312125,-0.0104719755119659,0.0230383461263251,0.0677187749773799,0.012780408967811498,3.2195857141561763,-0.011241598967272282
1403637147988318976,50.379991,580.3290685802987,9.643205833333331,-0.6210878333333334,-2.5170401666666664,-0.0027925268031909,0.0006981317007977,0.0677187749773799,0.004584067154929906,3.220748891100504,0.0011631769443276596
1403637148038319104,60.40001,580.85021172657,9.357178541666666,-0.7927042083333332,-2.631451083333333,-0.0146607657167523,0.007679448708775,0.0579449311662117,0.012775304820867708,3.212114237201797,-0.00863465389870699
1403637148088318976,50.092697,580.9263041361896,9.822994416666669,-0.7109821249999999,-2.9583394166666666,0.0048869219055841,0.0293215314335047,0.08307767239493,0.006073690536654112,3.2096832009647502,-0.0024310362370467686
1403637148138319104,39.144516,578.4545440438666,9.144701125,-0.809048625,-2.4843513333333336,-0.0041887902047863,0.0272271363311115,0.0963421747100869,0.012252995247768834,3.208044675213753,-0.0016385257509972107
1403637148188318976,60.747862,579.781663114157,9.626861416666666,-0.2124774166666666,-2.7622064166666664,-0.0006981317007977,0.0502654824574366,0.075398223686155,0.007933960660617951,3.2136240629138744,0.005579387700121341
1403637148238319104,39.505243,580.6573126751815,10.1008495,-0.5557101666666666,-2.8602729166666667,0.0111701072127637,0.0,0.1089085453244461,0.01721367143007898,3.2181501522048164,0.004526089290942004
1403637148288318976,49.889803,573.4804953596747,8.262102624999999,-0.3268883333333333,-2.1492907916666666,0.0195476876223364,0.0747000919853573,0.0949459113084915,0.013769923605015083,3.227624094348422,0.00947394214360564
1403637148338319104,60.560941,579.9720680563697,10.035471833333334,-0.6782932916666666,-2.59876225,-0.0048869219055841,0.0733038285837618,0.0593411945678072,0.008508528738935175,3.2236856686576,-0.003938425690821923
1403637148388318976,39.521456,580.0540047646211,10.386876791666666,-0.5066769166666666,-2.655967708333333,0.0307177948351002,0.0034906585039886,0.1165879940332212,0.00523485616337214,3.2277550490104314,0.004069380352831331
1403637148438319104,49.75915,578.476271353916,8.302963666666667,-0.0653776666666666,-1.871435708333333,-0.0062831853071795,0.0279252680319092,0.0314159265358979,0.008692183081463505,3.226518982665745,-0.0012360663446862041
1403637148488318976,50.207615,574.4070485744854,10.623870833333331,-0.8499096666666667,-3.097266958333333,0.0041887902047863,0.0670206432765822,0.0293215314335047,0.01638346863899303,3.230700555395828,0.004181572730082905
1403637148538319104,49.862623,572.7880095432495,10.288810291666666,-0.4494714583333333,-2.819411875,0.025830872929516,-0.0041887902047863,0.1242674427419962,0.021921623656974608,3.242060331557084,0.01135977616125583
1403637148588318976,50.204515,569.2346105177782,9.357178541666666,0.1307553333333333,-3.1544724166666662,0.0516617458590321,0.0307177948351002,0.104021623418862,0.027583179683425323,3.2522492458189474,0.010188914261863413
1403637148638319104,60.429335,574.3316439253992,9.724927916666667,-0.9234595416666666,-2.6641399166666666,0.0020943951023931,0.0698131700797731,0.0656243798749867,0.0251872698279795,3.23531367902372,-0.01693556679522734
1403637148688318976,38.730144,568.0446325901565,9.07115125,-0.1797885833333333,-2.3944570416666666,0.0090757121103705,-0.0418879020478639,0.0446804288510548,0.010280657383281922,3.233069114179795,-0.002244564843925101
1403637148738319104,50.52352,572.4907520528392,8.016936375,-0.6537766666666667,-2.01036325,-0.0055850536063818,-0.0314159265358979,0.0719075651821663,0.021379671811656793,3.2252166064883063,-0.007852507691488597
1403637148788318976,50.159931,568.4164812211947,7.976075333333333,0.1144109166666666,-1.789713625,-0.0139626340159546,0.0788888821901436,0.0607374579694026,0.02247121076308085,3.2442638861216295,0.0190472796333232
1403637148838319104,54.928541,573.7650334177995,7.878008833333333,-0.563882375,-1.8796079166666664,0.0062831853071795,0.0837758040957278,0.0635299847725936,0.023441547496512696,3.2360453379571212,-0.008218548164508288
1403637148888318976,48.357249,570.9562992991895,8.77695175,-0.563882375,-2.1738074166666665,0.0356047167406843,-0.0670206432765822,0.0628318530717958,0.03215710910708673,3.233073708597414,-0.002971629359707073
1403637148938319104,47.029018,566.3542344025811,11.048825666666666,-0.0980665,-2.9256505833333333,0.0125663706143591,0.036302848441482,0.1123992038284348,0.021268758932800932,3.2245837026038426,-0.008490005993571526
1403637148988318976,60.572386,573.8701891880468,9.447072833333332,-0.8825985,-2.999200458333333,-0.0097738438111682,0.0767944870877505,0.0670206432765822,0.02344098955740349,3.233761442636146,0.009177740032303205
1403637149038319104,55.424213,565.8747888067549,9.36535075,-0.44129925,-2.165635208333333,0.0321140582366956,0.0579449311662117,0.0740019602845595,0.04229368394665014,3.2160829954856425,-0.017678447150503374
1403637149088318976,33.663273,572.0583648096722,8.392857958333332,-1.372931,-1.846919083333333,-0.0237364778271228,0.0565486677646162,0.054454272662223,0.052694851062898646,3.21387691543227,-0.0022060800533725278
1403637149138319104,60.883284,567.5891526137445,8.760607333333333,0.0817220833333333,-2.459834708333333,0.0202458193231342,0.0370009801422797,0.0251327412287183,0.07898671026282049,3.1984606164044034,-0.015416299027866565
1403637149188318976,39.343834,565.0387010716694,9.316317499999998,-0.956148375,-2.811239666666667,-0.0062831853071795,0.0307177948351002,0.1473057888683213,0.09731766026603457,3.1950570299673355,-0.0034035864370678404
1403637149238319104,60.461521,562.4131234905306,8.907707083333333,-0.7518431666666666,-2.4516625,0.0488692190558412,0.018151424220741,0.0872664625997164,0.07459966351028087,3.1934651882095384,-0.001591841757797141
1403637149288318976,39.349556,570.7043876126355,9.422556208333331,-1.062387083333333,-2.034879875,0.0139626340159546,-0.0474729556542457,0.0733038285837618,0.08631815308570981,3.1962226365038724,0.0027574482943339973
1403637149338319104,50.020933,564.4563130779507,9.046634625,-0.416782625,-2.288218333333333,0.0139626340159546,0.0565486677646162,0.0970403064108847,0.05704232707032795,3.198020502686995,0.0017978661831223874
1403637149388318976,60.622692,569.0782581519878,9.594172583333334,-0.8499096666666667,-2.8766173333333334,0.0062831853071795,-0.0390953752446729,0.0802851455917391,0.054708656002688295,3.210017222594512,0.01199671990751705
1403637149438319104,50.135374,546.680574571525,8.825985,-0.6701210833333332,-2.5415567916666664,0.0425860337486616,0.0265290046303138,-0.0097738438111682,0.0689974168046778,3.2148018711594055,0.00478464856489369
1403637149488318976,39.455652,562.7117009579728,10.378704583333333,-0.8907707083333333,-2.5170401666666664,-0.0167551608191455,0.007679448708775,0.0942477796076938,0.08443928065485974,3.2487860576872465,0.033984186527840965
1403637149538319104,49.941302,531.6583876790289,9.545139333333331,-0.392266,-3.211677875,0.0914552528045028,-0.0914552528045028,0.0614355896702004,0.09489417469074218,3.273260110827484,0.02447405314023765
1403637149588318976,49.900055,401.4666417045971,8.662540833333333,-0.3268883333333333,-2.1166019583333333,0.0740019602845595,-0.1940806128217694,-0.0174532925199432,0.14407735132801566,3.3080908248509746,0.03483071402349047
1403637149638319104,51.263094,299.90679362519506,7.240576583333333,-0.24516625,-1.52003075,0.1947787445225671,-0.2534218073895766,-0.1347394182539622,0.16685446433631135,3.3440663291118953,0.035975504260920665
1403637149688318976,49.248218,416.2532173039696,7.918869874999999,0.9479761666666666,-1.3075533333333331,0.179419847105017,0.0195476876223364,-0.0062831853071795,0.21568447558936826,3.3890756076666446,0.045009278554749343
1403637149738319104,50.408125,469.682640776148,5.181180083333333,-0.8907707083333333,-0.2778550833333333,0.1026253600172665,0.1598721594826805,-0.0125663706143591,0.24545574877363105,3.460606084993192,0.07153047732654727
1403637149788318976,65.361738,476.98692707460685,10.730109541666666,-0.8825985,-4.306753791666666,0.1047197551196597,-0.0006981317007977,0.0719075651821663,0.16275458320951824,3.5195302055848936,0.05892412059170171
1403637149838319104,45.660019,275.32020775518635,9.929233125,1.299381125,-2.606934458333333,0.0516617458590321,-0.260403124397554,0.1563815009786919,0.1892945595929709,3.635762944406009,0.11623273882111551
1403637149888318976,38.648367,260.5512889564,11.179581,0.1144109166666666,-2.378112625,-0.0809832772925368,-0.278554548618295,-0.122173047639603,0.20974564411170787,3.770295929854286,0.13453298544827685
1403637149938319104,49.847126,259.6387297274925,10.329671333333332,-0.196133,-3.6202882916666654,-0.075398223686155,-0.3790855135331683,-0.0998328332140756,0.1962664179265575,3.8393207143707664,0.06902478451648042
1403637149988318976,60.499668,241.0004703833067,8.392857958333332,-0.0408610416666666,-3.751043625,-0.0998328332140756,-0.4091051766674708,-0.1905899543177807,0.19596867614288618,3.8700403872522946,0.030719672881528215
1403637150038319104,39.43348,279.92718689961833,8.221241583333333,0.8580818749999999,-3.906315583333333,-0.1577777643802873,-0.2624975194999471,-0.1759291886010284,0.24800594958095584,3.823300095947018,-0.04674029130527657
1403637150088318976,48.971653,292.1901543632857,11.955940791666666,-0.318716125,-4.053415333333333,-0.153588974175501,-0.1752310569002306,-0.0970403064108847,0.29435043140825207,3.7134517175193507,-0.10984837842766737
1403637150138319104,50.817728,292.82825464639603,8.850501625,0.9234595416666666,-3.4813607499999994,-0.1968731396249603,-0.0740019602845595,-0.1117010721276371,0.24290337715247023,3.688967733557686,-0.024483983961664624
1403637150188318976,50.023794,278.7803613332136,10.550320958333334,-0.8907707083333333,-3.996209875,-0.15079644737231,0.007679448708775,-0.0223402144255274,0.20503091959702316,3.7223134110663922,0.033345677508706206
1403637150238319104,49.953222,255.3258901715207,9.741272333333333,0.3595771666666666,-3.4404997083333333,-0.085870199198121,0.1689478715930511,0.0802851455917391,0.7977267378338078,3.4475157223797024,-0.27479768868668986
1403637150288318976,60.98628,249.5514947113732,8.817812791666666,0.6946377083333333,-2.525212375,-0.1103048087260416,0.1857030324121966,0.0872664625997164,0.1518006929347014,3.489745457954173,0.04222973557447052
1403637150338319104,49.567461,225.74444582767472,10.2969825,-0.4903325,-3.8245935,-0.0551524043630208,0.3972369377539094,0.1940806128217694,0.206079338989194,3.4987410013351963,0.008995543381023374
1403637150388318976,55.540085,227.48368137436177,8.768779541666666,0.6047434166666666,-3.072750333333333,-0.007679448708775,0.3874630939427411,0.1480039205691191,0.19520473705712083,3.533184213243765,0.034443211908568916
1403637150438319104,33.357144,263.4350564361061,6.856482791666667,0.0735498749999999,-1.6753027083333332,-0.1270599695451872,0.2799508120198904,0.0404916386462684,0.19885480725858712,3.4592069110062207,-0.0739773022375445
1403637150488318976,50.782919,320.01654996041606,9.079323458333333,-0.2288218333333333,-4.511059,-0.0879645943005142,0.1200786525372098,0.1968731396249603,0.13025833197497677,3.4262866565987053,-0.03292025440751534
1403637150538319104,49.753427,354.6677200336877,10.713765125,-0.2369940416666666,-3.219850083333333,-0.0383972435438752,0.1242674427419962,0.0970403064108847,0.17184398964065087,3.365959039429183,-0.060327617169522174
1403637150588318976,60.478449,398.5265686615313,6.962721499999999,-0.5557101666666666,-1.7406803749999995,-0.0865683308989187,0.0774926187885482,0.0760963553869527,0.13717650459618252,3.32737913449338,-0.0385799049358031
1403637150638319104,39.213896,390.3386786319704,8.482752249999999,-0.0408610416666666,-3.0809225416666663,-0.0314159265358979,0.0439822971502571,0.1193805208364121,0.10868412323023822,3.295295738245167,-0.03208339624821299
1403637150688318976,50.216913,466.809121578077,10.983448,0.34323275,-5.426346333333333,-0.025830872929516,0.0314159265358979,0.0851720674973232,0.16221446023993788,3.2705712670107405,-0.02472447123442656
1403637150738319104,49.792767,456.8033408605115,8.450063416666666,-0.0735498749999999,-2.083913125,-0.0691150383789754,0.1068141502220529,0.0390953752446729,0.2609918318264701,3.214648936061377,-0.05592233094936372
1403637150788318976,50.073862,475.5844583414628,8.850501625,0.1797885833333333,-3.18716125,-0.0600393262686049,-0.0104719755119659,0.0684169066781777,0.08977691998311738,3.133152892910314,-0.08149604315106274
1403637150838319104,65.258979,414.51447660918274,10.795487208333332,0.2043052083333333,-4.249548333333333,-0.0111701072127637,0.2073451151369263,0.0621337213709981,0.05180706305484209,3.1342822325229944,0.0011293396126803579
1403637150888318976,34.724713,390.568622488307,7.028099166666666,-0.5802267916666666,-2.018535458333333,-0.0230383461263251,0.2192133540504878,0.0551524043630208,0.037702748209608734,3.1252070501211158,-0.009075182401878656
1403637150938319104,49.823999,423.5507527151588,8.842329416666665,-0.2124774166666666,-3.219850083333333,0.0041887902047863,0.122173047639603,0.1228711793404008,0.13367065440056933,3.110195906545601,-0.015011143575514918
1403637150988318976,50.274849,475.4160859850485,10.452254458333334,0.5230213333333333,-4.323098208333334,0.0104719755119659,0.1745329251994329,0.064926248174189,0.15893861740379245,3.154350579384861,0.04415467283926011
1403637151038319104,49.684525,457.9624191889743,7.992419749999999,0.2124774166666666,-2.9174783749999995,0.0090757121103705,0.2199114857512855,0.0565486677646162,0.16060616839418898,3.265423186316505,0.11107260693164411
1403637151088318976,50.227165,466.8576065170083,8.7279185,0.1552719583333333,-2.7131731666666665,-0.0090757121103705,0.1549852375770964,0.0502654824574366,0.07547820427790151,3.2753602827361394,0.009937096419634361
1403637151138319104,54.810524,542.3958184616436,9.684066875,0.3105439166666667,-4.151481833333333,0.0474729556542457,0.1186823891356144,0.054454272662223,0.11719513214241929,3.287905668749084,0.012545386012944526
1403637151188318976,58.639765,746.7515540845716,9.406211791666664,0.3840937916666667,-3.407810875,0.0020943951023931,-0.0376991118430775,0.0886627260013119,0.15600934100157357,3.3992337583919245,0.11132808964284058
1403637151238319104,36.419153,739.0685265984954,10.893553708333332,-0.416782625,-3.366949833333333,0.0614355896702004,-0.114493598930828,0.1123992038284348,0.18953516470493678,3.556650272677009,0.1574165142850843
1403637151288318976,66.365957,765.8540271852552,9.692239083333332,-0.1144109166666666,-2.20649625,0.075398223686155,-0.1647590813882647,0.171740398396242,0.18914286764728816,3.7287275910055753,0.17207731832856643
1403637151338319104,44.526816,722.3907184997362,9.36535075,0.220649625,-4.16782625,0.1061160185212552,-0.1389282084587486,0.2317797246648469,0.21708308326343728,3.9390725098933363,0.21034491888776108
1403637151388318976,49.876451,689.1846598865346,10.558493166666668,0.2778550833333333,-4.028898708333333,0.1096066770252439,-0.104021623418862,0.3427826650916863,0.1698514757519737,4.1008856186006355,0.16181310870729915
1403637151438319104,39.301157,841.8692504827474,11.097858916666665,-0.907115125,-2.639623291666666,0.0356047167406843,-0.0523598775598298,0.1263618378443894,0.1945070807923184,4.289710212977392,0.18882459437675614
1403637151488318976,50.084114,827.6535129709945,8.858673833333333,-0.024516625,-3.260711125,0.0202458193231342,-0.057246799465414,-0.0027925268031909,0.20453400175921788,4.488347221258106,0.1986370082807145
1403637151538319104,49.949885,790.4594201904839,7.976075333333333,0.024516625,-3.366949833333333,-0.057246799465414,-0.036302848441482,0.0097738438111682,0.18329379302128532,4.667417153581919,0.17906993232381296
1403637151588318976,50.195694,973.6512078070574,7.50208725,-0.0898942916666666,-3.538566208333333,-0.0055850536063818,-0.0013962634015954,0.0383972435438752,0.2631429756955251,4.873903413816584,0.20648626023466488
1403637151638319104,49.881696,889.2110258852668,8.074141833333334,0.8499096666666667,-3.097266958333333,-0.018151424220741,0.0837758040957278,-0.0509636141582344,0.3055625560353156,5.094653730550692,0.22075031673410805
1403637151688318976,50.102473,994.7797341442324,7.534776083333333,-0.1879607916666666,-3.1054391666666663,-0.0244346095279206,-0.0579449311662117,0.0614355896702004,0.2727474933783561,5.244796204148775,0.1501424735980832
1403637151738319104,49.7303,1151.371381831693,9.635033625,0.220649625,-3.849110125,0.0272271363311115,0.0816814089933346,0.0530580092606276,0.2568835512003246,5.43367713010741,0.18888092595863437
1403637151788318976,50.078393,1179.055098822422,9.013945791666666,-0.0817220833333333,-2.20649625,-0.0272271363311115,0.0090757121103705,0.0153588974175501,0.24223889593002682,5.598478504986692,0.16480137487928204
1403637151838319104,49.960136,1174.3040491479646,11.024309041666667,0.7681875833333334,-3.538566208333333,0.0020943951023931,-0.0097738438111682,0.0677187749773799,0.16247055392359142,5.701288160480592,0.10280965549390064
1403637151888318976,50.238609,1180.5396179571917,9.422556208333331,0.0408610416666666,-2.655967708333333,-0.0111701072127637,0.0719075651821663,-0.0321140582366956,0.18439614247719027,5.848893641906188,0.14760548142559582
1403637151938319104,49.634218,1279.8434134614322,9.945577541666664,-0.4903325,-4.731708625,0.0027925268031909,-0.0314159265358979,0.0970403064108847,0.11776714506198853,5.915144465481682,0.06625082357549417
1403637151988318976,60.607195,1273.8061584561,8.67888525,0.3840937916666667,-3.505877375,0.0034906585039886,0.0104719755119659,0.0509636141582344,0.1293512360546227,6.016789344895513,0.10164487941383094
1403637152038319104,39.491177,1309.4655880714051,9.430728416666666,-0.34323275,-3.2280222916666665,0.0418879020478639,0.0153588974175501,0.1082104136236484,0.049887492662286245,6.056333457001364,0.03954411210585107
1403637152088318976,50.228357,1251.5531656842022,10.509459916666668,0.1797885833333333,-3.603943875,0.0251327412287183,0.0230383461263251,0.0956440430092892,0.12921450605742074,6.0966759576347025,0.04034250063333822
1403637152138319104,60.547114,1269.8550811891223,7.142510083333334,-0.4086104166666666,-3.342433208333333,0.0209439510239319,-0.0265290046303138,0.1235693110411985,0.07954133393197993,6.130538094209135,0.03386213657443271
1403637152188318976,50.210952,1224.8644925724811,8.654368624999998,-1.0296982499999998,-2.280046125,0.0132645023151569,0.0523598775598298,0.085870199198121,0.1093463006442577,6.219880344202322,0.0893422499931864
1403637152238319104,38.336754,1350.831787493865,5.908506625,0.2941994999999999,-2.165635208333333,0.0265290046303138,-0.0020943951023931,0.1172861257340189,0.1504598681004238,6.272708999777564,0.05282865557524197
1403637152288318976,50.696373,1335.8972734775011,8.115002875,-0.7600153749999999,-3.0400615,-0.0062831853071795,-0.0188495559215387,0.1647590813882647,0.11281863851766584,6.360326839229509,0.08761783945194512
1403637152338319104,49.980164,1284.4738201655316,7.265093208333333,0.7518431666666666,-2.3454237916666667,0.0307177948351002,0.0600393262686049,0.0083775804095727,0.2517135432717259,6.435297455272219,0.0749706160427106
1403637152388318976,50.231695,1319.6513439131534,9.308145291666667,-0.0572054583333333,-3.67749375,-0.0174532925199432,-0.0139626340159546,0.0872664625997164,0.11360180771218076,6.474465469820137,0.03916801454791763
1403637152438319104,49.819946,1362.97141037731,9.847511041666666,-0.7436709583333333,-3.28522775,-0.0237364778271228,-0.0370009801422797,0.0055850536063818,0.23647064879691956,6.632543339350937,0.15807786953079983
1403637152488318976,65.898657,1361.5393976131172,7.837147791666666,0.5475379583333333,-2.435318083333333,0.0027925268031909,0.054454272662223,0.0984365698124801,0.23011673821912915,6.530806800305676,-0.1017365390452607
1403637152538319104,33.810854,1367.8950201731843,8.490924458333334,-0.2369940416666666,-3.5222217916666665,-0.0167551608191455,0.0083775804095727,0.0823795406941323,0.1328597972360258,6.469522230510734,-0.061284569794942456
1403637152588318976,49.277067,1320.2359366526427,9.177389958333332,0.0081722083333333,-1.9776744166666664,-0.0006981317007977,0.0956440430092892,-0.0090757121103705,0.09634582956523015,6.399484160601257,-0.0700380699094767
1403637152638319104,51.180125,1432.1868093068488,10.043644041666663,0.7273265416666667,-3.4813607499999994,0.0027925268031909,0.0216420827247296,0.1130973355292325,0.2223028919450132,6.166809640814764,-0.23267451978649323
1403637152688318976,60.361385,1261.200018378694,8.351996916666666,-0.612915625,-3.0564059166666664,-0.0390953752446729,0.0551524043630208,0.0516617458590321,0.10571224413800173,6.055183756532209,-0.11162588428255482
1403637152738319104,50.130844,1215.196690985121,9.667722458333332,-0.0817220833333333,-3.178989041666666,0.0642281164733913,0.1445132620651305,0.1186823891356144,0.06656837064366719,5.996921404789915,-0.058262351742293994
1403637152788318976,39.016247,1065.1792701923123,10.329671333333332,0.784532,-3.3015721666666664,-0.0251327412287183,0.1494001839707146,0.0900589894029074,0.04343834030080353,5.968689897256006,-0.028231507533909017
1403637152838319104,60.914516,1131.907091378509,9.65955025,-0.8253930416666666,-4.2822371666666665,0.018151424220741,0.0558505360638185,0.1333431548523667,0.09725995204211224,6.018216361912809,0.04952646465680299
1403637152888318976,39.41226,1038.2507152461626,8.490924458333334,0.6537766666666667,-4.502886791666667,0.0167551608191455,0.0928515162060983,-0.0118682389135614,0.10873456045298617,6.0456693161973,0.027452954284490794
1403637152938319104,49.887896,951.5528212783051,10.525804333333332,-0.0735498749999999,-3.603943875,-0.0495673507566389,0.1500983156715123,-0.0300196631343024,0.08658260248475173,6.096846854996505,0.05117753879920528
1403637152988318976,50.108671,1236.235228986984,10.141710541666669,0.1879607916666666,-4.339442625,0.0502654824574366,0.0767944870877505,0.1019272283164688,0.05497954399298193,6.090892195929112,-0.005954659067392676
1403637153038319104,49.757719,1126.2798052553858,8.131347291666666,0.8989429166666666,-3.358777625,-0.0802851455917391,-0.0041887902047863,0.0593411945678072,0.10479915445019317,6.111245136564822,0.020352940635709693
1403637153088318976,65.911293,1225.119919036793,9.675894666666666,-0.93163175,-2.79489525,0.0,0.0272271363311115,0.0279252680319092,0.05642691787389333,6.155315033157043,0.04406989659222127
1403637153138319104,33.255816,1295.6183675976306,6.995410333333333,0.8825985,-2.018535458333333,-0.0020943951023931,-0.0460766922526503,0.0677187749773799,0.15542050851036407,6.201371763156689,0.04605672999964572
1403637153188318976,61.303854,1232.691858729231,8.09048625,0.3514049583333333,-3.366949833333333,-0.0342084533390888,-0.0523598775598298,0.0209439510239319,0.13059605154777912,6.308920292561402,0.10754852940471338
1403637153238319104,39.555072,1169.6233715265175,8.507268875,0.2043052083333333,-3.38329425,0.0111701072127637,0.0307177948351002,-0.0090757121103705,0.13957460179151546,6.400816604469932,0.09189631190852943
1403637153288318976,61.062336,1227.0554346996223,10.207088208333332,0.5066769166666666,-3.391466458333333,-0.0237364778271228,0.0244346095279206,0.0474729556542457,0.15556851926210022,6.455574190943106,0.05475758647317441
1403637153338319104,39.060116,1179.6491810254167,8.409202375,0.0735498749999999,-2.508867958333333,-0.054454272662223,0.0767944870877505,0.0251327412287183,0.22584327541012122,6.602141500366852,0.1465673094237463
1403637153388318976,49.023628,1297.1944407245262,10.223432625,0.0,-4.053415333333333,0.0048869219055841,-0.0321140582366956,0.0446804288510548,0.186086516220354,6.719705193936315,0.11756369356946283
1403637153438319104,55.881501,1271.316783202638,9.022118,0.122583125,-3.857282333333333,-0.0474729556542457,-0.0698131700797731,0.036302848441482,0.15649257159975788,6.757557332600335,0.03785213866401982
1403637153488318976,49.797535,1237.0877655927195,8.482752249999999,-1.348414375,-3.072750333333333,-0.0188495559215387,-0.104021623418862,-0.0167551608191455,0.19631714664466995,6.93440255721777,0.17684522461743502
1403637153538319104,62.841415,1298.186031115722,8.891362666666666,0.1062387083333333,-3.947176625,0.025830872929516,-0.1061160185212552,0.093549647906896,0.1843926447515779,7.096201929512942,0.16179937229517183
1403637153588318976,32.544375,1176.1173377371038,9.07115125,0.2043052083333333,-3.612116083333333,-0.0230383461263251,0.0293215314335047,0.1026253600172665,0.18344958909668896,7.2024776488452655,0.1062757193323236
1403637153638319104,49.864292,1098.3450752359151,10.190743791666666,0.2124774166666666,-3.881798958333333,0.0397935069454707,0.08307767239493,0.1242674427419962,0.251423140128247,7.304217232832902,0.10173958398763627
1403637153688318976,50.174474,1027.9501411818285,8.662540833333333,0.6864655000000001,-3.391466458333333,-0.0307177948351002,0.0411897703470661,0.0551524043630208,0.30006932255893465,7.4395075120529786,0.13529027922007675
1403637153738319104,49.711705,919.1990500730016,7.510259458333333,-0.3595771666666666,-4.535575625,-0.0376991118430775,0.1277581012459849,0.0418879020478639,0.34151222138533693,7.541701177125991,0.10219366507301242
1403637153788318976,60.63056,986.2456416675312,8.850501625,0.1470997499999999,-2.8847895416666667,0.0404916386462684,0.0774926187885482,0.1766273203018261,0.5554712098097946,7.702386734120406,0.160685556994415
1403637153838319104,55.140972,951.6414704680348,8.180380541666665,0.8008764166666666,-3.1544724166666662,-0.0027925268031909,0.1850049007113989,0.0097738438111682,0.3646456203758032,7.810605970148007,0.10821923602760108
1403637153888318976,34.429073,1088.8525978577586,8.000591958333333,-0.5883989999999999,-2.9583394166666666,-0.0565486677646162,0.0621337213709981,0.1137954672300302,0.34177730345713436,7.858048426325342,0.047442456177335224
1403637153938319104,49.550057,1063.0737523503417,9.855683249999998,0.0653776666666666,-3.342433208333333,0.0439822971502571,0.1117010721276371,0.1654572130890624,0.2367939126229528,7.815617916381311,-0.042430509944031414
1403637153988318976,50.549745,1185.9422698684418,7.624670374999999,0.1470997499999999,-2.868445125,-0.0209439510239319,0.0851720674973232,0.0328121899374933,0.13687548431443983,7.849966734330183,0.03434881794887179
1403637154038319104,49.429178,1226.2521536333322,7.134337875,0.2043052083333333,-2.3699404166666667,0.0034906585039886,-0.0823795406941323,0.1382300767579508,0.3896023120365847,7.615645253711908,-0.2343214806182745
1403637154088318976,61.093569,1071.82002968247,9.013945791666666,0.171616375,-3.5222217916666665,0.0439822971502571,-0.1200786525372098,0.1954768762233649,0.3671760925737431,7.495743298553907,-0.11990195515800117
1403637154138319104,38.674116,928.6126585053554,6.913688249999999,1.12776475,-1.6998193333333331,0.1012290966156711,-0.1333431548523667,0.3351032163829112,0.5256495955985198,7.2157522772716725,-0.2799910212822345
1403637154188318976,61.371327,735.3714396754439,9.75761675,-1.2830367083333332,-3.612116083333333,0.0921533845053006,-0.2387610416728242,0.4879940588576146,0.4208246234906763,6.982609154349717,-0.23314312292195538
1403637154238319104,38.976669,1053.3233626988458,7.518431666666666,0.73549875,-2.2473572916666664,0.0816814089933346,-0.054454272662223,0.2883283924294632,0.5772017906898378,6.5974208140626,-0.385188340287117
1403637154288318976,52.119017,1055.8200260473077,8.654368624999998,0.0817220833333333,-2.5415567916666664,0.0621337213709981,-0.0719075651821663,0.2666863097047335,0.32704856218940476,6.416289041521221,-0.18113177254137902
1403637154338319104,48.981428,1079.5234808018893,11.048825666666666,0.1389275416666666,-4.323098208333334,-0.0586430628670094,-0.0844739357965255,0.0495673507566389,0.36399271333395455,6.270116796779687,-0.14617224474153367
1403637154388318976,61.919451,891.3646418163092,8.572646541666666,-0.3350605416666666,-2.557901208333333,-0.0677187749773799,0.1850049007113989,-0.1019272283164688,0.24869983433655846,6.233401625320514,-0.036715171459173135
1403637154438319104,55.835962,788.7562820638266,9.684066875,0.1307553333333333,-2.7131731666666665,-0.0593411945678072,0.1570796326794896,-0.0907571211037051,0.5725595450014024,5.863045720273145,-0.3703559050473695
1403637154488318976,32.388687,871.4861386268117,8.801468374999999,1.1114203333333332,-3.334261,-0.075398223686155,0.1891936909161853,-0.1207767842380075,0.2332066643490099,5.901849582094363,0.03880386182121853
1403637154538319104,61.796665,857.4388679832506,9.65955025,-0.2369940416666666,-3.1299557916666663,-0.1556833692778942,-0.0453785605518525,-0.0726056968829641,0.25766224349606737,6.0566468339204915,0.15479725182612825
1403637154588318976,53.178549,824.6763748272482,7.902525458333333,-0.1552719583333333,-4.192342875,-0.0998328332140756,0.1214749159388053,-0.1368338133563554,0.3045669617253406,6.245371971567472,0.18872513764698073
1403637154638319104,46.325207,797.8294256681748,9.381695166666669,0.220649625,-3.979865458333333,-0.1061160185212552,-0.0921533845053006,-0.0767944870877505,0.2878093830237871,6.360171654576018,0.11479968300854537
1403637154688318976,37.501573,737.4086416539785,9.888372083333332,-0.5475379583333333,-2.280046125,-0.1731366617978375,-0.0893608577021096,-0.1033234917180643,0.28222360445386063,6.44233935312646,0.08216769855044248
1403637154738319104,50.372362,768.4853706927357,9.667722458333332,1.0215260416666667,-3.751043625,-0.1982694030265558,-0.1123992038284348,-0.0125663706143591,0.2684092360373493,6.466299734514741,0.023960381388280716
1403637154788318976,50.419093,638.4091915798463,10.509459916666668,-0.6946377083333333,-4.208687291666666,-0.2303834612632515,-0.1689478715930511,0.124965574442794,0.29743397879084205,6.638230911781694,0.17193117726695295
1403637154838319104,48.774957,645.0843085281297,9.242767625,-0.1062387083333333,-3.554910625,-0.2122320370425104,-0.1591740277818828,0.1647590813882647,0.32268748930393293,6.865302055365157,0.22707114358346292
1403637154888318976,50.004483,724.6921314485988,9.618689208333333,0.5883989999999999,-4.36395925,-0.2478367537831947,-0.1200786525372098,0.0537561409614253,0.2336625498786899,7.003927497876308,0.1386254425111515
1403637154938319104,61.530113,732.461484072142,9.414383999999998,-0.6701210833333332,-3.603943875,-0.1947787445225671,-0.0523598775598298,0.2192133540504878,0.3383001990619629,7.239296343601633,0.23536884572532468
1403637154988318976,38.551092,796.617435793992,10.533976541666666,-0.4004382083333333,-3.849110125,-0.1396263401595463,0.0146607657167523,0.179419847105017,0.2441797831705047,7.428202170219454,0.1889058266178214
1403637155038319104,66.217661,651.4887083133583,10.468598874999998,0.0980665,-3.293399958333333,-0.2429498318776106,0.1424188669627373,0.1654572130890624,0.34748917290046494,7.550891531948839,0.1226893617293845
1403637155088318976,45.455456,502.9059299880109,11.253130874999998,-0.8744262916666666,-4.1024485833333335,-0.2834414705238791,0.2981022362406315,0.1766273203018261,0.5412308354491625,7.805773269708753,0.25488173775991463
1403637155138319104,39.148569,537.8794256376895,9.496106083333332,0.7600153749999999,-4.592781083333333,-0.2303834612632515,0.2492330171847902,0.2359685148696333,0.25425152093995745,7.958974582083133,0.15320131237437984
1403637155188318976,65.080166,615.5294269908566,9.062979041666669,-0.63743225,-4.069759749999999,-0.239459173373622,0.1480039205691191,0.1891936909161853,0.28329583740803704,8.105222961052355,0.14624837896922216
1403637155238319104,44.983625,526.7554379957154,10.207088208333332,-0.0735498749999999,-2.966511625,-0.124965574442794,0.1864011641129944,0.1647590813882647,0.34356498615509456,8.38827480529941,0.2830518442470549
1403637155288318976,39.844036,611.9333567853728,9.839338833333333,-0.1470997499999999,-2.655967708333333,-0.1494001839707146,0.2171189589480945,0.0949459113084915,0.31438373372719697,8.380183834463116,-0.008090970836294176
1403637155338319104,50.107956,676.5690724452136,8.294791458333332,0.2778550833333333,-2.2963905416666663,-0.1633628179866692,0.1298524963483781,0.1633628179866692,0.2953622583840967,8.529340577012237,0.14915674254912048
1403637155388318976,49.925089,597.0057702701191,11.343025166666669,0.0653776666666666,-4.0125542916666666,-0.1752310569002306,0.1382300767579508,0.210835773640915,0.35817148344274,8.784341964216123,0.25500138720388676
1403637155438319104,60.297489,637.3944425660807,8.098658458333333,0.04903325,-2.9583394166666666,-0.3022910264454179,0.0914552528045028,0.1989675347273535,0.3497867045994476,8.809169646041262,0.024827681825138725
1403637155488318976,39.504528,668.4034721061063,8.858673833333333,-0.53936575,-3.9880376666666666,-0.2562143341927675,0.1375319450571531,0.2988003679414292,0.24191298428577,8.942106480841105,0.13293683479984253
1403637155538319104,60.67729,765.6762635529839,7.273265416666667,0.196133,-4.086104166666667,-0.2303834612632515,0.0034906585039886,0.2492330171847902,0.2726852737831742,9.108910896494027,0.1668044156529227
1403637155588318976,39.126873,757.7226284753657,8.866846041666665,0.0980665,-2.9011339583333333,-0.1940806128217694,0.1179842574348166,0.3169517921621702,0.20374997409144335,9.238193934984231,0.12928303849020395
1403637155638319104,50.139427,776.6904162010054,8.605335375,-0.0326888333333333,-3.048233708333333,-0.1843067690106012,-0.0767944870877505,0.3106686068549906,0.20389830626611383,9.366260269028306,0.12806633404407464
1403637155688318976,50.112009,783.2439467417804,9.357178541666666,0.4903325,-4.404820291666666,-0.1905899543177807,0.0397935069454707,0.2492330171847902,0.2973799338870537,9.573059114459,0.2067988454306935
1403637155738319104,54.673672,768.8269600433307,8.343824708333333,-0.04903325,-2.043052083333333,-0.228987197861656,-0.0104719755119659,0.2541199390903744,0.22282129389201819,9.694489902477219,0.12143078801821972
1403637155788318976,47.918797,764.9844377419363,9.749444541666666,0.63743225,-3.0318892916666664,-0.2673844414055313,0.0733038285837618,0.3050835532486088,0.3877035966475366,10.012953789742205,0.3184638872649863
1403637155838319104,47.349214,681.1276511023977,7.322298666666667,0.2124774166666666,-3.3751220416666667,-0.3658210112180114,-0.0418879020478639,0.3169517921621702,0.311571564683138,10.239375183909065,0.22642139416685936
1403637155888318976,50.048351,579.8426710361894,9.831166624999998,0.4004382083333333,-2.79489525,-0.4314453910929983,0.0069813170079773,0.1591740277818828,0.8161271367206532,10.975882503201394,0.736507319292329
1403637155938319104,50.142527,582.5036014775892,9.814822208333332,0.2043052083333333,-3.751043625,-0.4433136300065596,-0.0216420827247296,0.2687807048071267,0.38217437312472885,11.254324641835572,0.278442138634178
1403637155988318976,49.918413,626.0672843781524,9.422556208333331,0.7191543333333333,-2.6886565416666666,-0.4461061568097506,0.0691150383789754,0.2450442269800038,0.2745871556635511,11.419153813638241,0.1648291718026691
1403637156038319104,49.886942,639.5456518056653,9.888372083333332,-0.4086104166666666,-3.097266958333333,-0.4237659423842232,0.1382300767579508,0.325329372571743,0.3337377306684558,11.682990432398338,0.2638366187600969
1403637156088318976,49.02482,714.5684258637399,11.302164125,0.7109821249999999,-3.4568441249999995,-0.4265584691874141,0.0670206432765822,0.3839724354387525,0.3652961765388684,11.969341239052959,0.286350806654621
1403637156138319104,50.86875,662.1831714324009,7.412192958333333,-0.6537766666666667,-2.3454237916666667,-0.5138249317871306,0.1172861257340189,0.2701769682087222,0.7017333848214508,12.571538940485707,0.6021977014327486
1403637156188318976,51.827192,685.6814695298045,10.133538333333334,-0.220649625,-2.1411185833333333,-0.4495968153137393,0.1417207352619395,0.3686135380212024,0.49552445363446634,12.985823833543947,0.41428489305823923
1403637156238319104,49.62492,683.9198704163554,10.525804333333332,-0.5148491249999999,-4.2168595,-0.5424483315198376,0.0705113017805709,0.3120648702565861,0.43704154611662344,13.33683569718294,0.35101186363899295
1403637156288318976,49.503088,692.3662815922711,7.559292708333333,0.1062387083333333,-3.4977051666666665,-0.5173155902911193,0.0642281164733913,0.3281218993749339,0.2438992279148212,13.502587879278394,0.16575218209545461
1403637156338319104,61.525822,693.4790601414538,9.945577541666664,0.220649625,-3.759215833333333,-0.5138249317871306,0.1075122819228507,0.2778564169174973,0.4376976913752105,13.834375559431844,0.3317876801534503
1403637156388318976,38.314104,697.6169764719758,8.67888525,-0.34323275,-2.745862,-0.5592034923389831,0.0328121899374933,0.2611012560983517,0.562349716361608,14.25247420763367,0.4180986482018252
1403637156438319104,49.725533,719.6015897618172,8.605335375,0.6292600416666666,-4.568264458333333,-0.5522221753310059,0.08307767239493,0.2694788365079245,0.2667892350626371,14.31728540751438,0.06481119988070994
1403637156488318976,61.678648,704.4373204035692,9.046634625,0.0817220833333333,-1.9041245416666663,-0.518013721991917,0.1382300767579508,0.2590068609959585,0.5295652852073338,14.709029434380664,0.3917440268662844
1403637156538319104,38.773059,693.63659350958,8.744262916666667,-0.0898942916666666,-3.3751220416666667,-0.5452408583230285,0.0153588974175501,0.3050835532486088,0.21355816721629395,14.603878305684253,-0.10515112869641108
1403637156588318976,49.860478,700.0521862805786,7.657359208333333,-0.04903325,-3.4323274999999995,-0.5696754678509492,0.0865683308989187,0.1647590813882647,0.24017875466174696,14.674555024113983,0.07067671842973056
1403637156638319104,49.927473,705.0458303553405,7.665531416666666,0.5720545833333333,-4.028898708333333,-0.5298819609054785,0.1172861257340189,0.2234021442552742,0.23409417300829138,14.729530574048077,0.05497554993409359
1403637156688318976,65.290689,696.1148483993601,7.984247541666667,-1.2748645,-3.334261,-0.5738642580557356,0.1186823891356144,0.1375319450571531,0.12418965525722464,14.715056945576855,-0.014473628471222355
1403637156738319104,45.313836,726.9298944451218,8.989429166666666,0.1634441666666666,-3.963521041666666,-0.4586725274241098,0.0104719755119659,0.1668534764906579,0.4725757314547595,14.299043870839851,-0.41601307473700366
1403637156788318976,50.443887,632.8147576052287,9.487933875,-0.0326888333333333,-3.334261,-0.4412192349041665,-0.0230383461263251,0.018151424220741,0.6261613615356424,14.6119597880431,0.31291591720324874
1403637156838319104,38.535118,609.5628817884794,8.28661925,-0.465815875,-3.979865458333333,-0.403520123061089,-0.1305506280491758,-0.0083775804095727,0.28202610952974216,14.631403699077804,0.019443911034704442
1403637156888318976,50.02594,694.6615355191516,9.863855458333331,-0.1797885833333333,-4.233203916666667,-0.2820452071222836,-0.1110029404268393,0.018151424220741,0.3227513143634293,14.606077169570183,-0.025326529507621487
1403637156938319104,49.939394,709.4603323364641,9.095667875,-0.784532,-4.2168595,-0.2834414705238791,-0.0034906585039886,-0.0335103216382911,1.03930671633011,14.947150223474159,0.34107305390397613
1403637156988318976,50.178767,764.232407502834,7.739081291666666,-0.0163444166666666,-2.459834708333333,-0.1368338133563554,-0.0460766922526503,0.0251327412287183,0.6138975325431147,15.083556910622056,0.13640668714789683
1403637157038319104,49.965143,874.0045388179786,9.5124505,-0.5311935416666667,-3.8164212916666655,-0.0781907504893459,-0.1487020522699168,0.1654572130890624,0.5452168613471782,15.448087349584574,0.36453043896251813
1403637157088318976,50.221681,926.139275642711,9.185562166666664,0.6537766666666667,-2.1738074166666665,-0.0328121899374933,-0.0237364778271228,0.1424188669627373,0.8695674087959028,15.995764182012648,0.5476768324280741
1403637157138319104,50.013543,1077.524766603202,9.07115125,-0.2615106666666666,-3.064578125,0.0328121899374933,-0.0502654824574366,0.153588974175501,0.17835285842490647,16.04193037946981,0.046166197457162994
1403637157188318976,60.961008,1141.0052157182693,9.937405333333334,0.4004382083333333,-4.75622525,0.0027925268031909,0.057246799465414,0.1675516081914556,0.5937064728262097,16.359548577069408,0.31761819759959664
1403637157238319104,38.589239,1118.1232867789606,10.983448,-0.3350605416666666,-4.445681333333333,0.0579449311662117,0.0460766922526503,0.1933824811209717,0.5020139591947042,16.692565856496927,0.33301727942751924
1403637157288318976,49.006462,1125.353642760047,9.218251,-0.1797885833333333,-2.5415567916666664,0.085870199198121,0.0265290046303138,0.1703441349946465,0.2015879395500058,16.74062750029345,0.048061643796522446
1403637157338319104,61.969757,1130.3643630180627,9.185562166666664,0.220649625,-2.3454237916666667,0.0726056968829641,0.0411897703470661,0.1445132620651305,0.47899028426230117,17.055380494658056,0.314752994364607
1403637157388318976,38.234949,1003.481647393667,10.713765125,-0.0735498749999999,-3.857282333333333,0.1494001839707146,0.0083775804095727,0.3134611336581816,0.12282406655668432,17.01878550778725,-0.03659498687080642
1403637157438319104,50.725937,1101.383416305894,9.398039583333333,-0.24516625,-5.066769166666667,0.1214749159388053,-0.0432841654494593,0.2164208272472968,0.35609465206950586,16.731701591595247,-0.28708391619200313
1403637157488318976,50.07863,1073.208113130425,9.013945791666666,-0.2043052083333333,-2.7867230416666664,0.0872664625997164,0.1235693110411985,0.1291543646475804,0.2688290652661136,16.5363012076665,-0.19540038392874592
1403637157538319104,60.732603,1118.7742865591572,11.923251958333331,-0.0408610416666666,-3.685665958333333,0.1263618378443894,0.0733038285837618,0.1731366617978375,0.36774947156073357,16.406122160040184,-0.13017904762631716
1403637157588318976,39.261818,1151.8880465456407,9.357178541666666,-0.1879607916666666,-2.999200458333333,0.0509636141582344,-0.0621337213709981,0.036302848441482,0.2656008301276577,16.134697162272698,-0.2714249977674861
1403637157638319104,49.918413,1169.135916241853,8.817812791666666,0.0408610416666666,-3.652977125,0.0523598775598298,0.0265290046303138,0.0628318530717958,0.18483910550686516,16.04478871748748,-0.08990844478521609
1403637157688318976,50.093651,1122.468975682525,10.109021708333332,-0.9970094166666666,-2.50069575,0.0663225115757845,0.0481710873550434,0.1026253600172665,0.22466926509475543,15.988857614835078,-0.0559311026524032
1403637157738319104,50.004244,1112.5373947221071,11.32668075,-0.9152873333333332,-4.993219291666667,0.0530580092606276,0.1068141502220529,0.0600393262686049,0.18402804665116787,15.717621725364653,-0.2712358894704252
1403637157788318976,49.865484,900.645363492116,8.825985,-0.7109821249999999,-2.6477955,-0.0104719755119659,0.0788888821901436,-0.0816814089933346,0.11361716904035647,15.483903916254043,-0.23371780911061002
1403637157838319104,49.98827,886.8078488245217,9.5124505,0.0163444166666666,-3.415983083333333,-0.0216420827247296,0.1459095254667259,-0.0048869219055841,0.7799946731666542,14.777166970782165,-0.7067369454718779
1403637157888318976,49.916029,743.677623246554,8.368341333333333,0.0898942916666666,-2.40262925,-0.028623399732707,0.2261946710584651,-0.0907571211037051,0.215800431559241,14.483497660663414,-0.2936693101187515
1403637157938319104,60.315609,875.7454201583821,9.610517,-0.53936575,-4.028898708333333,-0.0230383461263251,0.1291543646475804,-0.0279252680319092,0.30270606806999145,14.048381222191178,-0.43511643847223525
1403637157988318976,62.142134,892.1027128111482,9.26728425,0.220649625,-3.2525389166666665,-0.0132645023151569,0.1724385300970397,-0.0390953752446729,0.31062998133321185,13.648795730281272,-0.39958549190990666
1403637158038319104,45.019626,592.6117235962714,11.269475291666666,-0.44129925,-3.612116083333333,-0.1103048087260416,0.0397935069454707,-0.1549852375770964,0.31180581363342696,13.491041590047281,-0.15775414023399037
1403637158088318976,32.635451,676.4307723684728,8.77695175,-0.5066769166666666,-3.097266958333333,0.0062831853071795,0.0586430628670094,-0.0411897703470661,0.36943831699687635,13.122723916221618,-0.36831767382566305
1403637158138319104,49.785375,698.4793685444063,10.182571583333331,0.465815875,-1.7243359583333333,0.0132645023151569,0.0837758040957278,0.028623399732707,0.36120035677125595,12.714214059324613,-0.40850985689700536
1403637158188318976,50.195933,689.2799598801756,10.501287708333331,-0.44129925,-3.661149333333333,-0.0020943951023931,0.0781907504893459,0.0844739357965255,0.287180707327052,12.310806890671007,-0.40340716865360626
1403637158238319104,49.642324,629.1635280771343,9.26728425,0.0081722083333333,-4.437509125,-0.1012290966156711,-0.0816814089933346,0.0740019602845595,0.4982680097623457,11.904162402298631,-0.40664448837237543
1403637158288318976,50.353766,605.9637366041248,10.198916,0.3514049583333333,-2.30456275,-0.1340412865531645,-0.036302848441482,0.0865683308989187,0.708725504022263,11.480890414368728,-0.42327198792990295
1403637158338319104,49.759149,342.7960725402372,7.493915041666666,-0.0735498749999999,-2.263701708333333,-0.2073451151369263,0.0537561409614253,0.1487020522699168,0.529338737073266,11.661677856883877,0.18078744251514856
1403637158388318976,60.836315,332.18816129060565,10.329671333333332,0.6701210833333332,-4.225031708333333,-0.2031563249321399,0.0432841654494593,0.2687807048071267,0.23261842280897915,11.703965119729713,0.04228726284583573
1403637158438319104,39.319754,290.2625494735668,6.938204874999999,-0.4331270416666666,-2.4189736666666666,-0.2925171826342496,0.093549647906896,0.2101376419401172,1.0422210042547735,11.96386475519993,0.25989963547021766
1403637158488318976,50.035477,290.82614125875125,7.420365166666667,1.0950759166666666,-3.407810875,-0.3029891581462156,0.0900589894029074,0.2981022362406315,0.45063072483120326,12.100733779687001,0.13686902448707094
1403637158538319104,49.185991,261.8356384883366,9.569655958333334,-0.6292600416666666,-3.3751220416666667,-0.3553490357060455,-0.0160570291183478,0.4384267081009756,0.68866850291743,12.306028406562032,0.20529462687503042
1403637158588318976,50.922155,266.0062842686491,8.703401874999999,-0.5066769166666666,-3.4813607499999994,-0.2974041045398337,-0.0272271363311115,0.390255620745932,0.4623674834438412,12.374223499364806,0.06819509280277458
1403637158638319104,49.138308,242.3052326939774,9.283628666666663,-0.4004382083333333,-2.9338227916666666,-0.450294947014537,0.1298524963483781,0.3497639820996636,0.4466690871977118,12.568565167165483,0.19434166780067663
1403637158688318976,60.900211,255.8576767581855,9.349006333333334,0.220649625,-4.535575625,-0.4300491276914028,0.0809832772925368,0.3518583772020568,0.3314964403977142,12.61119918059999,0.04263401343450646
1403637158738319104,39.596081,239.01351453993055,7.60015375,-0.956148375,-2.1983240416666665,-0.4768239516448508,-0.0516617458590321,0.2485348854839925,0.4311448959117768,12.724717204467803,0.11351802386781351
1403637158788318976,49.908638,241.3955865153324,10.182571583333331,0.6864655000000001,-2.974683833333333,-0.3755948550291797,-0.0446804288510548,0.2017600615305445,0.42598280183628234,12.88137858815902,0.15666138369121718
1403637158838319104,50.225973,239.3031671919602,8.77695175,-1.2340034583333332,-3.1054391666666663,-0.333008821280518,0.0097738438111682,0.1438151303643327,0.7141345556910994,13.161405493714298,0.2800269055552782
1403637158888318976,60.529709,247.92778441099549,10.550320958333334,-0.5148491249999999,-3.505877375,-0.249931148885588,0.0062831853071795,0.057246799465414,1.2309957087475742,13.811683994025412,0.6502785003111136
1403637158938319104,38.544417,236.91190762735263,9.103840083333331,0.24516625,-3.097266958333333,-0.2492330171847902,-0.1186823891356144,-0.0055850536063818,0.8288384975019837,14.27122330520891,0.459539311183498
1403637158988318976,61.241626,245.34279542746347,9.030290208333332,-0.3268883333333333,-3.7673880416666665,-0.2485348854839925,-0.0390953752446729,-0.007679448708775,0.33748194709005147,14.192027455971349,-0.07919584923756062
1403637159038319104,50.740958,253.7465547740302,12.536167583333333,-1.005181625,-4.445681333333333,-0.1389282084587486,0.0460766922526503,-0.0530580092606276,0.4649616548634308,14.225854838199375,0.033827382228025726
1403637159088318976,39.389133,263.1539330815226,9.9047165,-0.3595771666666666,-4.069759749999999,-0.0900589894029074,-0.025830872929516,0.1549852375770964,0.44855456890883033,13.877162496247522,-0.3486923419518533
1403637159138319104,49.818516,276.46852550776947,6.7502440833333335,0.661948875,-2.754034208333333,0.0139626340159546,0.0272271363311115,0.2450442269800038,0.26426273161233765,13.69249599362331,-0.1846665026242107
1403637159188318976,50.025463,289.5890633568746,7.518431666666666,-0.8008764166666666,-3.7919046666666665,0.0509636141582344,-0.0160570291183478,0.2750638901143063,0.20478406494468904,13.461655237531447,-0.2308407560918635
1403637159238319104,50.00782,299.4629078180887,10.558493166666668,0.367749375,-2.9338227916666666,0.0488692190558412,0.0300196631343024,0.1912880860185785,0.40597554544282327,13.37423799530312,-0.08741724222832659
1403637159288318976,48.812151,317.3613859543139,6.913688249999999,-0.5883989999999999,-2.124774166666666,0.028623399732707,-0.0195476876223364,0.171740398396242,0.2889443946609147,12.90169468040165,-0.47254331490147017
1403637159338319104,50.85659,311.64046431552623,8.237585999999999,-0.2778550833333333,-2.9583394166666666,0.0837758040957278,0.0705113017805709,0.2220058808536787,0.41450214434061544,12.649850779245961,-0.25184390115568966
1403637159388318976,65.577746,317.6524538375158,8.237585999999999,-0.4985047083333333,-2.0675687083333334,0.0586430628670094,0.075398223686155,0.0453785605518525,0.929378915702436,12.559000133124576,-0.09085064612138538
1403637159438319104,33.756733,298.63266967312944,10.386876791666666,-0.5883989999999999,-2.754034208333333,0.0174532925199432,-0.0083775804095727,0.0460766922526503,0.7101327908162631,12.448087158843881,-0.11091297428069424
1403637159488318976,61.225176,307.4551832594535,7.910697666666666,0.1389275416666666,-2.8602729166666667,0.0041887902047863,0.0474729556542457,-0.104021623418862,1.2909004023003794,12.603449427669421,0.15536226882553983
1403637159538319104,39.475917,216.64116096978196,9.210078791666666,-0.2941994999999999,-3.538566208333333,-0.0425860337486616,-0.1005309649148733,-0.132645023151569,0.8075687478411867,12.721029504308264,0.11758007663884307
1403637159588318976,59.883356,233.7185679048072,8.825985,-0.8172208333333333,-2.9174783749999995,-0.0188495559215387,-0.0314159265358979,-0.1514945790731078,1.2489155959431189,13.244431728901818,0.5234022245935535
1403637159638319104,40.004731,227.65290875042444,10.54214875,0.4494714583333333,-2.941995,0.0314159265358979,0.0390953752446729,-0.1193805208364121,0.7121279626356734,13.514623880640222,0.2701921517384047
1403637159688318976,50.020933,227.0472674117236,10.223432625,0.0,-5.181180083333333,-0.0111701072127637,-0.046774823953448,-0.0279252680319092,0.4923060014474923,12.956956560796309,-0.5576673198439135
1403637159738319104,49.867391,243.6603707163825,9.422556208333331,-1.0705592916666666,-4.355787041666666,-0.0132645023151569,0.0677187749773799,0.0174532925199432,0.31519947454440783,12.853737392895956,-0.10321916790035246
1403637159788318976,50.173998,225.24813616359145,10.533976541666666,-0.7927042083333332,-4.004382083333333,-0.028623399732707,0.1521927107739055,-0.0551524043630208,0.8541625603963465,13.305532271088612,0.45179487819265596
1403637159838319104,49.953699,234.23291288952356,9.520622708333333,0.367749375,-3.6202882916666654,-0.093549647906896,-0.0048869219055841,0.0055850536063818,0.4318979074939867,13.427229331674587,0.12169706058597463
1403637159888318976,50.086499,202.92989343613544,7.853492208333332,-0.2778550833333333,-3.530394,-0.1996656664281513,-0.0747000919853573,0.1473057888683213,0.12469784102568275,13.358941729019175,-0.06828760265541156
1403637159938319104,49.9475,200.56950325088573,7.534776083333333,0.6456044583333332,-3.1299557916666663,-0.2548180707911721,0.0279252680319092,0.1186823891356144,0.09544050217157102,13.099297180602568,-0.2596445484166079
1403637159988318976,50.225496,179.90941874931443,9.724927916666667,-0.4821602916666666,-3.28522775,-0.325329372571743,0.1689478715930511,0.2520255439879811,0.25250566630489407,12.827183732928818,-0.2721134476737497
1403637160038319104,48.900843,163.34361024017588,8.270274833333334,-0.8989429166666666,-2.631451083333333,-0.3316125578789226,0.2436479635784084,0.3385938748868999,0.186779060434534,12.56103483428391,-0.2661488986449072
1403637160088318976,61.534643,184.0168062060247,8.752435125,-0.4494714583333333,-4.380303666666666,-0.35395277230445,0.1480039205691191,0.3239331091701475,0.14126484013725632,12.286794318030804,-0.27424051625310675
1403637160138319104,39.210796,183.376041042216,10.623870833333331,0.3514049583333333,-4.617297708333333,-0.4551818689201211,0.1347394182539622,0.3790855135331683,0.7625347552854663,11.65509778762385,-0.6316965304069537
1403637160188318976,50.157786,192.9744337643129,8.38468575,-0.44129925,-3.538566208333333,-0.4991641660703782,0.0586430628670094,0.249931148885588,0.5607904285847292,11.11009303853382,-0.5450047490900296
1403637160238319104,53.56574,193.94378057725172,7.984247541666667,-0.3595771666666666,-2.69682875,-0.5033529562751646,0.1361356816555577,0.3141592653589793,0.43918679207085076,10.536367655701676,-0.5737253828321442
1403637160288318976,49.277306,188.78914989389497,8.834157208333334,0.0817220833333333,-3.4977051666666665,-0.5417501998190398,0.0984365698124801,0.2436479635784084,1.1292746665357105,9.453753035447324,-1.0826146202543523
1403637160338319104,57.876348,170.5097393902902,9.144701125,-0.5148491249999999,-4.0125542916666666,-0.6136577650012062,0.0460766922526503,0.346273323595675,0.3409423786129978,8.995868998666733,-0.457884036780591
1403637160388318976,49.528838,168.11567431929822,9.896544291666666,-0.8253930416666666,-3.178989041666666,-0.6164502918043971,-0.0307177948351002,0.3127630019573839,0.5915745329152973,8.512620091957846,-0.4832489067088872
1403637160438319104,40.51423,161.3147768435755,9.161045541666669,-0.392266,-2.7131731666666665,-0.7113962031128886,0.046774823953448,0.1850049007113989,0.3936965988073758,8.595686750867673,0.08306665890982678
1403637160488318976,50.247431,127.12224329087137,10.002783,-0.0081722083333333,-4.829775124999999,-0.671602696167418,-0.0788888821901436,0.1724385300970397,1.8936586872122834,9.691411039441352,1.0957242885736793
1403637160538319104,49.65806,131.85377223200425,9.054806833333332,-0.7436709583333333,-3.652977125,-0.7086036763096978,0.0090757121103705,0.1689478715930511,0.5275042805115151,9.158060450448472,-0.5333505889928798
1403637160588318976,50.052405,141.99997009645753,9.765788958333331,1.7570247916666666,-3.195333458333333,-0.6548475353482724,0.0293215314335047,0.2869321290278678,0.13738369229549624,9.053925086329354,-0.10413536411911828
1403637160638319104,49.918174,121.68591010036944,8.180380541666665,-2.034879875,-2.941995,-0.5989969992844539,-0.1549852375770964,0.278554548618295,0.5493662482540833,8.967413788725164,-0.08651129760418996
