stamp,img_delta,blur,lin_acc.x,lin_acc.y,lin_acc.z,ang_vel.x,ang_vel.y,ang_vel.z,rpe,ate,drift
1403638128995097088,50.141811,250.31315681426423,8.858673833333333,-0.024516625,-4.037070916666667,0.0111701072127637,0.0160570291183478,0.0872664625997164,0.4572243003754331,422.08277591480703,0.21637335391221768
1403638129045096960,49.827338,243.20966666453447,9.790305583333332,-0.196133,-4.077931958333333,0.0174532925199432,0.0160570291183478,0.0886627260013119,1.9620760076012367,421.184158583171,-0.8986173316360464
1403638129095097088,49.727916,241.48450729714725,9.259112041666668,-0.4004382083333333,-4.045243125,-0.0432841654494593,0.0118682389135614,-0.0837758040957278,2.6155296024971713,419.73011527133525,-1.4540433118357328
1403638129145096960,50.069809,206.05251895334092,9.128356708333332,0.367749375,-4.159654041666666,-0.0383972435438752,0.0328121899374933,-0.0097738438111682,7.72622924901714,414.68872965781645,-5.041385613518798
1403638129195097088,59.771538,133.5925591675299,9.455245041666666,0.563882375,-4.037070916666667,0.1340412865531645,0.2310815929640492,0.3811799086355615,19.217338164100518,398.1375785770739,-16.551151080742557
1403638129245096960,40.363312,98.40734748074745,9.455245041666666,0.563882375,-4.037070916666667,0.1340412865531645,0.2310815929640492,0.3811799086355615,35.20918489785208,368.2428376303571,-29.89474094671681
1403638129295097088,49.99423,102.19063483229826,9.9047165,-0.0081722083333333,-4.306753791666666,0.1626646862858715,0.4118977034706618,0.6995279641993272,53.48511010556507,325.7230336706902,-42.51980395966689
1403638129345096960,60.246706,100.99920646486731,8.850501625,-1.2340034583333332,-3.162644625,0.1487020522699168,0.3846705671395502,0.8105309046261666,50.8433821153071,296.35245613959984,-29.370577531090362
1403638129395097088,39.4485,152.65260786466467,8.850501625,-1.2340034583333332,-3.162644625,0.1487020522699168,0.3846705671395502,0.8105309046261666,38.24720425261751,282.8687292635888,-13.48372687601102
1403638129445096960,50.168276,297.531084944057,8.499096666666667,-1.4628252916666666,-2.950167208333333,0.0139626340159546,-0.0048869219055841,0.3623303527140228,20.684786681720478,272.73506962645297,-10.13365963713585
1403638129495097088,60.204029,136.51711808330086,9.259112041666668,-1.438308666666667,-3.563082833333333,-0.0321140582366956,-0.4719370297392667,-0.4335397861953914,7.422926872683252,270.1275357334242,-2.6075338930287444
1403638129545096960,39.762497,151.39393580567042,9.259112041666668,-1.438308666666667,-3.563082833333333,-0.0321140582366956,-0.4719370297392667,-0.4335397861953914,5.096192308457749,265.1795096248928,-4.948026108531451
1403638129595097088,50.143957,195.73816900192372,9.536967125,-0.4249548333333333,-3.906315583333333,-0.0411897703470661,-0.3776892501315729,-0.5473352534254218,7.721198708947941,258.8357542433514,-6.343755381541371
1403638129645096960,49.937725,232.89873629934047,9.733100125,-0.612915625,-4.192342875,-0.0642281164733913,-0.1982694030265558,-0.4335397861953914,16.2388821552641,249.6365074094415,-9.19924683390991
1403638129695097088,50.047636,154.57733396813452,9.250939833333334,-0.0081722083333333,-4.151481833333333,-0.0760963553869527,0.0565486677646162,-0.1654572130890624,23.23663129226751,242.3241853837538,-7.312322025687706
1403638129745096960,49.851894,154.8120370159895,9.275456458333332,-0.318716125,-3.947176625,0.0062831853071795,0.2143264321449036,0.1103048087260416,24.09502956519495,240.17368939339926,-2.1504959903545284
1403638129795097088,50.124169,221.41844177924568,9.324489708333331,-0.6210878333333334,-3.881798958333333,0.0474729556542457,0.0370009801422797,0.1487020522699168,26.554498069465982,237.73669390044952,-2.436995492949734
1403638129845096960,59.631109,197.88660139247435,9.782133375,-0.5066769166666666,-4.290409374999999,0.0523598775598298,-0.249931148885588,-0.0621337213709981,24.61039586315186,239.36607290588836,1.6293790054388353
1403638129895097088,40.061951,178.56585376145262,9.782133375,-0.5066769166666666,-4.290409374999999,0.0523598775598298,-0.249931148885588,-0.0621337213709981,544.470664170954,475.5695886287714,236.20351572288303
1403638129945096960,49.98374,162.7236040770634,10.1008495,-0.122583125,-4.56009225,0.028623399732707,-0.1130973355292325,-0.0886627260013119,69.11013158333236,405.24738700764635,-70.32220162112503
1403638129995097088,50.765037,110.04814299574656,9.953749749999998,-0.2941994999999999,-4.347614833333333,0.0481710873550434,0.1703441349946465,0.0907571211037051,74.92283779529754,329.70300525118176,-75.54438175646459
1403638130045096960,49.624443,93.40248287365364,9.741272333333333,0.0326888333333333,-4.339442625,0.0705113017805709,0.3686135380212024,0.3064798166502042,72.7432838412925,257.2068052016183,-72.49620004956347
1403638130095097088,49.625874,109.5704717974214,9.210078791666666,-0.7028099166666667,-3.930832208333333,0.0809832772925368,0.3378957431861022,0.3309144261781249,62.97003834214957,195.3220719865486,-61.8847332150697
1403638130145096960,50.323009,177.87261540513592,8.785123958333333,-0.7681875833333334,-3.6284605,0.1117010721276371,0.1926843494201739,0.200363798128949,50.97992064394433,149.0960277862001,-46.2260442003485
1403638130195097088,50.186396,216.78627260482807,9.16921775,-0.7600153749999999,-3.669321541666666,0.1158898623324234,0.0188495559215387,0.0090757121103705,43.4655970519597,111.74991516732521,-37.34611261887488
1403638130245096960,59.463978,201.6807769337605,9.479761666666668,-0.024516625,-3.8654545416666655,0.1263618378443894,0.1926843494201739,0.1661553447898601,23.174041229926072,116.67304820601261,4.923133038687396
1403638130295097088,39.84189,153.8403147155445,9.479761666666668,-0.024516625,-3.8654545416666655,0.1263618378443894,0.1926843494201739,0.1661553447898601,34.64712504065823,101.39690972480415,-15.276138481208463
1403638130345096960,50.684929,147.11747943015308,9.136528916666666,-0.7681875833333334,-3.571255041666667,0.0788888821901436,0.2932153143350474,0.3853686988403479,32.17857075708293,99.22296846971503,-2.173941255089119
1403638130395097088,49.655676,302.58336672902874,8.77695175,-0.4739880833333333,-3.4731885416666666,0.1207767842380075,0.2527236756887789,0.364424747816416,27.851749190373624,107.97231191478258,8.749343445067552
1403638130445096960,59.91745,335.3425773842339,8.817812791666666,-0.7109821249999999,-3.4813607499999994,0.1082104136236484,-0.0335103216382911,-0.0921533845053006,22.00138433013666,118.88877949674284,10.916467581960262
1403638130495097088,49.53289,384.05646410712063,8.891362666666666,-0.9724927916666666,-3.546738416666667,0.0027925268031909,-0.1019272283164688,-0.21851522234969,17.769129520804288,130.17566738943188,11.286887892689037
1403638130545096960,40.352345,462.4861496905044,8.891362666666666,-0.9724927916666666,-3.546738416666667,0.0027925268031909,-0.1019272283164688,-0.21851522234969,16.19750865876292,142.99067069270956,12.815003303277678
1403638130595097088,59.632539,340.83552234377777,8.981256958333333,-0.3350605416666666,-3.571255041666667,-0.0146607657167523,0.2171189589480945,0.064926248174189,379.9378116783541,306.7897149365031,163.79904424379356
1403638130645096960,40.715456,270.1360158209597,8.981256958333333,-0.3350605416666666,-3.571255041666667,-0.0146607657167523,0.2171189589480945,0.064926248174189,19.927323561562346,287.89124141920934,-18.89847351729378
1403638130695097088,49.982071,315.7954478655984,9.144701125,-0.73549875,-3.260711125,-0.0020943951023931,0.2820452071222836,0.265290046303138,18.447830646484466,270.97795930757025,-16.91328211163909
1403638130745096960,50.008774,368.44707460622845,8.793296166666666,-0.8253930416666666,-2.852100708333333,0.1110029404268393,0.3371976114853044,0.5229006438975011,18.090960679067788,254.75839492436103,-16.219564383209217
1403638130795097088,50.208569,497.5754890978074,8.760607333333333,-0.7109821249999999,-2.8847895416666667,0.1647590813882647,0.1773254520026238,0.5068436147791533,15.341826265274483,241.22553191643982,-13.532863007921208
1403638130845096960,64.294576,1228.597950490845,7.812631166666666,-1.005181625,-2.778550833333333,0.0984365698124801,0.0795870138909414,0.1480039205691191,11.365513241335073,232.6596136521427,-8.565918264297125
1403638130895097088,35.849571,1042.368546869713,7.812631166666666,-1.005181625,-2.778550833333333,0.0984365698124801,0.0795870138909414,0.1480039205691191,7.56565305930957,226.93807259524013,-5.721541056902566
1403638130945096960,57.27768,577.8571249712156,8.204897166666667,-0.7927042083333332,-2.6477955,-0.0593411945678072,0.2597049926967562,0.1361356816555577,1.983096460549104,225.03089340520322,-1.9071791900369135
1403638130995097088,44.451713,589.3531258836758,7.412192958333333,-0.83356525,-2.1411185833333333,-0.1284562329467826,0.4586725274241098,0.1577777643802873,0.933985778669875,225.32120966679284,0.29031626158962354
1403638131045096960,48.541546,811.5993042082367,7.559292708333333,-1.4301364583333334,-1.6834749166666665,-0.0726056968829641,0.3965388060531116,0.1968731396249603,0.1608461391046706,225.4811799765767,0.1599703097838585
1403638131095097088,49.896241,1172.5257257891176,7.436709583333332,-1.1522813749999998,-1.7161637499999998,-0.1005309649148733,0.1696460032938488,0.0202458193231342,0.7428935053175151,226.26952817971465,0.7883482031379572
1403638131145096960,50.165176,711.9683867011648,7.918869874999999,-1.3647587916666666,-1.8060580416666667,-0.0251327412287183,-0.124965574442794,-0.0677187749773799,0.9921551546803735,227.3060175054034,1.0364893256887342
1403638131195097088,49.683094,601.0907108317359,8.629852,-1.495514125,-2.231012875,-0.0349065850398865,-0.3351032163829112,-0.2464404903815993,1.372561993343251,228.74558364898746,1.4395661435840736
1403638131245096960,50.241947,596.6653425379096,8.719746291666667,-0.980665,-2.59876225,-0.075398223686155,-0.418879020478639,-0.35395277230445,1.6638490909861958,230.34831577524716,1.6027321262596956
1403638131295097088,49.573898,575.2819232041655,8.948568125,-0.6701210833333332,-2.9011339583333333,-0.0111701072127637,-0.3211405823669566,-0.2094395102393195,36.75556456684901,260.372302980144,30.023987204896855
1403638131345096960,60.289145,856.218063922938,8.842329416666665,-0.7191543333333333,-3.260711125,-0.0523598775598298,0.028623399732707,0.0942477796076938,3.366369793460006,263.66150008428264,3.2891971041386228
1403638131395097088,40.057898,959.9498554523196,8.842329416666665,-0.7191543333333333,-3.260711125,-0.0523598775598298,0.028623399732707,0.0942477796076938,1.678982325960527,264.2273417638699,0.5658416795872654
1403638131445096960,49.962282,658.6880199578851,9.26728425,-0.6864655000000001,-3.2361945,-0.0328121899374933,0.0726056968829641,0.1228711793404008,6.5195662676397035,270.5898996828191,6.362557918949221
1403638131495097088,49.925327,525.2422066786806,8.548129916666667,-0.3105439166666667,-3.064578125,-0.1333431548523667,0.0195476876223364,-0.1514945790731078,2.5873051061556116,270.8434363966218,0.2535367138027027
1403638131545096960,50.080299,475.9399196698551,8.580818749999999,-1.12776475,-2.852100708333333,-0.0335103216382911,-0.0872664625997164,0.0195476876223364,3.296217314065593,274.22117161110293,3.377735214481106
1403638131595097088,59.776783,283.6935879763585,9.275456458333332,-0.63743225,-2.974683833333333,0.0083775804095727,-0.0914552528045028,-0.0397935069454707,9.629445978697294,283.5820290793479,9.360857468244944
1403638131645096960,39.88123,411.8155446564698,9.275456458333332,-0.63743225,-2.974683833333333,0.0083775804095727,-0.0914552528045028,-0.0397935069454707,18.128184035214645,296.2050286166991,12.622999537351234
1403638131695097088,50.405741,327.9625664770817,9.013945791666666,-0.0898942916666666,-3.342433208333333,-0.036302848441482,0.0251327412287183,-0.0209439510239319,20.670416554135656,316.533288809722,20.328260193022913
1403638131745096960,49.716711,295.88647353655494,9.381695166666669,-0.809048625,-3.015544875,-0.0244346095279206,0.0041887902047863,0.0118682389135614,7.050829395636986,324.48605857826396,7.952769768541941
1403638131795097088,49.948454,232.41511967949268,9.357178541666666,-0.0817220833333333,-3.538566208333333,-0.0865683308989187,-0.007679448708775,-0.1417207352619395,11.137253924615296,336.1323130797044,11.64625450144041
1403638131845096960,50.17662,264.1828301754816,9.210078791666666,-0.661948875,-3.2443667083333327,-0.1312487597499735,-0.0879645943005142,-0.1696460032938488,30.183333448436684,311.3308041611128,-24.801508918591594
1403638131895097088,50.020933,204.7894595757047,9.520622708333333,0.2615106666666666,-3.710182583333333,-0.0914552528045028,0.0006981317007977,-0.0356047167406843,8.278326590239816,320.6658906082586,9.33508644714584
1403638131945096960,50.620794,220.0081355792352,10.648387458333334,-1.0133538333333332,-3.4650163333333333,-0.0691150383789754,0.0167551608191455,-0.0118682389135614,28.2341581032676,343.7277028429663,23.061812234707702
1403638131995097088,50.089837,181.5919020932652,10.828176041666667,0.2778550833333333,-3.751043625,-0.0293215314335047,-0.1026253600172665,-0.1514945790731078,43.87703194029564,385.20604612451865,41.47834328155233
1403638132045096960,49.654483,163.69232030139875,11.048825666666666,-0.4739880833333333,-3.857282333333333,0.0418879020478639,-0.1480039205691191,-0.2750638901143063,31.73932016044507,416.14458654661746,30.93854042209881
1403638132095097088,50.203562,207.39567151897543,11.661741291666669,0.2860272916666666,-4.2168595,0.0279252680319092,-0.2541199390903744,-0.2876302607286655,16.930389291997837,432.5474937740457,16.402907227428216
1403638132145096960,60.238838,290.9341971762014,11.841529875,0.7109821249999999,-4.8216029166666665,0.054454272662223,0.064926248174189,0.0397935069454707,7.148516499933064,425.3543805410839,-7.193113232961764
1403638132195097088,39.238692,169.17144001221794,11.841529875,0.7109821249999999,-4.8216029166666665,0.054454272662223,0.064926248174189,0.0397935069454707,31.45576083552114,394.31203449687484,-31.04234604420907
1403638132245096960,60.85515,115.37817191223786,10.811831625,-0.2941994999999999,-4.020726499999999,0.1284562329467826,0.3707079331235955,0.3804817769347638,45.80535727601788,350.2134116067125,-44.098622890162346
1403638132295097088,38.890362,121.0364444697092,10.811831625,-0.2941994999999999,-4.020726499999999,0.1284562329467826,0.3707079331235955,0.3804817769347638,50.53356043308798,303.197498377493,-47.01591322921951
1403638132345096960,50.15707,191.5705183182465,10.051816249999998,0.465815875,-3.669321541666666,0.064926248174189,0.2974041045398337,0.2241002759560719,46.943246653314006,262.1138603983601,-41.0836379791329
1403638132395097088,49.547911,175.5031263591305,9.782133375,-0.8744262916666666,-3.0809225416666663,0.2164208272472968,0.1026253600172665,0.3818780403363593,39.807261071622854,244.92940719179202,-17.184453206568065
1403638132445096960,50.593376,136.40003399545532,9.643205833333331,0.5557101666666666,-3.366949833333333,0.179419847105017,0.2066469834361286,0.3700098014227978,31.811509643348874,217.18106901180104,-27.74833817999098
1403638132495097088,59.904337,157.14145358019096,8.932223708333334,-0.1634441666666666,-2.672312125,0.1549852375770964,0.5249950389998943,0.5473352534254218,28.798831654125816,196.18635080312032,-20.994718208680723
1403638132545096960,41.134119,155.11898118020977,8.932223708333334,-0.1634441666666666,-2.672312125,0.1549852375770964,0.5249950389998943,0.5473352534254218,26.042094632971214,181.4077500500239,-14.778600753096413
1403638132595097088,49.720525,208.36796297147723,8.466407833333333,-1.569064,-1.9286411666666663,0.1319468914507713,0.4852015320544235,0.4838052686528281,23.201260141894995,173.16417822877298,-8.243571821250924
1403638132645096960,49.8209,770.789916131844,7.673703624999999,-1.3565865833333333,-1.838746875,0.0760963553869527,0.2338741197672401,0.3197443189653611,19.68751991272006,170.49611096917917,-2.668067259593812
1403638132695097088,49.362183,504.64173005947896,7.273265416666667,-1.1114203333333332,-2.0593965,0.0481710873550434,-0.1340412865531645,0.1514945790731078,11.31618836482528,168.10808088949264,-2.38803007968653
1403638132745096960,60.828209,723.3195920660719,7.837147791666666,-0.7028099166666667,-2.680484333333333,-0.0342084533390888,-0.1110029404268393,0.1480039205691191,8.604695356499436,167.3168626759193,-0.7912182135733303
1403638132795097088,39.199352,1203.5948632421685,7.837147791666666,-0.7028099166666667,-2.680484333333333,-0.0342084533390888,-0.1110029404268393,0.1480039205691191,4.254109722572461,166.28508153515529,-1.031781140764025
1403638132845096960,60.390711,658.0050352592846,7.714564666666666,-0.809048625,-1.9695022083333331,-0.0307177948351002,0.333008821280518,0.3211405823669566,0.9688250198674034,165.55266151081943,-0.7324200243358518
1403638132895097088,39.323807,671.559145290332,7.714564666666666,-0.809048625,-1.9695022083333331,-0.0307177948351002,0.333008821280518,0.3211405823669566,1.3351088933031265,165.20006423305935,-0.35259727776008276
1403638132945096960,50.115823,804.6171170539602,7.84532,-0.0817220833333333,-2.0512242916666668,0.0837758040957278,0.3099704751541929,0.2715732316103177,0.3159581893769562,165.0072336070199,-0.1928306260394379
1403638132995097088,49.052477,1070.4366101764672,7.820803375,-0.784532,-1.32389775,0.1179842574348166,0.1745329251994329,0.0872664625997164,0.8102757645513801,165.30135806647465,0.29412445945473564
1403638133045096960,50.991297,856.8035987254581,8.580818749999999,0.3268883333333333,-2.214668458333333,0.1012290966156711,-0.0781907504893459,-0.1933824811209717,1.68132362743388,166.08304891876674,0.7816908522920869
1403638133095097088,49.926758,861.782888836496,9.038462416666666,-0.4004382083333333,-1.91229675,-0.0251327412287183,-0.1926843494201739,-0.3302162944773272,3.0319669592586846,167.36516183959358,1.2821129208268474
1403638133145096960,49.958467,959.8443271049704,9.226423208333332,0.269682875,-2.4680069166666665,-0.0656243798749867,-0.1850049007113989,-0.0977384381116824,2.2672543684584365,168.73811948982268,1.3729576502290968
1403638133195097088,57.195187,934.88712864922,9.667722458333332,0.1307553333333333,-2.680484333333333,-0.2436479635784084,-0.0579449311662117,-0.0607374579694026,1.4752128544890226,170.72728934148114,1.9891698516584597
1403638133245096960,44.882536,667.8407971763044,9.259112041666668,-0.3514049583333333,-2.6477955,-0.2988003679414292,0.0006981317007977,0.1019272283164688,5.648516113194402,171.31911174696995,0.5918224054888128
1403638133295097088,48.068523,549.5530030321033,9.136528916666666,0.5965712083333333,-2.754034208333333,-0.4335397861953914,0.0125663706143591,0.0027925268031909,1.8365821939024043,173.61097449833986,2.291862751369905
1403638133345096960,49.755097,489.9570354606536,9.07115125,-0.0817220833333333,-2.803067458333333,-0.3693116697220001,-0.1487020522699168,-0.0097738438111682,2.2296587487663837,175.72325730994356,2.1122828116037056
1403638133395097088,50.287485,465.0433214390455,9.741272333333333,-0.3023717083333333,-3.2443667083333327,-0.364424747816416,-0.1584758960810851,-0.0083775804095727,2.1664146254630365,178.23218294294745,2.5089256330038836
1403638133445096960,60.152054,593.768912736808,9.283628666666663,-0.318716125,-3.5957716666666664,-0.4649557127312894,-0.0139626340159546,0.1556833692778942,21.390254653338665,175.08776844712563,-3.1444144958218203
1403638133495097088,39.576053,588.8976891998358,9.283628666666663,-0.318716125,-3.5957716666666664,-0.4649557127312894,-0.0139626340159546,0.1556833692778942,2.350972439624366,177.52324207090462,2.4354736237789893
1403638133545096960,49.779892,457.5077003676943,9.536967125,-0.7763597916666666,-3.0400615,-0.5194099853935125,0.0090757121103705,0.2771582852166995,2.3385405367924155,180.47437094227325,2.9511288713686383
1403638133595097088,50.031901,375.97354849150753,8.858673833333333,-0.1879607916666666,-3.4977051666666665,-0.3043854215478111,-0.0795870138909414,0.411199571769864,2.2182327890878777,183.1259413676771,2.6515704254038326
1403638133645096960,59.654951,440.2460321073165,9.16921775,-0.6210878333333334,-3.530394,-0.228987197861656,-0.1179842574348166,0.3281218993749339,5.58582583456539,185.18849707368673,2.062555706009647
1403638133695097088,40.312767,398.086628930141,9.16921775,-0.6210878333333334,-3.530394,-0.228987197861656,-0.1179842574348166,0.3281218993749339,2.4301509886202863,187.70455836815083,2.5160612944640945
1403638133745096960,50.02737,420.1575944109807,9.005773583333333,-1.6916471249999998,-2.950167208333333,-0.3762929867299774,-0.0984365698124801,0.1864011641129944,2.540323210935818,190.0078099637799,2.303251595629064
1403638133795097088,59.45015,444.698244142791,9.283628666666663,-1.7488525833333333,-2.631451083333333,-0.4349360495969869,-0.0551524043630208,-0.036302848441482,7.043838141855967,194.56137858781003,4.5535686240301345
1403638133845096960,50.515413,282.706051436889,9.716755708333332,-2.2555295,-2.4925235416666665,-0.2960078411382383,-0.0788888821901436,0.0481710873550434,2.6495974937446034,196.6964485969359,2.135070009125883
1403638133895097088,49.604416,345.1495298117473,10.362360166666663,-3.072750333333333,-2.557901208333333,-0.2534218073895766,-0.0013962634015954,0.0942477796076938,1.9958626887954165,198.54795804934267,1.8515094524067592
1403638133945096960,50.101996,481.0074360818145,10.223432625,-2.803067458333333,-2.353596,-0.1270599695451872,0.0781907504893459,0.1026253600172665,1.276795504895688,199.84504646022538,1.2970884108827079
1403638133995097088,50.311327,525.3053294442553,9.438900625,-2.631451083333333,-2.655967708333333,-0.0404916386462684,0.028623399732707,0.0146607657167523,0.8430835527603736,200.45718128120643,0.6121348209810549
1403638134045096960,39.769172,506.1871662882722,9.438900625,-2.631451083333333,-2.655967708333333,-0.0404916386462684,0.028623399732707,0.0146607657167523,0.777509595261132,200.4909303964311,0.033749115224679826
1403638134095097088,60.994148,429.9879118626924,10.092677291666664,-1.4791697083333333,-2.8439285,0.064926248174189,-0.1089085453244461,-0.1549852375770964,0.95146365408761,200.03041044740715,-0.4605199490239613
1403638134145096960,39.076329,511.7150821764192,10.092677291666664,-1.4791697083333333,-2.8439285,0.064926248174189,-0.1089085453244461,-0.1549852375770964,1.478808705332058,199.42141361124598,-0.6089968361611682
1403638134195097088,50.245523,349.04479056587866,9.937405333333334,-1.3075533333333331,-3.2770555416666665,-0.0097738438111682,0.0600393262686049,-0.0251327412287183,2.5231385979013905,198.28036440784024,-1.1410492034057427
1403638134245096960,49.821377,234.41776607898916,9.9047165,-1.2176590416666666,-3.18716125,-0.0167551608191455,0.346273323595675,0.2729694950119131,3.809949245735526,197.139847018238,-1.1405173896022518
1403638134295097088,50.032616,576.6145107837126,9.226423208333332,-1.348414375,-2.827584083333333,-0.025830872929516,0.3008947630438224,0.2834414705238791,3.0476660344832722,195.70725815859868,-1.43258885963931
1403638134345096960,49.98517,651.1970449456247,8.752435125,-1.372931,-3.0564059166666664,0.0474729556542457,0.0230383461263251,0.2813470754214859,2.8563192798361956,194.04756401341348,-1.659694145185199
1403638134395097088,50.207138,631.3709111974351,9.16921775,-0.8907707083333333,-3.2035056666666666,0.1123992038284348,-0.0984365698124801,0.2436479635784084,2.4201141208408514,192.3412664682421,-1.706297545171367
1403638134445096960,49.636126,1231.2842584471357,9.422556208333331,-0.6864655000000001,-3.587599458333333,0.0851720674973232,-0.1319468914507713,0.1933824811209717,2.4015922849854876,190.55496420008356,-1.7863022681585505
1403638134495097088,50.089359,1154.9428242350766,8.956740333333332,-0.8989429166666666,-4.0125542916666666,0.0593411945678072,0.025830872929516,0.21851522234969,2.648630736378425,188.6156141976722,-1.9393500024113735
1403638134545096960,49.949169,1094.7721537896578,8.87501825,-0.8008764166666666,-3.898143375,0.0509636141582344,0.0439822971502571,0.2869321290278678,2.165797971680063,186.7461075897106,-1.869506607961597
1403638134595097088,50.073385,1175.39927692757,9.005773583333333,-1.4056198333333334,-3.9144877916666654,0.1494001839707146,0.0740019602845595,0.2904227875318564,2.3662295103198625,184.85757199371983,-1.88853559599076
1403638134645096960,50.306082,1101.8334438354177,9.005773583333333,-1.046042666666667,-4.184170666666667,0.0733038285837618,-0.0579449311662117,0.161268422884276,2.2928759299109887,182.6449637894251,-2.2126082042947246
1403638134695097088,62.093735,1007.5052269523868,8.956740333333332,-0.6537766666666667,-3.612116083333333,0.1256637061435917,-0.2066469834361286,0.064926248174189,2.1490804459057187,180.39761693197568,-2.247346857449429
1403638134745096960,49.606323,864.2640279901927,9.65955025,-1.1114203333333332,-3.661149333333333,0.0272271363311115,-0.2590068609959585,-0.0558505360638185,2.1604129764767537,178.01478300929088,-2.382833922684796
1403638134795097088,38.461208,1038.914985414552,9.65955025,-1.1114203333333332,-3.661149333333333,0.0272271363311115,-0.2590068609959585,-0.0558505360638185,2.2709691998728148,175.73308650612182,-2.2816965031690586
1403638134845096960,60.54163,1345.029129779947,9.16921775,-0.5230213333333333,-3.7837324583333327,-0.0090757121103705,0.0097738438111682,-0.0048869219055841,3.467467888238482,173.34687042064283,-2.386216085478992
1403638134895097088,39.077282,831.4209503503779,9.16921775,-0.5230213333333333,-3.7837324583333327,-0.0090757121103705,0.0097738438111682,-0.0048869219055841,4.882742990136558,171.6682396862033,-1.6786307344395368
1403638134945096960,61.122894,768.0327958015154,8.033280791666666,-0.5311935416666667,-3.4731885416666666,-0.0153588974175501,0.189891822616983,0.1214749159388053,2.1925891879045616,169.37227400660672,-2.295965679596577
1403638134995097088,49.215556,1018.6527086258146,8.899534874999999,0.0653776666666666,-3.219850083333333,-0.007679448708775,0.0013962634015954,-0.0691150383789754,2.2327757819262213,167.300694003466,-2.071580003140724
1403638135045096960,39.824724,1016.0965224383606,8.899534874999999,0.0653776666666666,-3.219850083333333,-0.007679448708775,0.0013962634015954,-0.0691150383789754,1.6210702510300725,165.33066767229732,-1.9700263311686683
1403638135095097088,59.845924,986.6140685566592,8.564474333333333,0.5311935416666667,-3.612116083333333,0.08307767239493,-0.1305506280491758,-0.0963421747100869,1.6019725874221376,163.6956277484847,-1.6350399238126272
1403638135145096960,40.200234,1085.523526207712,8.564474333333333,0.5311935416666667,-3.612116083333333,0.08307767239493,-0.1305506280491758,-0.0963421747100869,1.3642186103392735,162.29955748602225,-1.3960702624624446
1403638135195097088,50.129413,775.1931523196564,8.638024208333333,0.8172208333333333,-3.881798958333333,0.0160570291183478,-0.093549647906896,-0.057246799465414,1.2787542465633057,161.5514612149758,-0.7480962710464496
1403638135245096960,49.802065,756.0515816382562,8.67888525,0.956148375,-3.906315583333333,-0.0244346095279206,-0.0970403064108847,0.0013962634015954,0.8867932446131115,160.95202561974952,-0.5994355952262822
1403638135295097088,50.211668,884.6191061217318,9.259112041666668,1.1441091666666665,-3.538566208333333,-0.0370009801422797,0.0390953752446729,0.0006981317007977,0.7565534799523654,160.9770967321313,0.025071112381766625
1403638135345096960,49.637556,599.2105875057835,9.1201845,0.367749375,-4.028898708333333,-0.0537561409614253,0.1179842574348166,0.0956440430092892,1.3158433052814862,161.5522512582036,0.5751545260723105
1403638135395097088,50.202847,575.8939288936945,9.218251,0.416782625,-3.8245935,-0.0984365698124801,0.0726056968829641,0.08307767239493,0.8624880817436601,162.14582051955458,0.5935692613509786
1403638135445096960,54.128885,437.2644287307085,8.77695175,0.661948875,-3.92266,-0.182212373908208,-0.0125663706143591,-0.0293215314335047,1.1674278376451561,162.9877978549228,0.8419773353682274
1403638135495097088,47.656775,311.1054687118626,9.398039583333333,-0.0081722083333333,-3.3260887916666664,-0.1647590813882647,-0.0642281164733913,-0.0795870138909414,1.760826014716087,164.25311140988268,1.2653135549598744
1403638135545096960,48.298597,258.41080488596486,9.855683249999998,0.53936575,-3.92266,-0.0740019602845595,-0.1815142422074102,0.0432841654494593,0.761322433457057,165.99467457757268,1.7415631676900034
1403638135595097088,50.101042,336.976896649375,9.765788958333331,0.7763597916666666,-3.955348833333333,-0.2087413785385218,-0.122173047639603,-0.0760963553869527,1.1490821773919595,167.76336274616207,1.7686881685893923
1403638135645096960,59.580564,357.95315384223505,8.458235625,0.0408610416666666,-3.963521041666666,-0.2122320370425104,0.2087413785385218,0.2904227875318564,0.8470062533366071,170.56627426137544,2.802911515213367
1403638135695097088,39.911986,375.30346013258105,8.458235625,0.0408610416666666,-3.963521041666666,-0.2122320370425104,0.2087413785385218,0.2904227875318564,2.011747369238543,174.81612863604155,4.249854374666114
1403638135745096960,50.06814,432.5243128634112,8.548129916666667,-0.6701210833333332,-3.92266,-0.1368338133563554,0.208043246837724,0.3881612256435388,1.436362031574037,177.08384706303698,2.2677184269954296
1403638135795097088,60.010671,430.266015208697,9.430728416666666,-0.73549875,-3.947176625,-0.0788888821901436,-0.0747000919853573,0.0097738438111682,2.536754706737678,178.4776835098451,1.393836446808109
1403638135845096960,39.831162,345.80857485089865,9.430728416666666,-0.73549875,-3.947176625,-0.0788888821901436,-0.0747000919853573,0.0097738438111682,4.159538750355224,178.089498111292,-0.3881853985531052
1403638135895097088,59.790849,233.35584318534112,10.329671333333332,-0.1797885833333333,-4.347614833333333,-0.1242674427419962,-0.2492330171847902,-0.1801179788058148,1.5457082852398287,181.74778007978452,3.658281968492531
1403638135945096960,40.190459,271.50096678063454,10.329671333333332,-0.1797885833333333,-4.347614833333333,-0.1242674427419962,-0.2492330171847902,-0.1801179788058148,2.064610654444116,183.10815243152663,1.3603723517421145
1403638135995097088,59.894561,373.21687648975234,10.133538333333334,0.93163175,-3.849110125,-0.21851522234969,0.1382300767579508,-0.007679448708775,2.0093667492896605,184.164451306408,1.056298874881378
1403638136045096960,49.78633,281.98203879961227,8.817812791666666,0.63743225,-3.6448049166666654,-0.2164208272472968,0.3581415625092364,0.1619665545850737,6.2801050715622,182.0480562673875,-2.1163950390205173
1403638136095097088,40.362358,272.81071354121696,8.817812791666666,0.63743225,-3.6448049166666654,-0.2164208272472968,0.3581415625092364,0.1619665545850737,8.148350632740543,179.6442224587963,-2.4038338085912017
1403638136145096960,50.198555,283.3856855241737,8.28661925,0.6782932916666666,-3.5957716666666664,-0.15079644737231,0.3483677186980682,0.372104196525191,8.099546600194806,177.52088954455738,-2.1233329142389152
1403638136195097088,61.746836,380.399855311927,7.967903124999999,0.1552719583333333,-3.08909475,-0.0865683308989187,0.1270599695451872,0.2324778563656447,6.323399044157737,176.81156287142693,-0.7093266731304482
1403638136245096960,38.039922,486.2130955277575,7.967903124999999,0.1552719583333333,-3.08909475,-0.0865683308989187,0.1270599695451872,0.2324778563656447,2.629905997344751,178.6840050421929,1.8724421707659644
1403638136295097088,59.527636,473.12238950195285,8.556302125,-0.980665,-3.211677875,-0.2275909344600605,-0.0251327412287183,-0.0537561409614253,1.3360176842051863,181.5358703763878,2.851865334194912
1403638136345096960,50.124645,417.675964607794,8.964912541666667,-1.8224024583333327,-3.064578125,-0.132645023151569,-0.0551524043630208,0.0041887902047863,1.4429765674626396,185.10989044130923,3.5740200649214273
1403638136395097088,40.140152,437.6693348764688,8.964912541666667,-1.8224024583333327,-3.064578125,-0.132645023151569,-0.0551524043630208,0.0041887902047863,1.9750401489927238,188.90532953074634,3.79543908943711
1403638136445096960,59.795141,467.52034429482336,10.084505083333331,-2.6477955,-3.4486719166666666,-0.1284562329467826,-0.036302848441482,0.0628318530717958,2.168298660474004,191.8118584586283,2.906528927881965
1403638136495097088,40.175438,476.76995085603096,10.084505083333331,-2.6477955,-3.4486719166666666,-0.1284562329467826,-0.036302848441482,0.0628318530717958,16.723533238144405,195.04801349682512,3.236155038196813
1403638136545096960,50.199747,414.4842420594678,10.54214875,-2.3699404166666667,-3.751043625,-0.0977384381116824,-0.1047197551196597,0.289026524130261,1.4983777743053537,194.6745901920188,-0.37342330480632313
1403638136595097088,50.13609,408.2565271123116,10.084505083333331,-2.165635208333333,-3.587599458333333,-0.0034906585039886,-0.0027925268031909,0.3323106895797203,1.2706506129394157,193.28228674225323,-1.3923034497655635
1403638136645096960,49.932479,326.812882306431,9.56148375,-2.181979625,-3.489532958333333,0.1647590813882647,0.0530580092606276,0.307177948351002,1.5238262640801785,191.15458664624342,-2.127700096009818
1403638136695097088,50.00949,378.9396646471064,9.259112041666668,-2.0512242916666668,-3.726527,0.2157226955464991,0.0502654824574366,0.2387610416728242,1.0383861880825704,188.6189663305721,-2.5356203156713093
1403638136745096960,59.592247,384.8910436751687,9.234595416666666,-2.018535458333333,-3.293399958333333,0.3679154063204046,0.0509636141582344,0.2157226955464991,1.040790488035681,185.58715122426747,-3.0318151063046344
1403638136795097088,40.455102,259.07879609641725,9.234595416666666,-2.018535458333333,-3.293399958333333,0.3679154063204046,0.0509636141582344,0.2157226955464991,0.96026704783777,181.98888188631463,-3.5982693379528428
1403638136845096960,59.63111,245.2471448882754,7.967903124999999,-1.2094868333333333,-2.7131731666666665,0.4049163864626844,0.2611012560983517,0.4593706591249075,0.6714042433994396,178.20973050563978,-3.779151380674847
1403638136895097088,49.918651,196.55703084714372,7.256920999999999,-1.005181625,-2.778550833333333,0.3385938748868999,0.3783873818323706,0.4426154983057619,1.75537763259325,175.13438144394115,-3.075349061698631
1403638136945096960,40.157795,260.4909747721768,7.256920999999999,-1.005181625,-2.778550833333333,0.3385938748868999,0.3783873818323706,0.4426154983057619,3.734748785922874,173.5829596579244,-1.5514217860167605
1403638136995097088,50.081253,422.7673273308261,7.60015375,-0.7028099166666667,-2.4680069166666665,0.2513274122871834,0.2729694950119131,0.325329372571743,6.596355976965744,173.6437067778269,0.06074711990251558
1403638137045096960,49.789429,536.6736781977768,7.240576583333333,-0.8417374583333332,-2.557901208333333,0.2429498318776106,0.1033234917180643,0.1989675347273535,9.702625751487778,176.75665688573366,3.112950107906755
1403638137095097088,50.30632,469.68397582694666,7.967903124999999,-0.2369940416666666,-2.8847895416666667,0.1270599695451872,-0.0670206432765822,-0.0321140582366956,12.467008229375999,183.33987126118058,6.583214375446914
1403638137145096960,49.855232,285.6415911326368,8.18855275,-0.7273265416666667,-2.8602729166666667,0.057246799465414,-0.1598721594826805,-0.1745329251994329,13.746402136877839,192.74277261413297,9.402901352952398
1403638137195097088,59.356928,225.53339674940852,8.940395916666665,-0.4004382083333333,-3.317916583333333,0.0712094334813686,-0.3113667385557884,-0.2345722514680378,19.29702720110069,208.01392190413682,15.271149290003848
1403638137245096960,40.644169,217.4397382860637,8.940395916666665,-0.4004382083333333,-3.317916583333333,0.0712094334813686,-0.3113667385557884,-0.2345722514680378,16.4426364332725,221.1330061102704,13.119084206133579
1403638137295097088,50.184965,220.8419987283713,9.022118,-0.367749375,-3.546738416666667,0.0670206432765822,-0.2017600615305445,-0.189891822616983,15.845724384056314,234.81455882240488,13.681552712134476
1403638137345096960,59.532404,202.42719685005883,9.373522958333332,0.24516625,-3.8082490833333327,-0.0139626340159546,-0.1347394182539622,-0.1082104136236484,14.569579118521686,247.26862593609394,12.454067113689064
1403638137395097088,49.806833,179.41159571256068,9.594172583333334,-0.7518431666666666,-3.603943875,-0.0914552528045028,-0.2101376419401172,-0.153588974175501,14.697095239706501,261.2742145584332,14.005588622339246
1403638137445096960,40.314913,137.3639546485365,9.594172583333334,-0.7518431666666666,-3.603943875,-0.0914552528045028,-0.2101376419401172,-0.153588974175501,14.069961715011296,274.4623577215419,13.188143163108691
1403638137495097088,50.291539,128.08741297263518,9.5124505,0.0898942916666666,-3.759215833333333,-0.1137954672300302,-0.2450442269800038,-0.2303834612632515,12.311317178139515,286.5417514146031,12.079393693061206
1403638137545096960,59.512853,114.66554174827402,9.675894666666666,0.1797885833333333,-4.135137416666667,-0.1905899543177807,-0.2401573050744197,-0.3392920065876977,11.328558968442309,297.2933604697716,10.751609055168501
1403638137595097088,40.450096,119.3469248651716,9.675894666666666,0.1797885833333333,-4.135137416666667,-0.1905899543177807,-0.2401573050744197,-0.3392920065876977,12.763175112821914,306.5500751603283,9.256714690556691
1403638137645096960,49.998522,153.58607883397917,9.471589458333332,-0.1879607916666666,-4.46202575,-0.1061160185212552,-0.0712094334813686,-0.0893608577021096,40.69531716841929,285.892434424371,-20.657640735957273
1403638137695097088,49.99423,167.44512342529077,9.586000375,0.5557101666666666,-4.535575625,-0.1703441349946465,0.0439822971502571,0.046774823953448,23.116016866346513,278.4344469707836,-7.457987453587407
1403638137745096960,54.180384,154.31388722308594,8.989429166666666,0.024516625,-4.3312704166666665,-0.1521927107739055,0.1466076571675237,0.1026253600172665,10.756555686040556,268.42477542291596,-10.00967154786764
1403638137795097088,58.125734,140.29228179629246,9.177389958333332,-0.1307553333333333,-4.184170666666667,-0.0865683308989187,-0.0851720674973232,0.0125663706143591,49.65425671733229,272.3709505236466,3.9461751007306702
1403638137845096960,37.981272,101.57075589466032,9.046634625,-0.2043052083333333,-4.16782625,-0.0879645943005142,-0.104021623418862,-0.0048869219055841,38.521770259110156,279.81036519956433,7.439414675917703
1403638137895097088,49.855709,94.36972194621934,9.218251,-0.0326888333333333,-4.298581583333333,-0.0788888821901436,-0.2373647782712288,-0.1172861257340189,38.638823030401205,283.4612102370787,3.6508450375143866
1403638148295097088,39.85858,196.895154582969,8.817812791666666,0.8662540833333333,-3.9144877916666654,0.0670206432765822,0.0013962634015954,0.0237364778271228,206.34955030956834,227.97753025790598,-55.483679979172734
1403638148345096960,50.50087,226.40212897474223,9.75761675,-0.1144109166666666,-3.2035056666666666,0.0593411945678072,0.0495673507566389,-0.054454272662223,9.291535189189783,221.61793785457556,-6.359592403330424
1403638148395097088,50.071239,281.244069903886,8.564474333333333,0.269682875,-3.8245935,0.0565486677646162,-0.025830872929516,0.1082104136236484,21.652990848119906,239.26464338893626,17.646705534360706
1403638148445096960,49.737215,301.8237997048933,7.722736874999999,0.3759215833333333,-2.7867230416666664,0.0530580092606276,-0.0146607657167523,0.0425860337486616,13.414397362991187,231.50569841343173,-7.758944975504534
1403638148495097088,49.790859,310.88014587107625,5.34462425,-1.871435708333333,-3.260711125,-0.0090757121103705,-0.2624975194999471,-0.0090757121103705,5.990403481035308,235.48544932078892,3.979750907357186
1403638148545096960,60.973168,351.4594812886676,7.567464916666665,0.6782932916666666,-2.623278875,0.0600393262686049,-0.0523598775598298,0.0335103216382911,4.443604097797948,238.7163818410332,3.230932520244295
1403638148595097088,38.931369,367.8681236319971,7.567464916666665,0.6782932916666666,-2.623278875,0.0600393262686049,-0.0523598775598298,0.0335103216382911,4.8286995741113214,242.0523513334739,3.3359694924406824
1403638148645096960,50.758362,365.3194212239768,7.240576583333333,0.3514049583333333,-3.268883333333333,0.0153588974175501,-0.0733038285837618,0.0390953752446729,2.2030386637137935,243.77873944982937,1.72638811635548
1403638148695097088,59.789896,382.40466790335074,8.482752249999999,0.3268883333333333,-3.751043625,0.0307177948351002,-0.1110029404268393,0.064926248174189,0.3734719848461334,244.11302118335607,0.3342817335266943
1403638148745096960,48.933029,391.4616566267581,10.288810291666666,-0.2533384583333333,-3.930832208333333,0.0656243798749867,-0.0628318530717958,0.0446804288510548,1.7829912652426825,245.54390557306104,1.4308843897049712
1403638148795097088,40.716887,421.32871648368354,10.288810291666666,-0.2533384583333333,-3.930832208333333,0.0656243798749867,-0.0628318530717958,0.0446804288510548,9.101363594250177,247.21765697454538,1.6737514014843384
1403638148845096960,59.880257,387.354414443421,10.125366125,0.1307553333333333,-3.751043625,0.0376991118430775,0.0767944870877505,0.1214749159388053,3.3441201530482147,249.6390694255715,2.4214124510261286
1403638148895097088,39.648294,397.9427465256348,10.125366125,0.1307553333333333,-3.751043625,0.0376991118430775,0.0767944870877505,0.1214749159388053,5.128412782477339,250.51983350905908,0.880764083487577
1403638148945096960,50.694227,343.9095213316029,11.106031125,-0.171616375,-4.1024485833333335,0.0516617458590321,0.0244346095279206,0.1054178868204575,7.16772400496987,254.62925290628152,4.109419397222439
1403638148995097088,49.708844,314.8491481169572,11.62088025,0.3350605416666666,-3.9390044166666662,0.0118682389135614,0.0153588974175501,0.0642281164733913,6.213559016466513,258.26499177224946,3.6357388659679373
1403638149045096960,49.308061,349.23218121743275,11.016136833333332,-0.980665,-3.064578125,0.0223402144255274,0.1019272283164688,0.0265290046303138,16.321096481119167,252.04951410716515,-6.2154776650843075
1403638149095097088,49.350739,331.0732293166987,11.114203333333332,-0.6210878333333334,-2.4516625,0.0160570291183478,0.1291543646475804,0.0418879020478639,1.1278346277646518,252.14401405401478,0.09449994684962348
1403638149145096960,72.382927,806.2036605735954,8.907707083333333,0.0572054583333333,-3.996209875,0.0328121899374933,-0.0006981317007977,0.0747000919853573,12.926373061068059,260.63796299015945,8.493948936144676
1403638149195097088,40.714502,717.6366927416049,7.820803375,0.4331270416666666,-2.819411875,-0.0314159265358979,0.0970403064108847,0.0495673507566389,3.2771521145020563,263.3440375494714,2.7060745593119577
1403638149245096960,38.412332,689.0811990056351,7.820803375,0.4331270416666666,-2.819411875,-0.0314159265358979,0.0970403064108847,0.0495673507566389,6.660551080826342,269.00987033413315,5.665832784661745
1403638149295097088,49.699545,1213.644483067125,7.632842583333333,-0.8253930416666666,-3.7673880416666665,0.0614355896702004,-0.0111701072127637,0.1654572130890624,5.208322347470961,273.62865464400005,4.618784309866896
1403638149345096960,59.997082,1199.3038031855872,8.351996916666666,0.1389275416666666,-2.6477955,-0.0523598775598298,0.0146607657167523,0.0656243798749867,3.9566060761109982,277.23435949677804,3.60570485277799
1403638149395097088,40.373325,1196.6116464729594,8.351996916666666,0.1389275416666666,-2.6477955,-0.0523598775598298,0.0146607657167523,0.0656243798749867,49.38210395367886,260.16204626518646,-17.07231323159158
1403638149445096960,59.11994,1259.681834046603,7.060788,0.4494714583333333,-2.655967708333333,-0.018151424220741,0.0125663706143591,0.0237364778271228,4.953677255587534,264.4519732458553,4.289926980668838
1403638149495097088,50.811053,1147.6690656471435,7.771770125,0.3840937916666667,-3.2280222916666665,-0.0223402144255274,0.0425860337486616,0.0656243798749867,12.04519385609231,271.3031948433496,6.851221597494316
1403638149545096960,39.935588,1253.9573375131838,7.771770125,0.3840937916666667,-3.2280222916666665,-0.0223402144255274,0.0425860337486616,0.0656243798749867,2.4094888353512403,273.8563548048868,2.553159961537176
1403638149595097088,50.475598,1248.202767722642,8.172208333333334,1.054214875,-2.9011339583333333,-0.0125663706143591,0.0418879020478639,-0.0202458193231342,2.2593379736190156,276.282807283247,2.426452478360204
1403638149645096960,49.838066,1176.333624636411,9.013945791666666,-0.9888372083333332,-3.342433208333333,0.0558505360638185,-0.0460766922526503,0.0111701072127637,2.094902960095111,278.49349892207675,2.2106916388297577
1403638149695097088,50.093651,1149.75229616106,8.809640583333332,-0.4494714583333333,-3.293399958333333,0.1354375499547599,0.0733038285837618,0.0446804288510548,2.4439983093203477,280.972467481485,2.4789685594082584
1403638149745096960,60.120582,1192.5806632517372,9.438900625,0.269682875,-3.898143375,0.1487020522699168,-0.0251327412287183,0.0376991118430775,0.8431959365260984,281.39584660822453,0.42337912673951905
1403638149795097088,39.805174,1081.9467099379783,9.438900625,0.269682875,-3.898143375,0.1487020522699168,-0.0251327412287183,0.0376991118430775,1.893295905613413,282.8553336438831,1.459487035658583
1403638149845096960,50.084591,1160.02370195282,7.518431666666666,0.0572054583333333,-3.955348833333333,0.0726056968829641,0.0230383461263251,0.0425860337486616,1.297380007645033,284.0425157567635,1.1871821128804072
1403638149895097088,49.716711,1174.413571374303,9.438900625,-1.22583125,-2.999200458333333,0.0900589894029074,0.0593411945678072,0.1186823891356144,1.1999813311298857,285.134519212718,1.0920034559544547
1403638149945096960,59.514761,1110.99868273416,7.869836625,-0.0735498749999999,-3.268883333333333,-0.0055850536063818,-0.0397935069454707,0.0342084533390888,1.472075040521617,286.3692491655364,1.2347299528184408
1403638149995097088,49.897432,1198.9356257010634,9.308145291666667,-0.0653776666666666,-2.557901208333333,-0.0153588974175501,0.0747000919853573,-0.0593411945678072,1.9702346663181367,287.9771711776993,1.6079220121628737
1403638150045096960,40.401221,1148.3588861639275,9.308145291666667,-0.0653776666666666,-2.557901208333333,-0.0153588974175501,0.0747000919853573,-0.0593411945678072,1.8985864292195076,289.4087033089155,1.4315321312162155
1403638150095097088,59.513807,1127.863631281878,8.441891208333333,-0.3595771666666666,-3.751043625,-0.0418879020478639,0.0390953752446729,-0.1005309649148733,0.9868805064467943,288.98798381619633,-0.4207194927191722
1403638150145096960,40.264607,1159.8291290425884,8.441891208333333,-0.3595771666666666,-3.751043625,-0.0418879020478639,0.0390953752446729,-0.1005309649148733,1.261216387676804,289.2568697356269,0.2688859194305451
1403638150195097088,50.220251,1097.8999780097529,8.77695175,-0.3514049583333333,-3.5222217916666665,-0.057246799465414,-0.0376991118430775,-0.1200786525372098,1.3019746511752068,289.23578424896385,-0.021085486663025677
1403638150245096960,49.804687,1041.8850938633498,9.553311541666666,-0.0408610416666666,-2.2555295,-0.0628318530717958,-0.0188495559215387,-0.0705113017805709,15.522816359974822,274.3970867562912,-14.83869749267268
1403638150295097088,60.084343,977.172127017625,7.79628675,0.7681875833333334,-3.726527,0.0209439510239319,0.0055850536063818,0.0167551608191455,1.808208781708598,274.2730320999941,-0.12405465629706214
1403638150345096960,39.713144,890.1134499811157,7.79628675,0.7681875833333334,-3.726527,0.0209439510239319,0.0055850536063818,0.0167551608191455,1.9507891702284386,273.95170231800716,-0.3213297819869467
1403638150395097088,50.219298,667.2700058229693,8.466407833333333,-0.2778550833333333,-3.8409379166666655,0.0397935069454707,-0.1731366617978375,0.1780235837034216,2.688646334274526,274.1762214700078,0.22451915200065287
1403638150445096960,50.261736,766.9353045688988,10.664731875,-0.1879607916666666,-3.097266958333333,0.2178170906488923,-0.179419847105017,0.2478367537831947,2.582784096609863,274.09729400272755,-0.07892746728026623
1403638150495097088,49.705028,693.6182150089342,11.408402833333332,0.318716125,-4.2822371666666665,0.2059488517353309,-0.1284562329467826,0.2380629099720265,2.626609044020688,274.0638764698272,-0.033417532900330116
1403638150545096960,49.401999,899.8245330024928,8.564474333333333,-0.9234595416666666,-3.0400615,0.2094395102393195,-0.2178170906488923,0.0670206432765822,2.7090168224328814,274.1560560497437,0.09217957991648973
1403638150595097088,50.712585,968.9222489418652,8.376513541666666,0.661948875,-3.219850083333333,0.1996656664281513,-0.0265290046303138,0.0474729556542457,2.850065625348068,274.6397055854821,0.48364953573837965
1403638150645096960,49.83449,990.1486439953632,10.746453958333332,-0.3350605416666666,-4.576436666666666,0.1745329251994329,-0.0195476876223364,0.0844739357965255,2.8571211595392767,275.3582702921677,0.7185647066855836
1403638150695097088,59.594154,1019.5246084720366,9.013945791666666,0.8744262916666666,-3.366949833333333,0.1193805208364121,0.0942477796076938,0.0174532925199432,2.475081017610012,275.8637012987873,0.5054310066196308
1403638150745096960,40.291787,911.023085432596,9.013945791666666,0.8744262916666666,-3.366949833333333,0.1193805208364121,0.0942477796076938,0.0174532925199432,3.099914743719198,277.2685640011522,1.4048627023648805
1403638150795097088,50.279855,847.3356515363088,10.484943291666664,-0.0326888333333333,-2.574245625,0.1333431548523667,0.1375319450571531,-0.0342084533390888,2.9500853006416303,278.78836352413157,1.5197995229793833
1403638150845096960,59.278727,795.3523332872337,9.684066875,0.6292600416666666,-4.543747833333333,0.1263618378443894,0.1179842574348166,0.0223402144255274,2.9085086833457696,280.36100713196896,1.5726436078373922
1403638150895097088,40.719032,780.4430938765526,9.684066875,0.6292600416666666,-4.543747833333333,0.1263618378443894,0.1179842574348166,0.0223402144255274,23.673649007225407,259.02496353029005,-21.33604360167891
1403638150945096960,49.798966,705.652926634637,8.499096666666667,-0.9970094166666666,-2.043052083333333,0.1500983156715123,0.1598721594826805,-0.0733038285837618,2.986581258607569,260.63939564938386,1.6144321190938058
1403638150995097088,49.996376,671.0944266331142,10.002783,-0.24516625,-3.3506054166666663,0.1947787445225671,0.1850049007113989,0.0418879020478639,3.418506127181008,262.5724470286018,1.9330513792179431
1403638151045096960,49.742698,817.4901443962365,8.196724958333332,0.8253930416666666,-4.298581583333333,0.21851522234969,0.1172861257340189,-0.0314159265358979,3.176269044005324,263.97174785345834,1.3993008248565388
1403638151095097088,50.38023,631.0926593035,7.673703624999999,-0.1062387083333333,-2.353596,0.2617993877991494,0.1689478715930511,-0.0879645943005142,3.2601704982707513,265.202916020258,1.2311681667996481
1403638151145096960,49.497128,576.0247298064643,8.245758208333333,-0.2288218333333333,-2.459834708333333,0.3246312408709453,0.1103048087260416,-0.1738347934986352,2.95967900090997,265.8320086958821,0.629092675624122
1403638151195097088,50.570965,585.5118928750258,8.597163166666666,0.2124774166666666,-4.314926,0.364424747816416,-0.0279252680319092,-0.0788888821901436,4.07674354589541,267.41119736087245,1.5791886649903404
1403638151245096960,59.573888,632.6591016809338,11.686257916666666,-0.3595771666666666,-3.955348833333333,0.5096361415823442,0.0230383461263251,-0.0642281164733913,4.485817177780191,269.07584122920764,1.6646438683351903
1403638151295097088,40.333271,613.7163457685533,11.686257916666666,-0.3595771666666666,-3.955348833333333,0.5096361415823442,0.0230383461263251,-0.0642281164733913,4.077933828176553,270.126771653571,1.0509304243633437
1403638151345096960,49.470902,579.0140078444695,8.221241583333333,1.201314625,-2.508867958333333,0.48939032225921,0.0314159265358979,-0.1312487597499735,3.7983919438037153,263.48651758177454,-6.640254071796448
1403638151395097088,59.952021,565.2980040092847,10.427737833333332,-0.1552719583333333,-2.8439285,0.5201081170943103,0.0146607657167523,-0.0530580092606276,4.460555666580192,264.7663380779961,1.279820496221589
1403638151445096960,59.99279,523.7216406413862,9.602344791666663,0.0,-3.881798958333333,0.48939032225921,-0.0509636141582344,-0.1179842574348166,3.927083211817321,265.52964250819736,0.7633044302012308
1403638151495097088,42.062521,584.2684312252385,9.643205833333331,0.2043052083333333,-4.396648083333333,0.4230678106834254,0.0691150383789754,-0.0656243798749867,4.246145704704319,266.740109679264,1.2104671710666253
1403638151545096960,48.883915,553.2500810033321,10.803659416666664,-0.024516625,-4.077931958333333,0.3686135380212024,-0.0111701072127637,-0.0174532925199432,3.9900599791667157,267.67124230704036,0.9311326277763783
1403638151595097088,49.49522,611.1768944546145,8.883190458333333,0.612915625,-3.113611375,0.3581415625092364,-0.0090757121103705,-0.0342084533390888,4.059568703916006,268.89556028566324,1.224317978622878
1403638151645096960,49.596548,601.1317317992003,11.506469333333332,-0.53936575,-4.56009225,0.2178170906488923,-0.0523598775598298,-0.0558505360638185,3.9889515395448445,270.16160079343376,1.2660405077705263
1403638151695097088,50.005198,585.8722356903502,8.18855275,-0.0326888333333333,-2.974683833333333,0.2227040125544764,-0.0321140582366956,-0.0747000919853573,2.238347997224088,266.3928170260794,-3.768783767354364
1403638151745096960,40.435314,612.8383577126433,8.18855275,-0.0326888333333333,-2.974683833333333,0.2227040125544764,-0.0321140582366956,-0.0747000919853573,3.9353976323605946,267.99705716612027,1.6042401400408721
1403638151795097088,50.157785,623.3713227669479,9.07115125,-0.2124774166666666,-4.26589275,0.1975712713257581,0.0411897703470661,-0.046774823953448,4.0086453259153405,269.8534664931028,1.8564093269825435
1403638151845096960,59.793234,618.0196894823682,9.553311541666666,-0.2369940416666666,-3.8654545416666655,0.1123992038284348,-0.0006981317007977,-0.0013962634015954,3.9259399659926726,271.82053594144844,1.967069448345626
1403638151895097088,40.174007,660.7231703022326,9.553311541666666,-0.2369940416666666,-3.8654545416666655,0.1123992038284348,-0.0006981317007977,-0.0013962634015954,3.5874237681552756,273.5197150516773,1.6991791102288403
1403638151945096960,49.549342,712.8219214894954,10.681076291666663,0.8008764166666666,-4.094276375,0.0530580092606276,0.0097738438111682,-0.0041887902047863,4.136490602201902,275.8416154867979,2.3219004351205967
1403638151995097088,60.503482,706.1009432238689,8.932223708333334,-0.2778550833333333,-3.5222217916666665,0.0481710873550434,-0.064926248174189,0.0425860337486616,3.997692742039112,278.10105133863516,2.2594358518372815
1403638152045096960,39.719582,678.8219215162046,8.932223708333334,-0.2778550833333333,-3.5222217916666665,0.0481710873550434,-0.064926248174189,0.0425860337486616,18.743641485026693,261.7613787261345,-16.339672612500635
1403638152095097088,50.414801,701.7593741335162,9.422556208333331,0.0163444166666666,-3.505877375,-0.0167551608191455,0.0216420827247296,0.0432841654494593,11.391971053608087,269.95562218504716,8.194243458912638
1403638152145096960,49.306154,485.0270384721711,10.133538333333334,0.1144109166666666,-4.511059,-0.0090757121103705,-0.0188495559215387,0.054454272662223,4.422280387130003,272.0192403403242,2.0636181552770267
1403638152195097088,61.084032,464.6083718589472,8.319308083333333,0.6537766666666667,-3.8082490833333327,-0.0321140582366956,-0.0174532925199432,-0.0886627260013119,4.174096474537407,273.70566084741534,1.6864205070911567
1403638152245096960,50.242662,475.9274240332193,9.994610791666668,-0.0081722083333333,-3.023717083333333,-0.0684169066781777,0.0663225115757845,-0.0153588974175501,4.309016094015941,275.2208747194894,1.5152138720740709
1403638152295097088,38.354159,557.2467538691072,9.994610791666668,-0.0081722083333333,-3.023717083333333,-0.0684169066781777,0.0663225115757845,-0.0153588974175501,3.7641433873038976,275.8421078737571,0.6212331542676566
1403638152345096960,50.534963,532.6364086191917,7.967903124999999,-0.3840937916666667,-2.6641399166666666,-0.0488692190558412,-0.025830872929516,0.0104719755119659,4.781874455164108,277.50912155957974,1.667013685822667
1403638152395097088,50.164938,548.6151190731016,8.38468575,0.0408610416666666,-3.563082833333333,-0.0628318530717958,0.057246799465414,0.0244346095279206,4.3922742675618105,278.2264583341868,0.7173367746070767
1403638152445096960,49.892903,483.0160038387999,7.910697666666666,-0.4004382083333333,-2.770378625,-0.0621337213709981,0.0195476876223364,0.0132645023151569,4.881777561367041,279.1188695378509,0.8924112036640963
1403638152495097088,51.013946,497.0313910040052,9.888372083333332,0.907115125,-4.519231208333333,-0.0432841654494593,-0.0090757121103705,0.0621337213709981,4.707025036546919,279.45257929041236,0.33370975256144675
1403638152545096960,56.434393,499.8759255126291,9.545139333333331,-0.6456044583333332,-3.2525389166666665,0.0055850536063818,-0.007679448708775,0.0984365698124801,5.004418470402936,279.9389685060106,0.4863892155982512
1403638152595097088,48.587561,440.5509574945091,7.150682291666666,0.8417374583333332,-3.546738416666667,0.0167551608191455,-0.0851720674973232,0.1696460032938488,4.07977659430287,278.08367202479184,-1.8552964812187724
1403638152645096960,42.407513,397.061504775558,7.150682291666666,0.8417374583333332,-3.546738416666667,0.0167551608191455,-0.0851720674973232,0.1696460032938488,25.122883214174763,293.25308068950363,15.169408664711796
1403638152695097088,57.123899,394.83037998328217,11.22861425,0.4494714583333333,-3.211677875,0.0816814089933346,0.0418879020478639,0.1284562329467826,4.253550047660096,290.96742799505313,-2.285652694450505
1403638152745096960,42.237282,238.73253540155727,11.22861425,0.4494714583333333,-3.211677875,0.0816814089933346,0.0418879020478639,0.1284562329467826,5.629939856337861,289.7781924280674,-1.189235566985701
1403638152795097088,57.542324,234.76492044998668,9.872027666666666,0.6292600416666666,-3.3260887916666664,0.2059488517353309,0.104021623418862,0.0397935069454707,4.549351780913384,287.5111167766407,-2.267075651426751
1403638152845096960,42.932987,208.73058536333627,9.872027666666666,0.6292600416666666,-3.3260887916666664,0.2059488517353309,0.104021623418862,0.0397935069454707,4.585661289712858,285.3007454124325,-2.2103713642081857
1403638152895097088,49.492121,248.4863870843208,10.991620208333332,0.0980665,-3.751043625,0.2729694950119131,0.1933824811209717,0.1312487597499735,3.941869297088131,282.97051854889247,-2.3302268635400196
1403638152945096960,50.449371,275.1504038579106,8.997601374999999,-0.0081722083333333,-4.453853541666667,0.2673844414055313,0.1123992038284348,-0.0272271363311115,5.162967753288429,282.89719793616933,-0.07332061272313695
1403638152995097088,49.481869,277.3321409373612,9.389867375,0.612915625,-3.6448049166666654,0.2792526803190927,0.0698131700797731,-0.0300196631343024,5.805048166459508,284.16865631805524,1.2714583818859069
1403638153045096960,57.146788,249.14619225909507,8.38468575,0.2860272916666666,-3.1054391666666663,0.2617993877991494,-0.0851720674973232,-0.0356047167406843,18.10011750652938,266.4258222181474,-17.74283409990784
1403638153095097088,42.809724,250.787800839057,8.38468575,0.2860272916666666,-3.1054391666666663,0.2617993877991494,-0.0851720674973232,-0.0356047167406843,5.143917579168491,266.63582485549904,0.2100026373516357
1403638153145096960,49.948216,273.66897294714107,9.970094166666666,-0.1389275416666666,-3.857282333333333,0.2017600615305445,-0.0558505360638185,-0.0132645023151569,5.081369815691766,266.49672693666247,-0.13909791883656908
1403638153195097088,50.015211,292.678349300093,7.575637124999999,0.6946377083333333,-2.7213453750000003,0.2024581932313422,-0.0153588974175501,0.007679448708775,4.393512241525036,264.53817235101866,-1.9585545856438102
1403638153245096960,50.025463,317.28203936713686,9.152873333333332,0.3350605416666666,-3.742871416666666,0.1528908424747032,-0.093549647906896,0.0328121899374933,6.60853036231878,258.4117388668559,-6.12643348416276
1403638153295097088,50.043821,288.2107614525098,8.825985,-0.0163444166666666,-3.669321541666666,0.1528908424747032,0.0321140582366956,-0.1075122819228507,4.842767420945985,257.8488227536707,-0.5629161131852243
1403638153345096960,49.065352,276.5486919135332,8.139519499999999,0.1389275416666666,-3.113611375,0.2031563249321399,-0.0453785605518525,0.0404916386462684,4.8326341953091,257.2175746857694,-0.6312480679012538
1403638153395097088,50.838709,272.1317217874745,9.536967125,0.2043052083333333,-4.4129925,0.2359685148696333,0.0167551608191455,-0.0460766922526503,12.042124559962474,260.1537407484443,2.936166062674886
1403638153445096960,56.491136,245.01128312630075,10.452254458333334,0.0,-4.077931958333333,0.2234021442552742,-0.0600393262686049,-0.2366666465704311,5.037906198902053,260.2276884212876,0.07394767284330328
1403638153495097088,43.213368,250.84343162893887,10.452254458333334,0.0,-4.077931958333333,0.2234021442552742,-0.0600393262686049,-0.2366666465704311,4.64292617136746,258.76646217402225,-1.4612262472653583
1403638153545096960,49.947738,237.63104034243477,8.441891208333333,0.0817220833333333,-3.5957716666666664,0.2282890661608583,0.0090757121103705,-0.2527236756887789,4.53441518662296,257.3500686287455,-1.416393545276776
1403638153595097088,56.569577,243.05592110237768,7.869836625,0.3840937916666667,-3.742871416666666,0.3183480555637657,0.0446804288510548,-0.2624975194999471,5.2573143901713255,257.2633485889255,-0.08672003981996568
1403638153645096960,43.363332,242.63316533292985,7.869836625,0.3840937916666667,-3.742871416666666,0.3183480555637657,0.0446804288510548,-0.2624975194999471,5.555202688080694,257.5358658468083,0.27251725788278236
1403638153695097088,60.291768,221.3634767735258,8.327480291666665,-0.4739880833333333,-3.979865458333333,0.4153883619746504,0.1514945790731078,0.0404916386462684,5.865141013244855,258.2277102567883,0.6918444099800354
1403638153745096960,40.569782,222.62084033286632,8.327480291666665,-0.4739880833333333,-3.979865458333333,0.4153883619746504,0.1514945790731078,0.0404916386462684,5.406769188082854,255.73988311207492,-2.487827144713407
1403638153795097088,49.201727,197.9490531815472,6.382494708333334,0.6537766666666667,-2.1492907916666666,0.3755948550291797,0.0216420827247296,-0.0279252680319092,5.423861602038397,254.81452829730696,-0.9253548147679567
1403638153845096960,50.047636,209.77228529280464,8.180380541666665,0.0,-3.268883333333333,0.2988003679414292,0.0537561409614253,0.0223402144255274,6.197667985879606,255.2532677522908,0.43873945498384614
1403638153895097088,49.890041,228.85474452275707,7.788114541666666,0.0817220833333333,-3.064578125,0.2548180707911721,0.1850049007113989,0.0027925268031909,5.997580592900335,254.94395690846054,-0.30931084383027496
1403638153945096960,49.932957,267.4642922258701,7.453054,0.8825985,-3.334261,0.2331759880664424,0.1968731396249603,0.1235693110411985,6.369241841240496,255.0058837598637,0.06192685140317167
1403638153995097088,50.393104,262.8975754328265,9.275456458333332,0.3023717083333333,-3.4813607499999994,0.1452113937659282,0.0516617458590321,0.1542871058762987,5.87009709204808,253.7910409125377,-1.214842847325997
1403638154045096960,49.822808,327.9147865738569,8.057797416666666,-0.24516625,-3.268883333333333,0.1563815009786919,0.0698131700797731,0.0607374579694026,6.149046186110793,252.8166859499525,-0.9743549625852097
1403638154095097088,56.326627,329.5900489312778,7.89435325,0.0572054583333333,-2.631451083333333,0.0216420827247296,0.1598721594826805,0.0230383461263251,14.125977966831119,259.93275708799086,7.1160711380383646
1403638154145096960,49.875021,276.39043707212915,9.945577541666664,-0.7191543333333333,-3.6202882916666654,0.0342084533390888,0.1410226035611418,0.0642281164733913,7.132971438136453,260.42477753506233,0.49202044707146797
1403638154195097088,43.763876,381.14892651068016,9.945577541666664,-0.7191543333333333,-3.6202882916666654,0.0342084533390888,0.1410226035611418,0.0642281164733913,6.193500093392332,258.7317604605714,-1.6930170744909105
1403638154245096960,56.377888,390.15462540933856,8.564474333333333,-0.9888372083333332,-3.170816833333333,-0.0188495559215387,0.0949459113084915,0.0698131700797731,5.9876333855716,256.60446971672076,-2.127290743850665
1403638154295097088,43.51449,401.98917723337627,8.564474333333333,-0.9888372083333332,-3.170816833333333,-0.0188495559215387,0.0949459113084915,0.0698131700797731,6.1634293557053255,254.37303063827113,-2.2314390784496254
1403638154345096960,49.986601,333.6758872389028,10.583009791666663,-0.7109821249999999,-2.549729,0.0,0.2401573050744197,0.0656243798749867,6.053375112989647,251.79247301559406,-2.580557622677077
1403638154395097088,50.001144,352.7687158258385,8.123175083333333,0.980665,-2.974683833333333,-0.0195476876223364,0.2555162024919699,-0.036302848441482,6.442024091433783,250.0285751522433,-1.7638978633507634
1403638154445096960,49.741745,535.6885289805195,8.77695175,0.0408610416666666,-3.77556025,-0.0013962634015954,0.2673844414055313,0.1843067690106012,6.936874916518855,240.14589221057156,-9.882682941671732
1403638154495097088,50.340415,517.87563930121,8.523613291666665,0.2043052083333333,-3.563082833333333,-0.025830872929516,0.1549852375770964,0.0635299847725936,6.393124521315434,237.78247134983692,-2.363420860734635
1403638154545096960,49.727439,741.3949109819392,9.814822208333332,0.24516625,-2.868445125,-0.0062831853071795,-0.0041887902047863,0.1473057888683213,6.877942186399098,236.00422687710557,-1.7782444727313589
1403638154595097088,50.121069,649.3344054438285,8.507268875,0.5883989999999999,-2.8602729166666667,0.0586430628670094,-0.018151424220741,0.0970403064108847,6.22861874978959,233.86800476635307,-2.136222110752499
1403638154645096960,50.09389,600.7639456715699,9.226423208333332,-0.2615106666666666,-2.7622064166666664,0.0788888821901436,-0.0705113017805709,-0.0139626340159546,5.348644439559001,230.90472007316296,-2.9632846931901042
1403638154695097088,49.921035,595.8281880943366,10.795487208333332,-0.4985047083333333,-4.85429175,0.1417207352619395,-0.1584758960810851,0.104021623418862,5.323740516881849,227.9765026394744,-2.928217433688559
1403638154745096960,49.743891,550.1201627652058,9.357178541666666,0.34323275,-3.849110125,0.1577777643802873,-0.2122320370425104,-0.0265290046303138,5.747323978353005,225.8945757586089,-2.0819268808654954
1403638154795097088,50.32897,602.5308036753543,10.092677291666664,0.0735498749999999,-4.404820291666666,0.1263618378443894,-0.0809832772925368,-0.0160570291183478,5.6807707709030275,224.06682732070138,-1.8277484379075304
1403638154845096960,49.532414,569.5407992462915,9.487933875,0.196133,-4.151481833333333,0.1075122819228507,-0.0698131700797731,-0.0579449311662117,7.4107081656207425,214.84196011250245,-9.22486720819893
1403638154895097088,56.550502,656.3833114905311,11.980457416666669,-0.1797885833333333,-4.494714583333333,0.1319468914507713,0.0370009801422797,-0.1340412865531645,5.556913580985733,213.6471863397664,-1.1947737727360561
1403638154945096960,43.82968,646.8682692702045,11.980457416666669,-0.1797885833333333,-4.494714583333333,0.1319468914507713,0.0370009801422797,-0.1340412865531645,5.896058744467465,212.68229864711466,-0.9648876926517289
1403638154995097088,49.572706,678.6175917400673,9.594172583333334,-0.1144109166666666,-4.690847583333333,0.140324471860344,0.0216420827247296,-0.0481710873550434,6.471699045323918,212.91294989412185,0.23065124700718798
1403638155045096960,56.948423,696.9121954572272,10.051816249999998,0.220649625,-3.800076875,0.2617993877991494,0.0488692190558412,-0.046774823953448,5.873775053334022,211.7332671710725,-1.1796827230493534
1403638155095097088,43.123484,667.7839769586727,10.051816249999998,0.220649625,-3.800076875,0.2617993877991494,0.0488692190558412,-0.046774823953448,6.309514978190725,211.57844227379883,-0.1548248972736701
1403638155145096960,56.724548,608.7350287765672,6.317117041666666,0.3840937916666667,-2.1983240416666665,0.2136283004441059,-0.0314159265358979,0.075398223686155,5.9628412536486906,211.35635441812886,-0.2220878556699688
1403638155195097088,49.574137,627.2729968588906,9.242767625,0.4331270416666666,-3.8082490833333327,0.2122320370425104,0.1424188669627373,0.0865683308989187,17.090419462293735,194.3253034526929,-17.031050965435952
1403638155245096960,43.847323,704.4507059185919,9.242767625,0.4331270416666666,-3.8082490833333327,0.2122320370425104,0.1424188669627373,0.0865683308989187,8.58108135880621,194.52733443165988,0.20203097896697386
1403638155295097088,49.975872,749.0969464706302,7.837147791666666,-0.0980665,-3.28522775,0.1298524963483781,0.2136283004441059,0.0265290046303138,6.317458096254236,194.72490674259726,0.1975723109373746
1403638155345096960,49.719572,828.0270195421472,8.180380541666665,-0.0408610416666666,-2.803067458333333,0.1556833692778942,0.1598721594826805,-0.0474729556542457,6.304345243055249,194.97768631100155,0.25277956840429283
1403638155395097088,50.550699,829.710202517717,8.123175083333333,0.34323275,-3.162644625,0.1731366617978375,0.1598721594826805,0.0370009801422797,6.326042493061519,195.05809119730176,0.08040488630021514
1403638155445096960,56.673288,803.0049332364237,7.232404375,0.5883989999999999,-3.391466458333333,0.2136283004441059,0.0991347015132779,-0.08307767239493,6.273030401133804,195.16869318732338,0.11060199002162108
1403638155495097088,49.454928,767.5073485252084,6.725727458333332,0.5883989999999999,-1.9776744166666664,0.3309144261781249,0.08307767239493,0.1340412865531645,6.3572948094978345,195.45729294688817,0.28859975956478934
1403638155545096960,43.739319,710.6553005573593,6.725727458333332,0.5883989999999999,-1.9776744166666664,0.3309144261781249,0.08307767239493,0.1340412865531645,6.469717078848876,195.66909699755482,0.2118040506666432
1403638155595097088,56.626081,611.2041827043516,9.75761675,0.0081722083333333,-3.8164212916666655,0.4230678106834254,0.1975712713257581,0.161268422884276,6.341971751389851,195.60586371729832,-0.06323328025649744
1403638155645096960,49.662113,583.6863835183646,8.466407833333333,0.4249548333333333,-3.334261,0.4063126498642799,0.1961750079241626,0.0872664625997164,13.308983053852405,188.6273895599547,-6.978474157343612
1403638155695097088,43.817997,632.0791660079545,8.466407833333333,0.4249548333333333,-3.334261,0.4063126498642799,0.1961750079241626,0.0872664625997164,6.286282046515648,188.84614008970973,0.2187505297550274
1403638155745096960,49.628496,618.6925468890283,8.490924458333334,-0.0735498749999999,-3.015544875,0.4153883619746504,-0.0125663706143591,0.0823795406941323,5.938780551817555,188.7801567838585,-0.06598330585123335
1403638155795097088,50.326348,605.8036193456227,9.872027666666666,-0.612915625,-4.36395925,0.4153883619746504,0.0104719755119659,-0.0216420827247296,6.0689674618414875,189.22425714984064,0.44410036598213765
1403638155845096960,49.997568,594.0941857875083,10.517632125,-0.122583125,-3.2361945,0.4754276882432553,0.0230383461263251,0.0656243798749867,6.185042375025273,189.93385932265608,0.7096021728154369
1403638155895097088,49.973726,534.4204790710537,8.866846041666665,-0.1144109166666666,-2.4189736666666666,0.494277244164794,-0.064926248174189,-0.0614355896702004,6.032174055548686,190.79886247823677,0.8650031555806947
1403638155945096960,49.786568,468.18655106768944,9.839338833333333,-0.2533384583333333,-4.903325,0.5215043804959056,-0.2073451151369263,-0.0390953752446729,6.8064166860393644,190.05011343396882,-0.748749044267953
1403638155995097088,54.880619,455.4591331765988,11.236786458333333,-0.0735498749999999,-4.699019791666666,0.510334273283142,-0.2101376419401172,-0.0774926187885482,5.677947785261816,191.34753194844382,1.2974185144749981
1403638156045096960,48.335791,487.6107785199423,10.762798375,-0.9888372083333332,-4.249548333333333,0.5333726194094671,-0.3183480555637657,-0.0963421747100869,5.407753955521627,192.94824075309623,1.6007088046524132
1403638156095097088,49.802541,576.7581704946234,9.398039583333333,0.7028099166666667,-3.309744375,0.5766567848589265,-0.2296853295624537,-0.0809832772925368,5.295089078672883,194.92040532929428,1.972164576198054
1403638156145096960,49.980402,639.5756093332662,10.762798375,0.3023717083333333,-3.612116083333333,0.4726351614400644,-0.0970403064108847,-0.0670206432765822,5.400273559173998,197.59132904389406,2.6709237145997804
1403638156195097088,50.227165,686.4908601479016,9.80665,-0.0817220833333333,-4.094276375,0.4824090052512327,-0.1228711793404008,0.0984365698124801,5.134300736375186,200.54179106445932,2.9504620205652543
1403638156245096960,59.748173,674.2820572288464,9.545139333333331,-0.171616375,-3.612116083333333,0.4482005519121438,-0.1731366617978375,0.0118682389135614,5.132274944758588,203.80118397545382,3.2593929109945066
1403638156295097088,40.517807,718.0378018487264,9.545139333333331,-0.171616375,-3.612116083333333,0.4482005519121438,-0.1731366617978375,0.0118682389135614,4.136335221012776,206.59596127915063,2.7947773036968044
1403638156345096960,49.741507,679.1173524536116,8.793296166666666,0.9398039583333332,-2.705000958333333,0.3239331091701475,-0.179419847105017,-0.0558505360638185,5.166695394812877,210.28984668938526,3.6938854102346284
1403638156395097088,50.262213,812.1128843031754,8.948568125,0.3595771666666666,-4.936013833333333,0.2673844414055313,-0.0565486677646162,0.0090757121103705,4.612352201505746,213.17300932115714,2.8831626317718815
1403638156445096960,49.860239,810.3821948854888,8.302963666666667,0.5720545833333333,-2.353596,0.2555162024919699,-0.153588974175501,-0.0439822971502571,4.572119086237873,216.15312862723556,2.9801193060784215
1403638156495097088,49.932718,877.3431662488489,8.883190458333333,0.04903325,-2.6641399166666666,0.1940806128217694,-0.0272271363311115,0.0481710873550434,4.721968225200899,219.42917997569472,3.2760513484591627
1403638156545096960,59.64756,870.6741219287276,6.758416291666666,-0.0653776666666666,-2.7376897916666665,0.1068141502220529,0.0314159265358979,0.1312487597499735,4.314772095485826,222.29698435101403,2.8678043753193094
1403638156595097088,49.902916,974.8133478563218,7.534776083333333,-0.3514049583333333,-4.037070916666667,0.0614355896702004,-0.0474729556542457,0.1103048087260416,4.216962295085122,225.1100760915993,2.8130917405852642
1403638156645096960,40.506601,1068.0833718526155,7.534776083333333,-0.3514049583333333,-4.037070916666667,0.0614355896702004,-0.0474729556542457,0.1103048087260416,2.725932942024689,227.48218224752975,2.372106155930453
1403638156695097088,50.024987,999.1347276968048,8.131347291666666,0.980665,-3.554910625,0.0809832772925368,-0.0474729556542457,0.046774823953448,4.201892492754332,230.1464385402159,2.6642562926861615
1403638156745096960,49.470186,1053.7042798571713,9.013945791666666,1.299381125,-3.4323274999999995,-0.0111701072127637,0.0767944870877505,0.0265290046303138,4.1150025397706225,232.6966283720479,2.550189831832
1403638156795097088,60.00328,1056.5230518140552,9.75761675,0.7191543333333333,-3.702010375,0.0174532925199432,0.0223402144255274,0.0488692190558412,4.213904259565485,235.19490743800299,2.4982790659550744
1403638156845096960,39.999485,1015.700070701926,9.75761675,0.7191543333333333,-3.702010375,0.0174532925199432,0.0223402144255274,0.0488692190558412,4.506579941771138,237.75842724302768,2.563519805024697
1403638156895097088,50.495863,1051.4298532513574,8.000591958333333,0.7681875833333334,-3.2770555416666665,-0.0970403064108847,-0.0446804288510548,0.0321140582366956,4.249314116684176,240.41643507563091,2.658007832603232
1403638156945096960,50.045252,1027.1786681637016,8.450063416666666,-0.2288218333333333,-3.334261,-0.0628318530717958,-0.057246799465414,0.0530580092606276,4.229155358852451,243.0170399485758,2.600604872944899
1403638156995097088,49.87073,975.0220433920696,9.945577541666664,0.8580818749999999,-3.1463002083333333,-0.0041887902047863,0.0837758040957278,0.0635299847725936,3.956827438313687,245.700122853318,2.6830829047421787
1403638157045096960,49.569368,1006.2996187311376,10.550320958333334,1.1604535833333331,-2.7131731666666665,-0.0516617458590321,0.0118682389135614,0.1682497398922533,4.036942962159727,248.52054359155989,2.820420738241893
1403638157095097088,50.514698,920.190324175395,10.019127416666668,0.2860272916666666,-3.898143375,-0.0453785605518525,-0.0272271363311115,0.1417207352619395,4.471009766901293,252.57260695533836,4.052063363778473
1403638157145096960,59.500218,914.0617795943236,9.005773583333333,0.0653776666666666,-2.4189736666666666,-0.0740019602845595,-0.0726056968829641,0.0160570291183478,3.9280374581426596,255.99329447743733,3.420687522098973
1403638157195097088,39.741277,953.5083710703116,9.005773583333333,0.0653776666666666,-2.4189736666666666,-0.0740019602845595,-0.0726056968829641,0.0160570291183478,4.1349110760102015,259.5490280321791,3.5557335547417495
1403638157245096960,50.701618,881.8319178167716,9.438900625,0.7109821249999999,-3.268883333333333,-0.0069813170079773,0.0809832772925368,0.1361356816555577,4.155261018156736,263.38905334749455,3.840025315315472
1403638157295097088,50.051451,880.4038655353049,10.525804333333332,0.2860272916666666,-5.24655775,-0.0307177948351002,0.0488692190558412,0.1158898623324234,4.050638845323346,267.481381593037,4.092328245542433
1403638157345096960,49.688101,766.4322173118717,7.10982125,-0.1552719583333333,-1.9204689583333328,0.0230383461263251,0.0949459113084915,-0.0663225115757845,4.190263209657963,271.6500265355901,4.168644942553101
1403638157395097088,60.917616,780.0129191956835,9.201906583333331,0.3105439166666667,-3.87362675,0.018151424220741,0.1556833692778942,-0.0579449311662117,4.1267532492694565,275.7477241321583,4.097697596568196
1403638157445096960,48.702955,775.4656325116667,7.150682291666666,0.6456044583333332,-2.2718739166666664,0.0774926187885482,0.1368338133563554,-0.0090757121103705,4.264418671056587,279.94406917619045,4.196345044032171
1403638157495097088,40.54594,611.9960286774851,7.150682291666666,0.6456044583333332,-2.2718739166666664,0.0774926187885482,0.1368338133563554,-0.0090757121103705,4.405260566023231,284.33636122770355,4.392292051513095
1403638157545096960,49.872876,600.7965387394843,7.722736874999999,-0.196133,-3.4813607499999994,0.0970403064108847,0.0495673507566389,-0.0237364778271228,7.790381403314843,289.1397216540204,4.803360426316829
1403638157595097088,50.186634,617.0533051563956,9.773961166666666,-0.3023717083333333,-4.502886791666667,0.1647590813882647,0.1940806128217694,-0.0628318530717958,4.302325658977394,293.6986475866059,4.55892593258551
1403638157645096960,49.732685,591.0910950850231,11.81701325,-0.2615106666666666,-4.609125499999999,0.2548180707911721,0.2443460952792061,-0.1668534764906579,4.830514428598743,298.3991279056409,4.700480319035023
1403638157695097088,50.092459,554.5562794267294,8.646196416666667,0.416782625,-2.79489525,0.2310815929640492,0.2254965393576673,-0.2129301687433081,4.685676947325389,302.9212775633949,4.522149657753971
1403638157745096960,49.742221,646.4055209977561,10.092677291666664,0.0408610416666666,-2.9011339583333333,0.2415535684760151,0.1096066770252439,-0.1626646862858715,4.653362970536346,307.8648710334339,4.943593470038991
1403638157795097088,50.540686,528.186263592157,9.16921775,0.2615106666666666,-2.533384583333333,0.3490658503988659,0.1333431548523667,-0.208043246837724,4.7958605945148705,312.7280662775926,4.863195244158703
1403638157845096960,50.039291,586.9497686024249,10.182571583333331,0.6701210833333332,-3.92266,0.3860668305411457,0.0062831853071795,-0.0760963553869527,4.7352087414107755,318.2239253272147,5.4958590496221404
1403638157895097088,59.474946,522.9308867527413,9.692239083333332,0.7681875833333334,-3.138128,0.4356341812977846,0.0209439510239319,-0.0565486677646162,4.862214032544089,323.74361350787177,5.519688180657056
1403638157945096960,40.06648,586.8309617010948,9.692239083333332,0.7681875833333334,-3.138128,0.4356341812977846,0.0209439510239319,-0.0565486677646162,4.746137430853695,332.00835639985746,8.26474289198569
1403638157995097088,59.638024,632.2782241077268,7.379504124999999,0.5965712083333333,-3.015544875,0.4049163864626844,-0.1298524963483781,0.0823795406941323,4.7444756602908775,337.85176050538286,5.843404105525394
1403638158045096960,49.859523,568.1776585503002,7.992419749999999,-0.0898942916666666,-3.170816833333333,0.3295181627765294,-0.0502654824574366,0.1605702911834783,4.684031271858662,343.5965402209645,5.7447797155816716
1403638158095097088,40.367127,621.7471134855709,7.992419749999999,-0.0898942916666666,-3.170816833333333,0.3295181627765294,-0.0502654824574366,0.1605702911834783,4.582531737213474,349.4339929208475,5.837452699882988
1403638158145096960,50.082922,619.1010819998805,9.921060916666669,-0.1144109166666666,-2.672312125,0.3001966313430246,0.0488692190558412,0.1480039205691191,4.351200067022347,355.2814914039598,5.847498483112304
1403638158195097088,50.252199,698.5941113737763,7.763597916666666,0.9152873333333332,-3.023717083333333,0.2687807048071267,-0.0146607657167523,0.1417207352619395,4.400035901633219,360.73798447980096,5.456493075841138
1403638158245096960,53.790808,802.8683796370387,9.275456458333332,0.1144109166666666,-3.693838166666666,0.200363798128949,0.0516617458590321,0.0411897703470661,4.113761211430863,366.25886826632626,5.520883786525303
1403638158295097088,48.295021,853.4294508317836,8.744262916666667,-0.3840937916666667,-3.162644625,0.0816814089933346,0.0139626340159546,-0.007679448708775,4.768814287498819,370.559014415908,4.300146149581735
1403638158345096960,47.587871,857.8091071519095,9.038462416666666,0.7028099166666667,-3.603943875,0.0516617458590321,-0.0370009801422797,-0.0202458193231342,4.072463191998994,376.04325584433496,5.484241428426969
1403638158395097088,60.35161,920.4049099107156,8.204897166666667,0.8417374583333332,-2.8439285,-0.0279252680319092,0.0579449311662117,-0.0984365698124801,3.845409315654537,381.26231213824167,5.219056293906704
1403638158445096960,49.779892,909.0252198303292,7.976075333333333,0.6292600416666666,-2.2963905416666663,-0.0502654824574366,0.0907571211037051,-0.0977384381116824,3.7660760082721922,386.2397584574986,4.977446319256956
1403638158495097088,40.267945,931.2132631474084,7.976075333333333,0.6292600416666666,-2.2963905416666663,-0.0502654824574366,0.0907571211037051,-0.0977384381116824,3.8423670684365003,391.44752484642777,5.207766388929144
1403638158545096960,59.735536,814.3689239889619,6.774760708333333,-0.24516625,-3.0809225416666663,-0.0397935069454707,-0.0565486677646162,0.0383972435438752,3.6928318874794037,396.38740404759017,4.939879201162398
1403638158595097088,50.323963,868.2465123765398,11.661741291666669,-0.7109821249999999,-3.178989041666666,-0.0118682389135614,0.057246799465414,0.0272271363311115,3.7508761197315525,401.3711478964825,4.983743848892345
1403638158645096960,39.878607,875.1841687100058,11.661741291666669,-0.7109821249999999,-3.178989041666666,-0.0118682389135614,0.057246799465414,0.0272271363311115,3.146378675098988,405.4794540921784,4.108306195695889
1403638158695097088,50.322295,854.4553968965688,8.719746291666667,-0.3105439166666667,-4.4211647083333325,-0.0055850536063818,-0.0223402144255274,0.1263618378443894,3.834110735497251,410.6252448720909,5.145790779912488
1403638158745096960,49.248933,886.9489492077163,9.283628666666663,-0.53936575,-3.9390044166666662,0.0272271363311115,0.0335103216382911,0.2387610416728242,4.045742351182254,415.47821953688856,4.852974664797671
1403638158795097088,50.388575,780.7603330517185,8.38468575,0.122583125,-4.143309625,0.0013962634015954,-0.1563815009786919,0.2247984076568696,3.967097547357307,420.60648426742245,5.1282647305338855
1403638158845096960,49.869776,783.8475799757339,9.872027666666666,-0.9888372083333332,-3.2525389166666665,0.0069813170079773,-0.1047197551196597,0.2087413785385218,3.9098302195872696,425.8092272152647,5.202742947842239
1403638158895097088,59.711218,817.9262239984896,9.651378041666666,0.024516625,-3.734699208333333,-0.0335103216382911,0.0740019602845595,0.2443460952792061,3.8167563839446457,430.7412955125929,4.932068297328215
1403638158945096960,50.637722,782.3802333014658,10.6892485,-0.5883989999999999,-4.674503166666667,0.0118682389135614,-0.1082104136236484,0.0781907504893459,3.9938138510349948,435.8460801973281,5.104784684735193
1403638158995097088,39.532899,682.0575372822541,10.6892485,-0.5883989999999999,-4.674503166666667,0.0118682389135614,-0.1082104136236484,0.0781907504893459,3.898008518158528,440.9852553301696,5.139175132841501
1403638159045096960,59.968472,701.2820838861142,9.528794916666666,-0.9724927916666666,-3.7837324583333327,-0.0293215314335047,-0.1682497398922533,0.124965574442794,3.956165191003288,446.2245680044453,5.239312674275709
1403638159095097088,40.178299,582.9062472433559,9.528794916666666,-0.9724927916666666,-3.7837324583333327,-0.0293215314335047,-0.1682497398922533,0.124965574442794,4.123109967846009,451.72934436263165,5.504776358186348
1403638159145096960,49.929857,554.7576644506493,9.896544291666666,0.2778550833333333,-2.868445125,0.0048869219055841,-0.3274237676741362,0.1703441349946465,4.054797192560312,457.1699002039524,5.440555841320759
1403638159195097088,49.888373,743.6410611104825,10.411393416666668,-0.1552719583333333,-3.7919046666666665,-0.0677187749773799,-0.2722713633111154,0.0216420827247296,3.9674898539187162,462.800288768686,5.630388564733607
1403638159245096960,50.304412,609.9436650094352,8.77695175,-0.0817220833333333,-2.8439285,-0.046774823953448,-0.2345722514680378,0.0474729556542457,4.054785403054486,468.2707488261482,5.470460057462162
1403638159295097088,49.314261,430.19139354596257,8.580818749999999,-0.0326888333333333,-3.2443667083333327,-0.0265290046303138,0.1514945790731078,0.1103048087260416,4.18198447438996,473.99318997009294,5.7224411439447636
1403638159345096960,60.331583,366.2528391624256,9.447072833333332,0.7763597916666666,-3.505877375,0.0013962634015954,0.494277244164794,0.143116998663535,4.134730279036381,480.0880872484599,6.094897278366943
1403638159395097088,40.295362,379.5021380336784,9.447072833333332,0.7763597916666666,-3.505877375,0.0013962634015954,0.494277244164794,0.143116998663535,4.56514136196685,485.59229627809464,5.504209029634751
1403638159445096960,59.870243,345.4068867484848,8.891362666666666,0.0817220833333333,-4.298581583333333,0.075398223686155,0.5173155902911193,0.2527236756887789,4.2508674019277635,491.7932851185178,6.200988840423179
1403638159495097088,40.075064,397.7179781184559,8.891362666666666,0.0817220833333333,-4.298581583333333,0.075398223686155,0.5173155902911193,0.2527236756887789,4.319075076567991,498.1421984839143,6.34891336539647
1403638159545096960,49.77274,450.2807130781344,9.161045541666669,0.1144109166666666,-4.0615875416666665,0.0886627260013119,0.538957673015849,0.2513274122871834,4.7398857056542,504.04863396212545,5.906435478211165
1403638159595097088,50.504922,501.13190677732433,8.842329416666665,-0.171616375,-3.759215833333333,0.1305506280491758,0.4174827570770436,0.4447098934081551,4.245876544338816,509.74384802215366,5.695214060028206
1403638159645096960,49.338103,540.8427886604543,10.6892485,-0.4249548333333333,-4.16782625,0.0767944870877505,0.2904227875318564,0.3385938748868999,4.249291712836238,515.7219609858797,5.978112963726062
1403638159695097088,50.795555,618.1667548914254,11.310336333333332,-0.3023717083333333,-2.459834708333333,0.075398223686155,0.2059488517353309,0.2548180707911721,4.157895240107513,521.2093228025369,5.487361816657199
1403638159745096960,49.823522,716.8009696350204,10.427737833333332,0.4739880833333333,-2.778550833333333,0.0907571211037051,0.0851720674973232,0.2422517001768129,4.521731519258974,525.9446112398689,4.735288437331974
1403638159795097088,50.227404,732.3340816608824,10.435910041666666,-0.2778550833333333,-4.453853541666667,-0.0383972435438752,0.1633628179866692,-0.0006981317007977,3.621136223461055,531.0275815025312,5.082970262662343
1403638159845096960,59.982062,749.4923379295944,9.398039583333333,0.4331270416666666,-3.1217835833333334,-0.1445132620651305,-0.0390953752446729,-0.2925171826342496,3.305105946900524,536.0649835294561,5.037402026924838
1403638159895097088,39.915561,632.5354780333166,9.398039583333333,0.4331270416666666,-3.1217835833333334,-0.1445132620651305,-0.0390953752446729,-0.2925171826342496,3.218034824413775,540.6244726415557,4.559489112099641
1403638159945096960,49.540281,652.3025513464047,8.065969625,-0.1307553333333333,-3.358777625,-0.0390953752446729,0.0558505360638185,-0.2303834612632515,3.081618352139281,544.5722887044864,3.947816062930656
1403638159995097088,60.306073,795.2707003015294,10.158054958333333,-1.1441091666666665,-3.979865458333333,-0.0712094334813686,-0.036302848441482,-0.0886627260013119,2.8615836884582095,548.5951044473459,4.022815742859507
1403638160045096960,39.71672,761.1185028118769,10.158054958333333,-1.1441091666666665,-3.979865458333333,-0.0712094334813686,-0.036302848441482,-0.0886627260013119,9.612698398683458,548.7360053961735,0.14090094882760695
1403638160095097088,50.456763,804.6253518812606,10.844520458333331,-0.367749375,-4.126965208333333,0.0055850536063818,-0.1270599695451872,-0.0321140582366956,2.5444284931399395,552.1851621131191,3.449156716945595
1403638160145096960,49.510479,775.4679240917052,9.953749749999998,0.5557101666666666,-2.0512242916666668,-0.0069813170079773,-0.122173047639603,0.0265290046303138,2.46989919114221,555.5478928147011,3.362730701581995
1403638160195097088,50.180196,621.5830951330139,11.146892166666666,0.196133,-3.8245935,-0.0055850536063818,-0.3504621138004613,0.0425860337486616,2.53415513714381,558.8649252248379,3.3170324101367896
1403638160245096960,49.424172,633.2681937333962,9.798477791666668,-0.8989429166666666,-3.702010375,-0.0314159265358979,-0.4726351614400644,0.025830872929516,2.585431644122529,562.0661976649586,3.2012724401207606
1403638160295097088,50.660372,657.0291292013088,9.332661916666666,0.0572054583333333,-3.7837324583333327,0.0356047167406843,-0.3679154063204046,0.0404916386462684,2.532775843204721,565.2316628375064,3.1654651725477834
1403638160345096960,49.79062,783.7337439410534,11.212269833333332,0.1552719583333333,-4.985047083333333,0.0153588974175501,-0.249931148885588,0.0314159265358979,3.2490220925829454,567.7764246279224,2.5447617904160325
1403638160395097088,49.550534,782.9690142502369,9.381695166666669,0.0,-4.004382083333333,-0.0118682389135614,-0.1626646862858715,0.1103048087260416,2.189353380230949,571.4757619059885,3.699337278066082
1403638160445096960,50.27771,788.8818388928205,8.033280791666666,-0.1062387083333333,-2.582417833333333,-0.0251327412287183,-0.1019272283164688,0.0621337213709981,2.7877371089173297,574.5603280682094,3.084566162220881
1403638160495097088,50.219774,765.7208343114354,9.692239083333332,-0.2288218333333333,-4.037070916666667,0.0216420827247296,-0.0237364778271228,0.0977384381116824,2.872879742403465,577.5421116350628,2.981783566853437
1403638160545096960,53.86734,739.3680696088688,8.28661925,-0.24516625,-2.0267076666666664,0.0216420827247296,-0.0460766922526503,0.0740019602845595,2.8457850095981,580.6000894163842,3.0579777813213695
1403638160595097088,57.981014,740.419662648889,8.695229666666666,-0.5230213333333333,-3.18716125,0.0307177948351002,-0.0642281164733913,0.1207767842380075,2.9661350673754803,583.568733264532,2.968643848147849
1403638160645096960,38.49721,695.7878798630217,8.695229666666666,-0.5230213333333333,-3.18716125,0.0307177948351002,-0.0642281164733913,0.1207767842380075,2.9376070935123724,586.7433927371588,3.174659472626786
1403638160695097088,49.810886,557.3381909168329,8.801468374999999,0.7273265416666667,-2.0021910416666664,-0.0195476876223364,0.0558505360638185,0.0223402144255274,2.938972296666126,589.9924624020233,3.2490696648644644
1403638160745096960,59.54814,492.8999070990951,10.427737833333332,-0.3268883333333333,-2.909306166666666,-0.0097738438111682,0.1584758960810851,0.2569124658935653,3.010733544054406,593.3113804794272,3.3189180774038505
1403638160795097088,40.440559,455.99877353099305,10.427737833333332,-0.3268883333333333,-2.909306166666666,-0.0097738438111682,0.1584758960810851,0.2569124658935653,4.61855312065837,595.7424081803782,2.431027700951063
1403638160845096960,49.711228,406.1884950623983,7.861664416666666,-0.1879607916666666,-2.30456275,-0.0118682389135614,0.3658210112180114,0.2541199390903744,2.9834223157286477,599.1089647707187,3.3665565903404513
1403638160895097088,50.277233,416.0846043621335,7.493915041666666,-0.196133,-2.582417833333333,-0.1082104136236484,0.4105014400690662,0.3728023282259888,3.0443380566152882,602.4829003775912,3.3739356068725783
1403638160945096960,59.793949,402.43331394797104,8.572646541666666,0.7273265416666667,-2.378112625,-0.2904227875318564,0.21851522234969,0.1577777643802873,3.1093097988300444,605.504835664851,3.0219352872597938
1403638160995097088,40.080547,472.530630789997,8.572646541666666,0.7273265416666667,-2.378112625,-0.2904227875318564,0.21851522234969,0.1577777643802873,3.1108091070549118,608.4037088212664,2.898873156415334
1403638161045096960,49.788475,461.3853421068169,9.65955025,-0.612915625,-4.200515083333333,-0.2988003679414292,0.1961750079241626,0.2387610416728242,3.203324456240244,611.2288579062603,2.825149084993882
1403638161095097088,50.313234,529.6640999444436,8.956740333333332,0.0572054583333333,-3.5222217916666665,-0.35395277230445,0.0300196631343024,0.2569124658935653,3.1890338754063894,613.7400946651742,2.511236758913924
1403638161145096960,59.452773,507.726030546969,7.216059958333333,-0.3023717083333333,-2.2228406666666665,-0.4384267081009756,0.0118682389135614,0.1382300767579508,3.0755777508417412,616.0813968673438,2.3413022021695724
1403638161195097088,40.486812,492.8337096035054,7.216059958333333,-0.3023717083333333,-2.2228406666666665,-0.4384267081009756,0.0118682389135614,0.1382300767579508,3.0899262912879504,618.3487884001045,2.267391532760712
1403638161245096960,50.119877,480.7694636959231,9.945577541666664,0.612915625,-3.358777625,-0.4977679026687828,-0.0027925268031909,0.1703441349946465,2.8073189074779195,620.4292881081593,2.0804997080548446
1403638161295097088,49.898624,482.3869992806611,9.095667875,-0.1552719583333333,-2.4680069166666665,-0.5619960191421741,-0.0083775804095727,0.2464404903815993,3.0714561849632784,622.4854715512373,2.056183443077998
1403638161345096960,49.571276,507.0580466858864,10.656559666666666,0.7273265416666667,-4.968702666666667,-0.5452408583230285,-0.1682497398922533,0.2136283004441059,3.0717980378356993,624.4828519909706,1.9973804397333197
1403638161395097088,50.472975,414.8264434330848,6.161845083333333,0.4985047083333333,-2.0267076666666664,-0.499862297771176,-0.1354375499547599,0.1947787445225671,3.0254452032995633,626.3634800577042,1.8806280667336068
1403638161445096960,49.510479,444.4386136776208,9.422556208333331,0.0980665,-2.941995,-0.4028219913602912,-0.15079644737231,0.2422517001768129,3.1111000859061257,628.0273424649821,1.6638624072778612
1403638161495097088,50.457239,506.4356320936906,9.275456458333332,-0.4739880833333333,-3.334261,-0.3567452991076409,-0.210835773640915,0.1019272283164688,3.0361493357560683,629.74908710518,1.721744640197926
1403638161545096960,49.742699,565.4081643277502,9.291800875,0.0408610416666666,-3.162644625,-0.3134611336581816,-0.1584758960810851,0.1256637061435917,2.6807952203856273,631.5775837929291,1.828496687749066
1403638161595097088,50.11487,613.6041563746862,7.951558708333333,0.5965712083333333,-3.963521041666666,-0.239459173373622,-0.0321140582366956,0.1982694030265558,2.7988356730464803,633.3330841036274,1.7555003106982667
1403638161645096960,60.471296,684.6859802858257,7.641014791666667,-0.196133,-2.5905900416666663,-0.1661553447898601,-0.075398223686155,0.1877974275145898,2.907557307570372,635.1561260992434,1.823041995615995
1403638161695097088,39.332628,719.7931221628061,9.193734375,-0.6047434166666666,-3.710182583333333,-0.1193805208364121,-0.0404916386462684,0.2415535684760151,2.843585362271891,636.9623146959187,1.8061885966753835
1403638161745096960,50.117731,712.8393192018681,9.234595416666666,0.1470997499999999,-4.453853541666667,-0.0991347015132779,0.1033234917180643,0.208043246837724,2.7447029043215023,638.8513855752957,1.889070879376959
1403638161795097088,50.076485,619.9907421078941,8.548129916666667,0.3759215833333333,-3.260711125,-0.1019272283164688,0.0900589894029074,0.1438151303643327,2.9514031945147003,640.7168030663439,1.8654174910482197
1403638161845096960,49.957991,582.8086573509598,9.283628666666663,0.3350605416666666,-3.4323274999999995,-0.1864011641129944,0.1228711793404008,0.1424188669627373,2.9757417788746654,642.6105999354281,1.8937968690842126
1403638161895097088,50.0319,567.7386739439203,8.752435125,-0.4086104166666666,-2.574245625,-0.1542871058762987,0.2555162024919699,0.1626646862858715,3.3143082997237725,644.1832603163605,1.5726603809323478
1403638161945096960,49.890757,577.5349643755515,7.722736874999999,0.5557101666666666,-2.8847895416666667,-0.2317797246648469,0.0237364778271228,0.1068141502220529,2.921335446184922,646.0741196413494,1.8908593249889236
1403638161995097088,50.252914,620.163867815251,8.703401874999999,-0.24516625,-3.064578125,-0.1808161105066125,0.1033234917180643,0.1884955592153876,3.0050580851971866,648.0189832601554,1.944863618806039
1403638162045096960,49.019814,749.0386204654757,10.239777041666668,0.0653776666666666,-4.020726499999999,-0.1340412865531645,0.0523598775598298,0.1864011641129944,2.9197237151297926,649.9083760952221,1.889392835066701
1403638162095097088,51.852941,725.4344247233132,9.880199875,-0.269682875,-2.909306166666666,-0.1556833692778942,0.0139626340159546,0.1354375499547599,3.1959899292864162,651.8085227407915,1.9001466455694072
1403638162145096960,49.828291,767.0951496079942,8.18855275,0.4739880833333333,-3.7919046666666665,-0.085870199198121,-0.0041887902047863,0.1193805208364121,3.231070582784608,653.6681299530778,1.859607212286278
1403638162195097088,49.870253,749.7338613885843,10.681076291666663,-0.3595771666666666,-4.151481833333333,-0.0342084533390888,-0.0195476876223364,0.2275909344600605,3.2886885437881124,655.391761818488,1.7236318654101979
1403638162245096960,60.305118,788.8953639971353,9.896544291666666,-0.024516625,-2.459834708333333,-0.0635299847725936,-0.0209439510239319,0.0823795406941323,2.4268707992046306,657.4401376176912,2.0483757992031997
1403638162295097088,39.112568,781.3598043846038,9.896544291666666,-0.024516625,-2.459834708333333,-0.0635299847725936,-0.0209439510239319,0.0823795406941323,3.3624042418581848,659.1635693609537,1.7234317432624948
1403638162345096960,49.831629,745.2691227205867,8.613507583333332,0.4331270416666666,-3.955348833333333,0.0132645023151569,-0.0523598775598298,0.1954768762233649,3.3627949768965366,660.9254394990141,1.7618701380604307
1403638162395097088,60.538054,701.5997144724982,8.368341333333333,0.7028099166666667,-3.08909475,-0.0111701072127637,0.1528908424747032,0.0726056968829641,3.537130109823482,662.6823505810326,1.756911082018405
1403638162445096960,39.480209,712.2675005424045,8.368341333333333,0.7028099166666667,-3.08909475,-0.0111701072127637,0.1528908424747032,0.0726056968829641,3.534204040730878,664.4637044977428,1.781353916710259
1403638162495097088,61.211109,697.3846349570764,10.697420708333333,0.0572054583333333,-3.849110125,-0.0209439510239319,0.0698131700797731,0.0006981317007977,3.6468508888084914,666.1794321752219,1.7157276774790944
1403638162545096960,38.542986,671.8664317488862,10.697420708333333,0.0572054583333333,-3.849110125,-0.0209439510239319,0.0698131700797731,0.0006981317007977,3.586569227147912,667.8177766333588,1.638344458136885
1403638162595097088,50.647259,672.6522112995589,7.89435325,-0.4086104166666666,-3.930832208333333,-0.0251327412287183,-0.1082104136236484,0.0167551608191455,3.840929637169674,669.4206601663417,1.6028835329829008
1403638162645096960,49.517631,713.9224747387874,8.270274833333334,-0.73549875,-4.020726499999999,-0.0230383461263251,0.0118682389135614,-0.0865683308989187,3.871531446514694,670.9752227803097,1.5545626139679598
1403638162695097088,50.426484,748.412432359003,11.195925416666665,-0.3840937916666667,-4.028898708333333,-0.028623399732707,0.025830872929516,-0.0265290046303138,2.95901436860735,672.9341811281555,1.9589583478458508
1403638162745096960,60.182571,792.6007652704536,9.062979041666669,0.2533384583333333,-2.9338227916666666,0.0146607657167523,-0.0733038285837618,0.1047197551196597,4.004281703779276,674.4965815913614,1.562400463205904
1403638162795097088,50.169229,765.5261781544203,9.7085835,-0.6701210833333332,-3.015544875,-0.0872664625997164,-0.0635299847725936,0.1473057888683213,4.243636853902697,676.063162916652,1.5665813252905991
1403638162845096960,43.824196,712.6469384656871,9.7085835,-0.6701210833333332,-3.015544875,-0.0872664625997164,-0.0635299847725936,0.1473057888683213,4.309431136926125,677.6384758094683,1.5753128928163278
1403638162895097088,47.55807,529.6923585627145,9.773961166666666,-0.661948875,-4.453853541666667,-0.0684169066781777,0.1019272283164688,0.2478367537831947,4.523389720198092,679.2126738155587,1.5741980060903416
1403638162945096960,48.40517,487.8932199705234,9.586000375,-0.3350605416666666,-5.532585041666667,-0.0195476876223364,0.1605702911834783,0.3232349774693498,4.573286678256079,680.7321809297872,1.5195071142285315
1403638162995097088,49.77107,426.0259921451765,8.825985,0.5066769166666666,-3.4404997083333333,-0.1305506280491758,0.314857397059777,0.1619665545850737,4.727322120968518,682.2864997781674,1.5543188483801487
1403638163045096960,59.659243,491.3909585427383,6.186361708333333,0.4739880833333333,-3.293399958333333,-0.114493598930828,0.1591740277818828,0.1640609496874669,4.762442463921713,683.772998824993,1.4864990468256565
1403638163095097088,39.738894,539.8192504678964,6.186361708333333,0.4739880833333333,-3.293399958333333,-0.114493598930828,0.1591740277818828,0.1640609496874669,5.580536822161551,684.9890660952865,1.216067270293479
1403638163145096960,50.241708,642.7845386119724,7.89435325,-1.12776475,-3.800076875,-0.1759291886010284,0.0495673507566389,0.1836086373098034,4.67603302168089,686.2859761342469,1.296910038960391
1403638163195097088,50.401211,600.4263471033692,8.883190458333333,0.6782932916666666,-3.554910625,-0.2199114857512855,-0.0216420827247296,0.1089085453244461,4.524736189778189,687.4935356769984,1.2075595427514827
1403638163245096960,49.656391,586.1997513573681,8.695229666666666,-0.196133,-4.135137416666667,-0.3015928947446201,0.025830872929516,0.0006981317007977,4.645231488546118,688.5172353748695,1.0236996978711659
1403638163295097088,50.729752,569.1410871353175,7.79628675,-0.7763597916666666,-3.309744375,-0.3316125578789226,-0.0558505360638185,0.0349065850398865,4.693606501612627,689.4862120896654,0.9689767147958719
1403638163345096960,49.064636,569.4133100185775,7.984247541666667,0.0653776666666666,-3.685665958333333,-0.3295181627765294,0.0914552528045028,0.0495673507566389,4.7032568413960325,690.365893142227,0.8796810525616365
1403638163395097088,50.450564,587.9529982085962,7.89435325,0.1470997499999999,-3.072750333333333,-0.4098033083682685,-0.0272271363311115,0.0893608577021096,4.559908580603581,691.2462582042243,0.8803650619972814
1403638163445096960,49.542665,628.0130171547072,6.758416291666666,0.122583125,-1.96133,-0.3553490357060455,0.0418879020478639,0.122173047639603,4.516460823299283,692.0475209573838,0.801262753159449
1403638163495097088,60.1511,651.5624699291027,9.602344791666663,-0.7273265416666667,-4.184170666666667,-0.2617993877991494,0.1137954672300302,0.1654572130890624,3.9207952511343547,693.0261560806377,0.97863512325398
1403638163545096960,39.22391,679.6733356360974,9.602344791666663,-0.7273265416666667,-4.184170666666667,-0.2617993877991494,0.1137954672300302,0.1654572130890624,4.48805881776676,693.694126162202,0.6679700815642491
1403638163595097088,50.901412,701.6917264492452,11.097858916666665,0.3514049583333333,-3.048233708333333,-0.1473057888683213,-0.1864011641129944,0.1864011641129944,4.570708549016322,694.1930520332184,0.498925871016354
1403638163645096960,59.6869,711.5355746493578,9.152873333333332,0.1797885833333333,-3.38329425,-0.1333431548523667,0.0335103216382911,0.0900589894029074,4.7054748356884115,694.6640865726991,0.4710345394807973
1403638163695097088,50.661087,703.5118787989404,10.1008495,0.1144109166666666,-4.707191999999999,-0.1110029404268393,0.0048869219055841,0.1117010721276371,4.660217844083818,695.0688202387472,0.4047336660480596
1403638163745096960,39.655924,743.5476834697887,10.1008495,0.1144109166666666,-4.707191999999999,-0.1110029404268393,0.0048869219055841,0.1117010721276371,4.648072198951099,695.4760794181409,0.40725917939369083
1403638163795097088,62.821388,739.8902423875719,8.564474333333333,-0.2615106666666666,-3.0564059166666664,-0.0523598775598298,0.0621337213709981,0.1570796326794896,4.710661466549844,695.8124548185384,0.33637540039751457
1403638163845096960,36.71813,889.3484704278235,8.564474333333333,-0.2615106666666666,-3.0564059166666664,-0.0523598775598298,0.0621337213709981,0.1570796326794896,6.325888259614366,695.7770454301996,-0.03540938833884866
1403638163895097088,50.543308,813.5242619445072,10.272465875,-0.907115125,-3.6284605,0.0104719755119659,0.1214749159388053,0.1877974275145898,4.364140273957856,695.8555070327906,0.07846160259100543
1403638163945096960,53.971529,933.8513563774446,11.392058416666666,0.4331270416666666,-4.159654041666666,0.0020943951023931,0.0069813170079773,0.0956440430092892,4.855063411719414,695.9649491344506,0.10944210166007906
1403638163995097088,45.889139,908.954135630899,10.411393416666668,-0.6047434166666666,-3.571255041666667,0.028623399732707,-0.028623399732707,0.21851522234969,4.918465024072013,695.9966892597403,0.03174012528961612
1403638164045096960,59.521437,886.6926827808979,9.602344791666663,-0.2288218333333333,-2.631451083333333,0.0418879020478639,0.1137954672300302,0.1591740277818828,5.004766270643392,696.0721034706896,0.0754142109493614
1403638164095097088,50.190926,825.6980775408297,11.0815145,-0.0326888333333333,-3.505877375,0.0586430628670094,0.0607374579694026,0.1563815009786919,5.066027316235904,695.9822614726966,-0.08984199799306225
1403638164145096960,39.738655,828.4124208287049,11.0815145,-0.0326888333333333,-3.505877375,0.0586430628670094,0.0607374579694026,0.1563815009786919,5.422661515113132,695.8005942176978,-0.18166725499872882
1403638164195097088,62.611341,737.6846818454985,10.231604833333332,-0.5883989999999999,-4.568264458333333,0.0795870138909414,0.1256637061435917,0.0328121899374933,5.752792727119629,695.1664544929532,-0.6341397247446139
1403638164245096960,37.753582,727.4140824766414,10.231604833333332,-0.5883989999999999,-4.568264458333333,0.0795870138909414,0.1256637061435917,0.0328121899374933,5.617668622524034,694.9407861781052,-0.22566831484800787
1403638164295097088,50.363302,704.1720033807785,8.499096666666667,0.2941994999999999,-3.1299557916666663,0.0642281164733913,0.0439822971502571,0.0865683308989187,5.45847252131654,694.3820684979369,-0.5587176801683427
1403638164345096960,49.273253,724.3614987277251,10.4931155,-0.2941994999999999,-4.4701979583333324,0.0216420827247296,0.0781907504893459,0.1096066770252439,5.585421743324362,694.054487525136,-0.32758097280088805
1403638164395097088,60.161591,782.3601045007391,8.719746291666667,0.8417374583333332,-3.538566208333333,0.0293215314335047,0.0684169066781777,0.1207767842380075,5.53581736233754,693.3623869474385,-0.692100577697488
1403638164445096960,40.413618,755.5513791369485,8.719746291666667,0.8417374583333332,-3.538566208333333,0.0293215314335047,0.0684169066781777,0.1207767842380075,5.561185644579041,692.5063705956935,-0.8560163517449837
1403638164495097088,49.777269,746.2129446614138,9.863855458333331,-0.5475379583333333,-3.587599458333333,0.0418879020478639,-0.0565486677646162,0.1466076571675237,5.5794548399677435,691.7460538971771,-0.7603166985163625
1403638164545096960,50.221443,790.3766173161388,10.354187958333334,-0.220649625,-3.906315583333333,0.0719075651821663,0.0230383461263251,0.1752310569002306,4.656059116963675,690.9015527910126,-0.8445011061645573
1403638164595097088,49.818754,740.3179567528892,7.951558708333333,-1.2094868333333333,-3.57942725,0.0376991118430775,-0.0307177948351002,0.122173047639603,5.183944341033732,689.9231254838171,-0.9784273071954885
1403638164645096960,49.958706,695.1724690570319,8.77695175,-0.1389275416666666,-4.600953291666666,-0.007679448708775,0.075398223686155,0.2562143341927675,5.684322378156588,688.8069404753742,-1.1161850084429261
1403638164695097088,60.105562,648.6246094373524,9.430728416666666,0.612915625,-3.6202882916666654,-0.1151917306316257,-0.0370009801422797,0.0942477796076938,5.657462659617474,687.4211437095374,-1.3857967658367443
1403638164745096960,39.948702,581.6270884583628,9.226423208333332,-1.046042666666667,-3.661149333333333,-0.1256637061435917,0.1298524963483781,0.0537561409614253,5.823193806013078,685.9180221673148,-1.5031215422226296
1403638164795097088,50.267458,554.1566644182344,7.641014791666667,0.5557101666666666,-3.800076875,-0.2331759880664424,0.0712094334813686,-0.1857030324121966,6.011716704122804,684.3288612291481,-1.5891609381667422
1403638164845096960,49.87669,523.9195948620658,8.237585999999999,-0.5148491249999999,-2.79489525,-0.2464404903815993,0.1438151303643327,-0.2206096174520832,7.010452540602668,682.8896282945361,-1.4392329346119368
1403638164895097088,50.221443,461.0308826339966,10.198916,-0.3514049583333333,-2.69682875,-0.2429498318776106,0.0760963553869527,-0.2171189589480945,6.185823178009729,680.8193395019525,-2.0702887925835967
1403638164945096960,59.677601,481.4104304487356,9.308145291666667,-0.8907707083333333,-3.4813607499999994,-0.0865683308989187,0.1780235837034216,0.1284562329467826,5.979817303845727,678.8558037243772,-1.9635357775753164
1403638164995097088,40.044546,505.15605603066655,9.308145291666667,-0.8907707083333333,-3.4813607499999994,-0.0865683308989187,0.1780235837034216,0.1284562329467826,5.428780581710472,676.5383167048809,-2.3174870194962978
1403638165045096960,50.083161,587.3274181121247,7.510259458333333,0.1879607916666666,-3.366949833333333,-0.0781907504893459,0.2296853295624537,0.314857397059777,6.448849414526832,674.6472673920036,-1.8910493128772714
1403638165095097088,59.121847,627.8937804934477,8.016936375,-0.0898942916666666,-2.4434902916666665,-0.0795870138909414,0.0279252680319092,0.2841396022246769,5.957171429692122,672.3870028693095,-2.260264522694115
1403638165145096960,61.060429,627.5587033098939,9.005773583333333,-0.024516625,-4.298581583333333,-0.1375319450571531,-0.210835773640915,0.1905899543177807,5.926962854404524,670.1374585216549,-2.2495443476545915
1403638165195097088,31.764745,397.9814873772921,9.005773583333333,-0.024516625,-4.298581583333333,-0.1375319450571531,-0.210835773640915,0.1905899543177807,6.218290242759786,667.5898761902884,-2.547582331366584
1403638165245096960,47.673941,341.9700298671321,9.422556208333331,-0.4576436666666666,-3.260711125,-0.1480039205691191,-0.2757620218151041,0.1445132620651305,5.860432813081771,664.876594508777,-2.7132816815113756
1403638165295097088,50.364971,360.8132897811067,7.641014791666667,-0.0898942916666666,-2.9583394166666666,-0.1158898623324234,-0.3574434308084387,0.1905899543177807,5.899088595943207,662.210471148009,-2.6661233607679833
1403638165345096960,49.89624,431.0854135185408,9.986438583333332,0.1470997499999999,-3.28522775,-0.0439822971502571,-0.114493598930828,0.289026524130261,5.9445322003317145,659.6378828602274,-2.5725882877816275
1403638165395097088,50.221443,566.5505611334752,9.839338833333333,1.1767979999999998,-2.941995,-0.0356047167406843,-0.1089085453244461,0.2715732316103177,6.052015637676942,656.8233872656153,-2.8144955946120263
1403638165445096960,49.956084,510.3116885625723,8.139519499999999,-0.024516625,-3.072750333333333,-0.08307767239493,0.0411897703470661,0.114493598930828,6.142769492795611,653.955260359346,-2.8681269062693673
1403638165495097088,49.899101,306.4306796717247,9.079323458333333,-0.4576436666666666,-4.56009225,-0.0900589894029074,0.1961750079241626,0.08307767239493,6.290522589838922,650.9468149001865,-3.008445459159475
1403638165545096960,50.071001,305.92092801212016,9.872027666666666,-0.907115125,-4.306753791666666,-0.1089085453244461,0.1975712713257581,-0.0411897703470661,9.106340162524539,648.2313368328607,-2.715478067325762
1403638165595097088,49.717665,307.1184655774306,8.736090708333332,-0.1797885833333333,-2.868445125,-0.0795870138909414,0.390255620745932,0.0160570291183478,6.447197776837029,644.9731016887768,-3.258235144083983
1403638165645096960,60.258627,351.42287787675406,9.700411291666663,-0.44129925,-4.069759749999999,-0.036302848441482,0.3190461872645634,0.0390953752446729,6.4688698478285875,641.6415670169253,-3.3315346718515
1403638165695097088,39.812565,409.9188377652452,9.700411291666663,-0.44129925,-4.069759749999999,-0.036302848441482,0.3190461872645634,0.0390953752446729,6.5733916343428165,638.0838785615972,-3.557688455328048
1403638165745096960,50.313949,489.2910903931048,7.878008833333333,-0.0163444166666666,-2.557901208333333,-0.0579449311662117,0.2401573050744197,-0.1158898623324234,6.6237811217561875,634.3085724291799,-3.775306132417313
1403638165795097088,60.208082,329.1511715016851,9.316317499999998,-0.0898942916666666,-3.930832208333333,-0.0342084533390888,-0.1445132620651305,0.0209439510239319,6.799070160528274,630.1227258384118,-4.185846590768051
1403638165845096960,49.294949,270.8336068879778,10.991620208333332,0.4086104166666666,-3.097266958333333,0.0055850536063818,-0.3162536604613725,0.0558505360638185,7.862557475318035,625.5442632254599,-4.5784626129519665
1403638165895097088,40.382147,312.0217647885472,10.991620208333332,0.4086104166666666,-3.097266958333333,0.0055850536063818,-0.3162536604613725,0.0558505360638185,5.875857809222163,620.889521455957,-4.654741769502834
1403638165945096960,50.038814,303.98958609264054,9.978266375,-0.6047434166666666,-2.868445125,-0.036302848441482,-0.1773254520026238,-0.0293215314335047,6.196530116081064,616.4993487683461,-4.390172687610971
1403638165995097088,60.165882,319.50943933776574,11.792496624999998,0.5066769166666666,-3.4977051666666665,0.0174532925199432,-0.2617993877991494,0.1647590813882647,6.399017048318062,611.3436490971612,-5.155699671184834
1403638166045096960,40.819169,345.84249191852126,11.792496624999998,0.5066769166666666,-3.4977051666666665,0.0174532925199432,-0.2617993877991494,0.1647590813882647,6.4236268031785855,606.2280098294754,-5.115639267685879
1403638166095097088,49.615621,357.10364216376377,9.872027666666666,-0.0572054583333333,-3.898143375,-0.0495673507566389,-0.2373647782712288,-0.0579449311662117,6.33978182208267,601.1531658037728,-5.074844025702532
1403638166145096960,59.776545,438.6160013161072,8.539957708333333,-0.63743225,-3.3506054166666663,0.0111701072127637,-0.0865683308989187,0.0048869219055841,6.319674669826239,596.020837653903,-5.132328149869863
1403638166195097088,51.701545,461.6690401835012,10.656559666666666,-1.22583125,-3.742871416666666,0.0041887902047863,-0.0970403064108847,-0.0642281164733913,5.897824616247516,591.4735003406709,-4.547337313232106
1403638166245096960,49.090386,512.3603586571729,11.45743608333333,-0.1144109166666666,-3.1299557916666663,0.0132645023151569,0.0279252680319092,-0.0125663706143591,6.047457304783737,586.6883185928938,-4.785181747777074
1403638166295097088,38.975715,477.0418592027593,11.45743608333333,-0.1144109166666666,-3.1299557916666663,0.0132645023151569,0.0279252680319092,-0.0125663706143591,6.120693926554173,582.0813637938138,-4.606954799079972
1403638166345096960,52.473069,482.6763551469869,10.321499125,-0.53936575,-3.38329425,0.0118682389135614,-0.0195476876223364,-0.0767944870877505,6.147254922761278,577.6430810959297,-4.438282697884119
1403638166395097088,48.473358,512.3248345305938,10.043644041666663,-0.6537766666666667,-4.633642125,0.0013962634015954,0.0872664625997164,0.0167551608191455,6.168152366140747,573.3652165277443,-4.27786456818535
1403638166445096960,49.490213,525.5303141624107,10.068160666666666,0.2369940416666666,-4.592781083333333,0.0460766922526503,-0.0733038285837618,0.0607374579694026,6.163509744040821,569.2897842736234,-4.075432254120983
1403638166495097088,49.947024,524.6355227151279,8.809640583333332,0.04903325,-3.4568441249999995,0.0097738438111682,-0.0097738438111682,-0.018151424220741,6.124838712659922,565.2972747932022,-3.9925094804211767
1403638166545096960,49.374818,478.9900333830775,9.1201845,-0.122583125,-3.832765708333333,0.0565486677646162,0.0160570291183478,0.15079644737231,6.023010448549656,561.4005579917612,-3.8967168014410163
1403638166595097088,50.452471,540.4976948290326,10.182571583333331,-0.5311935416666667,-2.819411875,0.0244346095279206,0.0502654824574366,0.0991347015132779,7.49193985616321,552.4760010778592,-8.924556913901938
1403638166645096960,49.342871,533.6670072969247,9.087495666666666,0.5311935416666667,-4.037070916666667,0.0174532925199432,-0.0314159265358979,0.1242674427419962,5.884450486534753,548.4375934698387,-4.0384076080205205
1403638166695097088,50.571203,589.4654573309517,8.613507583333332,-0.3595771666666666,-2.3699404166666667,0.0481710873550434,0.0774926187885482,0.1096066770252439,5.791855906261307,544.5265436807995,-3.9110497890392253
1403638166745096960,49.560309,614.4841209584773,7.9433865,-0.024516625,-1.6099250416666664,0.0677187749773799,-0.0698131700797731,0.2059488517353309,5.7078428113134265,540.7163926909819,-3.8101509898175436
1403638166795097088,50.024032,478.9656637260252,9.144701125,-0.4331270416666666,-4.829775124999999,0.1068141502220529,-0.0663225115757845,0.3420845333908886,5.586006359192556,536.9931010857154,-3.7232916052665814
1403638166845096960,49.988985,406.4076571496321,9.986438583333332,-1.3892754166666663,-3.170816833333333,0.1438151303643327,-0.2324778563656447,0.3274237676741362,5.57615365186474,533.2287203092317,-3.7643807764836765
1403638166895097088,60.15873,339.22036236517164,8.351996916666666,-0.5720545833333333,-2.8847895416666667,0.0453785605518525,-0.2841396022246769,0.239459173373622,9.462003737036968,534.4599128474424,1.2311925382107347
1403638166945096960,40.228605,359.043779679001,8.351996916666666,-0.5720545833333333,-2.8847895416666667,0.0453785605518525,-0.2841396022246769,0.239459173373622,5.974110888138219,530.5547075897828,-3.905205257659645
1403638166995097088,49.809456,442.5212675984164,9.80665,-1.3075533333333331,-3.0809225416666663,0.0251327412287183,-0.3309144261781249,0.1829105056090057,5.496582617258706,527.2805391046036,-3.274168485179189
1403638167045096960,49.828768,484.77969650855687,9.381695166666669,-0.3595771666666666,-3.048233708333333,-0.0670206432765822,-0.2555162024919699,-0.0349065850398865,5.62658213408158,524.1731718070097,-3.107367297593896
1403638167095097088,59.885263,428.6941899756354,11.359369583333333,0.0,-3.849110125,-0.0349065850398865,-0.0020943951023931,-0.0900589894029074,5.731909391935684,521.3387610647802,-2.8344107422294655
1403638167145096960,50.528288,496.7375115225386,9.103840083333331,0.3595771666666666,-2.631451083333333,-0.0523598775598298,0.0656243798749867,0.0006981317007977,5.833206644255309,518.8869251795538,-2.4518358852263873
1403638167195097088,51.866293,471.2779545867416,11.947768583333332,-0.5802267916666666,-3.6202882916666654,-0.0740019602845595,0.0223402144255274,-0.1291543646475804,5.978107759430139,516.8375972600669,-2.0493279194869274
1403638167245096960,50.703764,464.7321902254141,10.501287708333331,0.1062387083333333,-3.138128,-0.0342084533390888,0.0404916386462684,-0.0356047167406843,7.617138768981564,513.6763272000502,-3.1612700600167045
1403638167295097088,38.097858,444.4530389089544,10.501287708333331,0.1062387083333333,-3.138128,-0.0342084533390888,0.0404916386462684,-0.0356047167406843,5.968300776373918,512.2719868985176,-1.4043403015325566
1403638167345096960,49.665928,450.51022081847816,9.545139333333331,-0.04903325,-3.015544875,-0.0439822971502571,0.0774926187885482,0.0020943951023931,6.412556605735506,511.34967757454166,-0.9223093239759805
1403638167395097088,49.900532,381.3827655533012,9.373522958333332,-0.7681875833333334,-3.9880376666666666,0.0048869219055841,0.0663225115757845,0.0691150383789754,6.518320243612412,510.7088095015814,-0.6408680729602452
1403638167445096960,56.784153,463.3798634741013,9.528794916666666,-0.0817220833333333,-3.3260887916666664,-0.0195476876223364,0.1075122819228507,0.0886627260013119,6.653257219791555,510.26373623771724,-0.4450732638641739
