stamp,img_delta,blur,lin_acc.x,lin_acc.y,lin_acc.z,ang_vel.x,ang_vel.y,ang_vel.z,rpe,ate,drift
1403638519577829376,38.750887,311.1606085026402,9.103840083333331,-0.0081722083333333,-3.800076875,-0.0048869219055841,0.018151424220741,0.0774926187885482,0.03558439129495719,0.035584391294963054,0.035584391294963054
1403638519627829504,50.360203,311.64135224799344,9.022118,-0.0653776666666666,-3.7919046666666665,-0.0006981317007977,0.0132645023151569,0.0747000919853573,0.04936453498615538,0.0840790166994014,0.04849462540443835
1403638519677829376,49.309254,311.93036433446946,8.989429166666666,-0.04903325,-3.77556025,0.0034906585039886,0.0216420827247296,0.0809832772925368,0.0356319341212453,0.11910861486029649,0.035029598160895084
1403638519727829504,61.638355,311.2655559642373,8.940395916666665,-0.0653776666666666,-3.7837324583333327,-0.0006981317007977,0.0216420827247296,0.0788888821901436,0.026424534529516194,0.13629591071121996,0.017187295850923476
1403638519777829376,56.894541,311.0851508350217,9.046634625,-0.0326888333333333,-3.7837324583333327,-0.0027925268031909,0.0216420827247296,0.0774926187885482,0.0351922860917419,0.16924315619930186,0.032947245488081894
1403638519827829504,47.646999,311.5149319455398,9.128356708333332,-0.0653776666666666,-3.8409379166666655,-0.0041887902047863,0.018151424220741,0.0809832772925368,0.0029207773157756095,0.16983629696927038,0.0005931407699685254
1403638519877829376,36.056995,310.6502821373276,8.997601374999999,-0.0408610416666666,-3.742871416666666,0.0,0.0195476876223364,0.0802851455917391,0.01283798091174122,0.1796668510334177,0.009830554064147318
1403638519927829504,65.790654,311.43696453615814,8.997601374999999,-0.04903325,-3.800076875,-0.0027925268031909,0.0174532925199432,0.0747000919853573,0.013531203962557393,0.18701775139246668,0.0073509003590489785
1403638519977829376,32.876968,311.1422051900873,8.907707083333333,-0.0735498749999999,-3.7673880416666665,-0.0020943951023931,0.0195476876223364,0.0781907504893459,0.044811618018798405,0.18344269046226624,-0.0035750609302004355
1403638520027829504,50.429821,310.39798959199703,9.062979041666669,-0.0572054583333333,-3.832765708333333,0.0,0.0244346095279206,0.0740019602845595,0.02605154728604574,0.19720435483818288,0.013761664375916638
1403638520077829376,50.06361,311.3218072021861,8.940395916666665,-0.0163444166666666,-3.7673880416666665,-0.0020943951023931,0.0188495559215387,0.0740019602845595,0.030305274541318174,0.18914579984217944,-0.008058554996003442
1403638520127829504,61.356545,311.2100384744982,9.062979041666669,-0.0081722083333333,-3.8164212916666655,-0.0034906585039886,0.018151424220741,0.0781907504893459,0.004782620597526554,0.18955800973634332,0.00041220989416387854
1403638520177829376,38.500309,311.1161523687937,9.079323458333333,-0.04903325,-3.8082490833333327,-0.0020943951023931,0.0188495559215387,0.0760963553869527,0.01628132969715855,0.20121499892022288,0.011656989183879557
1403638520227829504,50.053119,311.01908893769206,9.030290208333332,-0.0163444166666666,-3.7919046666666665,-0.0034906585039886,0.0209439510239319,0.0816814089933346,0.01650879579478797,0.21024598515171122,0.009030986231488347
1403638520277829376,48.901797,311.10371087885494,8.940395916666665,-0.0326888333333333,-3.800076875,0.0006981317007977,0.0167551608191455,0.0740019602845595,0.004685000942350679,0.2099401021971975,-0.0003058829545137254
1403638520327829504,62.026262,310.9769488422468,9.038462416666666,-0.024516625,-3.7837324583333327,-0.0006981317007977,0.0230383461263251,0.0837758040957278,0.043564946223527,0.21541451409646767,0.005474411899270171
1403638520377829376,54.556608,311.08651907339123,9.103840083333331,0.0326888333333333,-3.8164212916666655,-0.0013962634015954,0.0244346095279206,0.0740019602845595,0.01313125596748974,0.2235914331301834,0.00817691903371573
1403638520427829504,33.759833,310.73321350192055,9.1201845,-0.0326888333333333,-3.832765708333333,-0.0006981317007977,0.0174532925199432,0.0788888821901436,0.03056953872886203,0.2067769757817114,-0.016814457348472006
1403638520477829376,49.58558,311.5349610142429,8.989429166666666,-0.0163444166666666,-3.77556025,-0.0027925268031909,0.0174532925199432,0.0767944870877505,0.011732905846134215,0.20537864677669412,-0.001398329005017268
1403638520527829504,51.083327,310.7887182679509,8.989429166666666,-0.0326888333333333,-3.8245935,-0.0048869219055841,0.018151424220741,0.0781907504893459,0.005038714795229999,0.203660113252492,-0.0017185335242021205
1403638520577829376,48.963785,311.43454249289,8.981256958333333,-0.0980665,-3.7837324583333327,-0.0027925268031909,0.0230383461263251,0.0809832772925368,0.021296918035893446,0.1942398785411535,-0.009420234711338515
1403638520627829504,61.902284,311.1947435249914,8.964912541666667,-0.0980665,-3.7919046666666665,-0.0006981317007977,0.018151424220741,0.0809832772925368,0.010410114760747264,0.202897021199165,0.008657142658011513
1403638520677829376,38.051367,310.857309553174,9.046634625,-0.024516625,-3.8164212916666655,-0.0006981317007977,0.0223402144255274,0.0788888821901436,0.032042557674891385,0.2275592666689784,0.02466224546981341
1403638520727829504,61.992646,310.6353962404432,9.079323458333333,0.0326888333333333,-3.8082490833333327,-0.0006981317007977,0.0167551608191455,0.0767944870877505,0.021515802295785213,0.24832435040152123,0.02076508373254282
1403638520777829376,49.653768,311.2584974654062,9.005773583333333,-0.0408610416666666,-3.7919046666666665,-0.0034906585039886,0.0223402144255274,0.0802851455917391,0.02271365439127919,0.2618574185774602,0.013533068175938967
1403638520827829504,38.86056,311.207037533964,9.022118,-0.0163444166666666,-3.7919046666666665,-0.0034906585039886,0.0132645023151569,0.0747000919853573,0.03786497701956736,0.2811777614222495,0.019320342844789284
1403638520877829376,49.117326,311.9717357213101,8.97308475,-0.0653776666666666,-3.7919046666666665,-0.0006981317007977,0.0265290046303138,0.0795870138909414,0.009188258974973874,0.2794751406779477,-0.001702620744301775
1403638520927829504,50.039768,311.04127140800966,9.030290208333332,-0.0653776666666666,-3.8164212916666655,-0.0013962634015954,0.0202458193231342,0.0760963553869527,0.03247369085709521,0.25329204209851675,-0.026183098579430963
1403638520977829376,50.786019,311.0283771401187,9.054806833333332,-0.0572054583333333,-3.7919046666666665,-0.0020943951023931,0.0230383461263251,0.0733038285837618,0.010297678686940152,0.263238754480429,0.009946712381912248
1403638521027829504,49.046278,311.26984878235345,9.103840083333331,0.0163444166666666,-3.857282333333333,0.0041887902047863,0.0188495559215387,0.0767944870877505,0.024429809431229757,0.2674328810584134,0.004194126577984403
1403638521077829376,61.705589,310.48921529115694,9.038462416666666,-0.0163444166666666,-3.800076875,-0.0020943951023931,0.0216420827247296,0.0774926187885482,0.025641955976142394,0.2550146590520316,-0.012418222006381818
1403638521127829504,39.453745,310.65267666313747,9.161045541666669,0.0408610416666666,-3.9144877916666654,0.0209439510239319,0.0349065850398865,0.0949459113084915,0.04508351126366411,0.2835393688928773,0.028524709840845708
1403638521177829376,71.44928,309.010862147163,8.915879291666666,-0.04903325,-3.7837324583333327,0.0020943951023931,0.0251327412287183,0.0565486677646162,0.06953946446576424,0.2866503733557357,0.003111004462858391
1403638521227829504,29.007912,310.84340517408543,9.26728425,0.0081722083333333,-3.800076875,0.0125663706143591,0.0244346095279206,0.0635299847725936,0.11282234634423023,0.2616840493091794,-0.0249663240465563
1403638521277829376,49.674272,310.1378187447905,9.022118,0.024516625,-3.8409379166666655,0.0062831853071795,0.0265290046303138,0.0663225115757845,0.08792778402516539,0.3099232200815345,0.04823917077235512
1403638521327829504,60.390234,310.1084147291298,9.005773583333333,-0.0572054583333333,-3.849110125,-0.0020943951023931,0.0300196631343024,0.0837758040957278,0.10154441408847738,0.35793068424981395,0.048007464168279446
1403638521377829376,39.515734,311.4102031693066,9.095667875,0.0653776666666666,-3.7837324583333327,0.0013962634015954,0.0146607657167523,0.0802851455917391,0.2274178254345685,0.21682070175959656,-0.1411099824902174
1403638521427829504,50.084829,310.8568774487665,8.964912541666667,-0.1389275416666666,-3.800076875,-0.0048869219055841,0.025830872929516,0.0788888821901436,0.08362859820639619,0.21659177510662064,-0.00022892665297591375
1403638521477829376,48.79427,309.8043270540772,8.809640583333332,-0.0163444166666666,-3.7673880416666665,-0.0013962634015954,0.0272271363311115,0.1026253600172665,0.10362072366788624,0.27131233911900077,0.054720564012380124
1403638521527829504,50.014496,313.850329457211,9.152873333333332,-0.3105439166666667,-3.759215833333333,0.0104719755119659,0.0342084533390888,0.1277581012459849,0.19548478159856095,0.4425346364103397,0.17122229729133892
1403638521577829376,66.843748,309.356559998168,9.161045541666669,0.269682875,-3.751043625,-0.0041887902047863,0.0111701072127637,0.0195476876223364,0.4373093030472386,0.8524916226700479,0.40995698625970817
1403638521627829504,33.886432,311.761822103939,8.9240515,-0.196133,-3.955348833333333,0.0160570291183478,0.018151424220741,0.0795870138909414,0.5411209923067364,0.3275320307043516,-0.5249595919656962
1403638521677829376,49.425602,310.61969623308374,9.144701125,-0.1144109166666666,-3.734699208333333,-0.0048869219055841,0.0349065850398865,0.085870199198121,0.2884207147934475,0.1388429079989641,-0.1886891227053875
1403638521727829504,50.055742,313.3446106651164,9.144701125,0.269682875,-3.7919046666666665,-0.0111701072127637,0.0146607657167523,0.0760963553869527,0.05144431789452068,0.15416335278703927,0.015320444788075177
1403638521777829376,49.815417,313.20258519363927,8.989429166666666,-0.1634441666666666,-3.849110125,0.0146607657167523,0.028623399732707,0.0760963553869527,0.2084383577940567,0.19716860506640266,0.04300525227936339
1403638521827829504,61.718225,314.6628629296877,9.128356708333332,-0.0572054583333333,-3.751043625,-0.0013962634015954,0.0209439510239319,0.085870199198121,0.06239127526741639,0.23278356165272715,0.03561495658632449
1403638521877829376,39.13641,312.8332069323216,9.128356708333332,-0.171616375,-3.702010375,0.0244346095279206,0.007679448708775,0.0970403064108847,0.16760618075569458,0.2998384249350206,0.06705486328229346
1403638521927829504,60.786009,310.70445917257985,9.7085835,-0.4494714583333333,-3.702010375,0.0314159265358979,0.0411897703470661,0.0083775804095727,0.5539888266894656,0.6404524640087135,0.34061403907369286
1403638521977829376,50.047397,301.22930278046834,8.580818749999999,-0.2288218333333333,-3.530394,0.1082104136236484,-0.0230383461263251,0.0656243798749867,1.0523233058306904,1.6360869187981453,0.9956344547894318
1403638522027829504,55.339575,302.833192179012,9.577828166666666,0.0326888333333333,-4.274064958333334,-0.0300196631343024,-0.0509636141582344,0.0013962634015954,0.7920725116832638,2.396423479386952,0.7603365605888066
1403638522077829376,33.862591,284.9608307711831,10.002783,-0.3840937916666667,-4.26589275,0.0314159265358979,-0.0991347015132779,0.028623399732707,0.521402530232784,2.6058072448396077,0.2093837654526558
1403638522127829504,49.314737,188.0252569241761,10.223432625,0.04903325,-4.3312704166666665,0.0900589894029074,0.0069813170079773,0.1375319450571531,0.4161778646380129,2.9566160753398454,0.3508088305002377
1403638522177829376,68.226815,117.61793413282636,10.256121458333332,0.1470997499999999,-4.323098208333334,0.0788888821901436,0.1347394182539622,0.1186823891356144,0.4467021233890324,3.3815033359511832,0.42488726061133786
1403638522227829504,43.41197,100.65792041746906,10.435910041666666,-0.2369940416666666,-3.97169325,0.1207767842380075,0.2164208272472968,0.1019272283164688,1.0055455281060948,4.381573258812248,1.0000699228610643
1403638522277829376,39.127588,96.38356731800276,10.34601575,0.220649625,-4.094276375,0.1340412865531645,0.2429498318776106,0.124965574442794,0.38099729310132285,4.692916017323028,0.3113427585107802
1403638522327829504,49.394608,105.11901592794386,9.798477791666668,-0.1879607916666666,-3.97169325,0.1193805208364121,0.171740398396242,0.0893608577021096,0.2278330539315806,4.869410821522784,0.1764948041997565
1403638522377829376,49.759626,130.44781686189074,9.741272333333333,-0.2369940416666666,-3.693838166666666,0.1605702911834783,0.0537561409614253,0.1242674427419962,0.1477361309914746,4.961076640224146,0.0916658187013617
1403638522427829504,61.478615,149.19309254590414,9.528794916666666,-0.367749375,-3.612116083333333,0.1954768762233649,-0.0579449311662117,0.1905899543177807,0.1333714837625675,5.064085325074034,0.1030086848498879
1403638522477829376,39.187193,198.80715837477007,9.177389958333332,-0.392266,-3.832765708333333,0.1319468914507713,-0.1228711793404008,0.2017600615305445,0.23663154229638686,5.277826527359933,0.21374120228589888
1403638522527829504,48.987388,184.74801981205127,9.144701125,-0.5720545833333333,-3.4813607499999994,0.1591740277818828,-0.0998328332140756,0.2520255439879811,0.11748137630035183,5.347033958081907,0.0692074307219741
1403638522577829376,50.328732,192.34337318688657,9.373522958333332,-0.2860272916666666,-3.5222217916666665,0.1494001839707146,0.0020943951023931,0.1710422666954443,0.05938202645258764,5.328048791322967,-0.018985166758939798
1403638522627829504,49.705267,182.4866083118183,9.259112041666668,-0.8907707083333333,-3.28522775,0.1256637061435917,0.1347394182539622,0.0132645023151569,0.3537657772301102,5.583078454878452,0.25502966355548473
1403638522677829376,50.148249,153.39861241955552,9.226423208333332,-0.8907707083333333,-3.742871416666666,0.1047197551196597,0.2038544566329376,-0.075398223686155,0.2677561218162006,5.795793904279564,0.2127154494011121
1403638522727829504,50.677776,139.85477089755204,9.479761666666668,-0.3759215833333333,-3.832765708333333,0.1549852375770964,0.2254965393576673,0.0188495559215387,0.2564836471932614,5.729009856342426,-0.06678404793713799
1403638522777829376,50.248384,147.76532410736337,9.193734375,-0.5802267916666666,-3.391466458333333,0.2031563249321399,0.2038544566329376,0.1263618378443894,0.3399342851928566,5.5420481386305465,-0.18696171771187942
1403638522827829504,60.526848,160.03669248501205,9.022118,-0.3268883333333333,-3.57942725,0.2115339053417127,0.1954768762233649,0.2918190509334519,0.12295132522205912,5.627956962975213,0.08590882434466618
1403638522877829376,39.522886,180.17581254336565,8.760607333333333,-0.4086104166666666,-3.718354791666666,0.1193805208364121,0.2143264321449036,0.3295181627765294,0.1714655891749673,5.665626464653988,0.03766950167877514
1403638522927829504,49.729348,216.0148683614958,8.433719,-0.3514049583333333,-2.89296175,0.0809832772925368,0.2010619298297467,0.1926843494201739,0.19569784949566665,5.759880040196695,0.09425357554270697
1403638522977829376,61.025858,269.491990763615,7.878008833333333,-0.7109821249999999,-2.680484333333333,0.0237364778271228,0.1200786525372098,0.1514945790731078,0.28321825202309286,5.914223063421641,0.1543430232249463
1403638523027829504,39.200782,345.7369985065237,7.436709583333332,-0.7109821249999999,-2.778550833333333,-0.0216420827247296,0.1047197551196597,0.0621337213709981,0.35619628278042575,6.079320242057893,0.16509717863625184
1403638523077829376,65.843583,493.5027354995423,7.657359208333333,-0.9398039583333332,-2.574245625,0.0146607657167523,0.0621337213709981,0.0628318530717958,0.41302184017892163,6.058178234690877,-0.02114200736701566
1403638523127829504,44.656991,545.0042424544879,7.060788,-0.5066769166666666,-2.6886565416666666,-0.0314159265358979,0.0411897703470661,0.0551524043630208,0.6577311498665055,5.812604007482782,-0.2455742272080954
1403638523177829376,38.837195,541.0093925889068,7.0689602083333325,-0.2369940416666666,-2.4189736666666666,-0.0705113017805709,0.0956440430092892,0.0272271363311115,0.3227559885209411,5.758664904440037,-0.05393910304274474
1403638523227829504,50.785065,527.8477540209997,6.725727458333332,-0.6701210833333332,-1.846919083333333,-0.2136283004441059,0.1417207352619395,-0.0886627260013119,0.41852140972993984,5.5479023153260165,-0.21076258911402057
1403638523277829376,60.415268,563.4427088107528,7.256920999999999,-1.184970208333333,-1.96133,-0.1333431548523667,0.1075122819228507,-0.0055850536063818,0.4455486220342591,5.28273121150444,-0.2651711038215767
1403638523327829504,38.729667,615.8109871680145,7.79628675,-0.661948875,-2.476179125,-0.0586430628670094,0.046774823953448,0.0600393262686049,0.29171033047005235,5.193491452227875,-0.08923975927656524
1403638523377829376,50.652981,526.4901852329957,8.18855275,-0.2124774166666666,-2.582417833333333,-0.046774823953448,-0.0328121899374933,0.0139626340159546,0.34002945780588084,5.156933275556791,-0.03655817667108341
1403638523427829504,48.876524,377.4202881118409,8.098658458333333,-0.44129925,-3.293399958333333,-0.0397935069454707,-0.1172861257340189,-0.0160570291183478,0.5959898827494546,5.18824890953558,0.03131563397878878
1403638523477829376,58.007479,245.6558717545359,8.97308475,-0.73549875,-3.0809225416666663,-0.0684169066781777,-0.2443460952792061,-0.0502654824574366,0.4744071198946635,5.047312606727362,-0.14093630280821756
1403638523527829504,42.320728,138.0429960205361,8.907707083333333,-0.5066769166666666,-3.178989041666666,-0.0621337213709981,-0.3274237676741362,-0.0621337213709981,0.5001802042470062,4.9564549262019195,-0.09085768052544285
1403638523577829376,49.834251,124.98196332379776,9.07115125,-0.4249548333333333,-3.571255041666667,-0.0970403064108847,-0.3567452991076409,-0.0558505360638185,0.3400645716708383,5.009274699863031,0.05281977366111157
1403638523627829504,50.165892,129.74493643961816,9.340834125,-0.4576436666666666,-3.603943875,-0.0551524043630208,-0.2806489437206881,0.0,0.40113950730188,5.119153656622384,0.10987895675935277
1403638523677829376,50.783634,133.07701630142924,9.26728425,-0.6456044583333332,-3.726527,-0.0488692190558412,-0.2017600615305445,-0.0188495559215387,0.3936601940224242,5.129806137472372,0.010652480849987711
1403638523727829504,49.019337,157.31886449852695,9.112012291666666,-0.318716125,-3.8409379166666655,-0.0160570291183478,-0.1165879940332212,-0.0027925268031909,0.4323534018149916,5.127774580197009,-0.0020315572753624167
1403638523777829376,50.625801,191.8278738669645,9.594172583333334,-0.612915625,-4.192342875,-0.0118682389135614,-0.0523598775598298,0.0160570291183478,0.9343963989948088,4.519660560447152,-0.6081140197498573
1403638523827829504,49.461842,206.9164818713336,9.65955025,0.1307553333333333,-4.200515083333333,-0.0139626340159546,0.0195476876223364,-0.0202458193231342,0.3790042383310065,4.491797299108955,-0.027863261338196388
1403638523877829376,61.845064,186.39336266022548,9.80665,-0.5720545833333333,-3.996209875,-0.1193805208364121,0.0439822971502571,-0.1033234917180643,0.47632490177241593,4.620007759361972,0.1282104602530163
1403638523927829504,39.1891,168.49692968369774,10.550320958333334,-0.3514049583333333,-4.257720541666666,-0.0802851455917391,0.0055850536063818,-0.1263618378443894,0.6207838893074108,4.575307388881845,-0.04470037048012632
1403638523977829376,66.22982,169.41512042550852,11.106031125,-0.3595771666666666,-4.192342875,-0.0628318530717958,-0.0614355896702004,-0.1577777643802873,0.38832119977639135,4.384476035297086,-0.190831353584759
1403638524027829504,33.395529,156.41829245453778,11.506469333333332,0.0,-4.527403416666666,-0.0062831853071795,-0.124965574442794,-0.1207767842380075,0.43214889837773374,4.218679467240654,-0.1657965680564324
1403638524077829376,49.428463,228.16868980197037,11.686257916666666,0.220649625,-4.813430708333333,0.0195476876223364,-0.1647590813882647,-0.0747000919853573,0.3283065454753799,4.106100444806357,-0.1125790224342973
1403638524127829504,50.597906,318.08913896755524,11.678085708333333,0.0898942916666666,-4.870636166666666,0.0767944870877505,-0.1521927107739055,0.0516617458590321,0.31300033848060016,4.023305053552545,-0.08279539125381152
1403638524177829376,49.329996,165.41156602376637,11.498297125,0.5883989999999999,-4.641814333333333,0.1061160185212552,-0.0886627260013119,0.114493598930828,0.33396912578794574,3.910095984654066,-0.11320906889847926
1403638524227829504,50.091982,163.49155666400634,10.632043041666666,0.392266,-4.486542375,0.1207767842380075,0.0062831853071795,0.1389282084587486,0.30085937383764877,3.8772192671872445,-0.032876717466821415
1403638524277829376,66.749573,150.22164836476952,10.051816249999998,-0.0163444166666666,-4.486542375,0.1347394182539622,0.085870199198121,0.1864011641129944,0.23439649836855264,3.874482386194294,-0.0027368809929506632
1403638524327829504,33.818722,139.8036826823457,9.773961166666666,0.04903325,-4.094276375,0.1382300767579508,0.1514945790731078,0.208043246837724,0.4089405682881199,4.059778081528931,0.18529569533463697
1403638524377829376,49.81184,130.32545371473176,9.430728416666666,-0.0898942916666666,-3.9144877916666654,0.0851720674973232,0.2178170906488923,0.2052507200345331,0.2274890736071046,4.160993132860817,0.10121505133188613
1403638524427829504,49.538612,127.06009038323155,9.062979041666669,-0.0653776666666666,-3.857282333333333,0.0809832772925368,0.2792526803190927,0.1500983156715123,0.23340663839245607,4.116771234125201,-0.044221898735615994
1403638524477829376,50.343275,108.43001158018596,8.891362666666666,-0.4249548333333333,-3.3996386666666667,0.0809832772925368,0.3323106895797203,0.1298524963483781,0.33537677756804096,4.036771221285449,-0.08000001283975156
1403638524527829504,49.596548,116.5173524229112,8.621679791666667,-0.196133,-3.38329425,0.0013962634015954,0.3448770601940795,0.0984365698124801,0.14407615315031647,4.075513972082537,0.038742750797087666
1403638524577829376,70.391417,149.46871390829358,8.719746291666667,-0.171616375,-3.195333458333333,-0.0586430628670094,0.2946115777366427,0.1382300767579508,0.1474835656953542,4.136688803294876,0.06117483121233924
1403638524627829504,44.050455,173.1209764382254,7.976075333333333,-0.3268883333333333,-2.9583394166666666,-0.1850049007113989,0.2408554367752175,0.0949459113084915,0.15997607509741285,4.266337081340586,0.12964827804570955
1403638524677829376,36.649942,236.72829806833087,7.861664416666666,-0.34323275,-3.0400615,-0.2380629099720265,0.1773254520026238,0.0146607657167523,1.0042717594613957,4.1855711835893175,-0.08076589775126841
1403638524727829504,67.756176,294.9702289893175,7.591981541666666,0.2124774166666666,-2.827584083333333,-0.2932153143350474,0.1500983156715123,0.0083775804095727,0.12327863684250216,4.232464507469859,0.04689332388054179
1403638524777829376,32.953263,322.4134708264356,7.910697666666666,-0.2860272916666666,-2.680484333333333,-0.3008947630438224,0.0774926187885482,0.0069813170079773,0.28975194744332394,4.239116519767824,0.006652012297965193
1403638524827829504,48.755169,443.7964072424468,7.739081291666666,-0.0817220833333333,-2.974683833333333,0.0153588974175501,0.0705113017805709,0.1480039205691191,0.2767663140753887,4.224509153488118,-0.014607366279706824
1403638524877829376,50.474643,721.1954059461414,7.338643083333332,0.4576436666666666,-2.909306166666666,0.0656243798749867,0.075398223686155,0.1026253600172665,0.34992234409022593,4.212474948036679,-0.01203420545143885
1403638524927829504,49.299002,693.6083286158109,7.322298666666667,-0.0081722083333333,-2.8602729166666667,0.1780235837034216,0.0719075651821663,0.1319468914507713,0.38577013438985897,4.276063757072104,0.06358880903542552
1403638524977829376,62.028885,726.8262354435403,7.183371125,0.0,-2.329079375,0.0747000919853573,0.0900589894029074,0.0614355896702004,0.4266936360396952,4.3839185057905325,0.10785474871842826
1403638525027829504,37.953377,951.3977832528516,6.946377083333333,0.0980665,-2.190151833333333,-0.0439822971502571,0.0914552528045028,-0.046774823953448,0.41360309290727804,4.555054257982866,0.1711357521923338
1403638525077829376,50.924778,935.7032310115056,7.101649041666666,-0.2615106666666666,-2.3617682083333333,-0.0293215314335047,0.0963421747100869,-0.0460766922526503,0.332106376063882,4.72035255769086,0.16529829970799348
1403638525127829504,50.140619,986.8364069152668,7.992419749999999,0.4086104166666666,-2.459834708333333,0.025830872929516,0.0460766922526503,-0.0041887902047863,0.3475486230921722,4.916668125083766,0.19631556739290623
1403638525177829376,48.862696,657.6643562357572,8.074141833333334,0.318716125,-2.803067458333333,0.025830872929516,-0.0202458193231342,-0.028623399732707,0.33749666286943203,5.11077108681015,0.19410296172638386
1403638525227829504,49.90673,506.7964242575047,8.253930416666666,0.0898942916666666,-2.8847895416666667,0.0795870138909414,-0.1193805208364121,0.0279252680319092,0.3665272822991625,5.337942424604925,0.2271713377947755
1403638525277829376,61.764241,366.7530589677573,8.409202375,0.0817220833333333,-2.99102825,0.0670206432765822,-0.2254965393576673,0.0055850536063818,0.4694328571128452,5.444643355878602,0.10670093127367686
1403638525327829504,53.684711,162.1535427652365,8.9240515,0.0,-3.489532958333333,0.1375319450571531,-0.314857397059777,0.0698131700797731,0.702878453281804,5.881283157427319,0.43663980154871673
1403638525377829376,34.630537,128.23471225001526,9.332661916666666,0.0,-3.636632708333333,0.1270599695451872,-0.4056145181634821,0.114493598930828,0.8290177415505026,6.444691897752644,0.5634087403253254
1403638525427829504,49.965382,119.92078430350008,9.250939833333334,0.0572054583333333,-3.67749375,0.210835773640915,-0.4384267081009756,0.2010619298297467,0.9560367207666419,7.202935222675419,0.7582433249227742
1403638525477829376,51.124572,113.82179078001906,9.36535075,0.34323275,-4.151481833333333,0.1556833692778942,-0.3735004599267865,0.1884955592153876,0.27804295583776995,7.397963182796255,0.19502796012083667
1403638525527829504,48.692704,117.35809710941112,9.749444541666666,-0.1879607916666666,-4.208687291666666,0.0767944870877505,-0.2764601535159017,0.1647590813882647,0.41811825807013564,7.527511154799902,0.12954797200364698
1403638525577829376,50.302267,157.5296535977122,9.7085835,0.122583125,-4.241376125,0.0160570291183478,-0.1410226035611418,0.1626646862858715,0.3298986732138481,7.717925920835603,0.1904147660357003
1403638525627829504,51.251173,178.99641846954933,9.831166624999998,-0.269682875,-4.143309625,-0.0356047167406843,-0.0621337213709981,0.1347394182539622,0.28467743145792707,7.891830146457246,0.17390422562164343
1403638525677829376,49.882173,235.5107102022659,9.684066875,0.0735498749999999,-4.527403416666666,-0.1123992038284348,0.0376991118430775,0.1110029404268393,0.8197434820686939,8.04863763632526,0.1568074898680143
1403638525727829504,56.273222,262.5295608201993,9.839338833333333,-0.3759215833333333,-4.274064958333334,-0.1075122819228507,0.124965574442794,0.1759291886010284,0.2579444541645159,8.202892379025636,0.15425474270037576
1403638525777829376,44.434071,222.06777978906584,9.888372083333332,-0.1470997499999999,-4.323098208333334,-0.1577777643802873,0.1452113937659282,0.0977384381116824,0.2629980929666662,8.37923100066471,0.17633862163907388
1403638525827829504,48.152923,233.28213604513135,9.749444541666666,0.1797885833333333,-4.56009225,-0.1815142422074102,0.1759291886010284,0.0488692190558412,0.6674331384428052,8.360144178121825,-0.019086822542885074
1403638525877829376,50.758839,238.86565204949437,9.724927916666667,0.7600153749999999,-4.748053041666666,-0.2017600615305445,0.1256637061435917,-0.0083775804095727,0.21882303349392926,8.450811732403745,0.09066755428191975
1403638525927829504,49.383879,248.0986059006349,9.945577541666664,1.054214875,-4.535575625,-0.1500983156715123,0.0460766922526503,0.0,0.3313798231313503,8.763972431317638,0.31316069891389375
1403638525977829376,62.199592,271.3296453119619,9.912888708333332,1.32389775,-4.151481833333333,-0.0956440430092892,-0.0111701072127637,0.0083775804095727,0.4701231671468931,9.217532994797311,0.4535605634796731
1403638526027829504,37.775994,288.98112845770106,9.586000375,1.1359369583333332,-4.339442625,-0.0928515162060983,-0.054454272662223,0.0872664625997164,0.5145497954223757,9.69459288627508,0.4770598914777686
1403638526077829376,50.056696,254.2721687073288,9.635033625,1.0296982499999998,-4.323098208333334,-0.1340412865531645,-0.0691150383789754,0.1989675347273535,0.791707581222281,10.302530582688059,0.6079376964129786
1403638526127829504,61.662674,220.7546258938116,9.651378041666666,0.8989429166666666,-4.396648083333333,-0.1347394182539622,-0.0565486677646162,0.2310815929640492,0.4403517881914961,10.721206575638293,0.4186759929502344
1403638526177829376,38.210868,189.08267232942964,9.414383999999998,0.5475379583333333,-4.314926,-0.1382300767579508,-0.0034906585039886,0.2094395102393195,0.5030900886144519,11.07570356615134,0.35449699051304684
1403638526227829504,50.99392,172.15934265016227,9.022118,0.612915625,-4.396648083333333,-0.1780235837034216,0.0886627260013119,0.1738347934986352,0.474898244553152,11.439471692850162,0.3637681266988224
1403638526277829376,48.891783,164.2078928191772,8.850501625,0.220649625,-4.184170666666667,-0.1242674427419962,0.1514945790731078,0.1961750079241626,0.3733446636108045,11.756093537243178,0.31662184439301555
1403638526327829504,50.814151,167.80309719267015,8.605335375,0.44129925,-4.118792999999999,-0.1396263401595463,0.1905899543177807,0.1954768762233649,0.3334040111214502,11.978301786245783,0.22220824900260538
1403638526377829376,49.751997,180.01261661333635,8.736090708333332,0.2778550833333333,-3.8899711666666654,-0.1577777643802873,0.2094395102393195,0.2129301687433081,0.2971976387084684,12.275918911845563,0.29761712559978015
1403638526427829504,49.078942,184.7371882724719,8.539957708333333,0.2043052083333333,-3.5957716666666664,-0.1396263401595463,0.2045525883337354,0.2597049926967562,0.40041058668095436,12.653356094710052,0.37743718286448846
1403638526477829376,50.009727,189.83326427387,8.842329416666665,0.5720545833333333,-3.661149333333333,-0.1626646862858715,0.1947787445225671,0.239459173373622,0.7418179342407157,13.358630576091961,0.7052744813819096
1403638526527829504,50.027132,191.36122497214757,8.785123958333333,0.5230213333333333,-3.505877375,-0.1368338133563554,0.210835773640915,0.2408554367752175,1.6566875817042237,14.859408654372409,1.5007780782804474
1403638526577829376,60.734987,183.1644829690455,9.005773583333333,0.4739880833333333,-3.554910625,-0.15079644737231,0.2157226955464991,0.1884955592153876,0.5348558657616065,15.34703363557686,0.4876249812044513
1403638526627829504,40.277482,196.31631291361217,8.825985,0.2533384583333333,-3.5957716666666664,-0.1787217154042193,0.1912880860185785,0.1542871058762987,0.5060131548614072,15.843976143868959,0.49694250829209885
1403638526677829376,49.865484,239.54117914678272,8.866846041666665,0.122583125,-3.530394,-0.1689478715930511,0.1542871058762987,0.1256637061435917,0.6975821939074781,16.515035608445864,0.6710594645769046
1403638526727829504,60.883045,264.9359862093073,8.997601374999999,0.2615106666666666,-3.2035056666666666,-0.228987197861656,0.1179842574348166,0.0349065850398865,0.8701733917436765,17.376226990367343,0.8611913819214791
1403638526777829376,38.561344,272.34459928883376,9.079323458333333,-0.5148491249999999,-3.2770555416666665,-0.2199114857512855,0.0893608577021096,-0.0020943951023931,1.3294433295409673,18.56307181791156,1.186844827544217
1403638526827829504,50.566197,338.4298187688426,9.299973083333333,-0.2941994999999999,-3.342433208333333,-0.1466076571675237,0.0195476876223364,0.0579449311662117,1.648245901864517,19.53415300866402,0.9710811907524608
1403638526877829376,49.159288,337.13955835165405,9.013945791666666,-0.63743225,-3.2280222916666665,-0.1123992038284348,-0.0516617458590321,0.1110029404268393,0.5502707905275497,20.0918806379586,0.557727629294579
1403638526927829504,50.909996,290.431196135615,9.103840083333331,-0.3840937916666667,-3.211677875,-0.1668534764906579,-0.114493598930828,0.132645023151569,0.6558983196888145,20.757636841591108,0.6657562036325082
1403638526977829376,49.735785,218.4541165672753,9.316317499999998,-0.7109821249999999,-3.2443667083333327,-0.2317797246648469,-0.1410226035611418,0.1773254520026238,0.9088604395112906,21.43789110937656,0.680254267785454
1403638527027829504,60.212373,188.93369260981476,9.504278291666663,-0.6292600416666666,-3.293399958333333,-0.3183480555637657,-0.153588974175501,0.1989675347273535,2.634602202371121,23.63844480329328,2.200553693916717
1403638527077829376,39.064408,198.11818831169452,9.349006333333334,-0.8008764166666666,-3.563082833333333,-0.3099704751541929,-0.1186823891356144,0.2373647782712288,3.6585424962861683,26.825837811957083,3.187393008663804
1403638527127829504,65.800905,228.00436321607185,9.496106083333332,-1.2340034583333332,-3.342433208333333,-0.3099704751541929,-0.0453785605518525,0.2192133540504878,4.089144938975515,30.595424381606563,3.76958656964948
1403638527177829376,45.792818,254.1375815007912,9.054806833333332,-1.397447625,-3.3506054166666663,-0.317649923862968,0.0383972435438752,0.2268928027592628,6.631473484158307,36.56036233867695,5.96493795707039
1403638527227829504,50.02594,264.0966749313874,9.389867375,-1.6589582916666663,-3.3015721666666664,-0.3707079331235955,0.1242674427419962,0.1521927107739055,4.746990533269596,41.05164950359789,4.491287164920941
1403638527277829376,38.382292,289.915297764796,9.128356708333332,-2.034879875,-3.260711125,-0.3776892501315729,0.1668534764906579,0.08307767239493,3.2909499557988164,44.07291090428387,3.0212614006859795
1403638527327829504,49.673318,309.50291919526165,8.981256958333333,-1.9776744166666664,-3.358777625,-0.3532546406036522,0.1766273203018261,0.0321140582366956,2.643318927106609,46.622567065061276,2.5496561607774026
1403638527377829376,50.703049,354.1234233286444,8.981256958333333,-2.0021910416666664,-3.317916583333333,-0.2827433388230814,0.1626646862858715,0.0370009801422797,2.2756415781548656,48.902912128199574,2.2803450631382987
1403638527427829504,64.756155,472.9515495727103,8.915879291666666,-2.0267076666666664,-3.2280222916666665,-0.1989675347273535,0.1117010721276371,0.036302848441482,2.365928742832771,51.23998002880005,2.3370679006004735
1403638527477829376,35.460472,563.4436834492071,8.97308475,-1.936813375,-3.2280222916666665,-0.1033234917180643,0.0656243798749867,0.0670206432765822,3.027123289831562,54.259281370217536,3.0193013414174885
1403638527527829504,60.977459,602.6385062747416,8.842329416666665,-2.01036325,-3.293399958333333,-0.0523598775598298,0.028623399732707,0.0593411945678072,2.4491185274718092,56.67469868600071,2.4154173157831735
1403638527577829376,38.321257,711.7522863141327,9.103840083333331,-1.5527195833333332,-3.2770555416666665,0.018151424220741,0.0125663706143591,0.064926248174189,1.4588401417423822,58.026518159858554,1.3518194738578444
1403638527627829504,61.569452,640.2385247624903,8.989429166666666,-1.3565865833333333,-3.3015721666666664,0.0886627260013119,0.0174532925199432,0.0244346095279206,1.955348640668602,59.91100979688596,1.8844916370274092
1403638527677829376,38.890839,573.9458968676122,9.430728416666666,-1.0215260416666667,-3.08909475,0.1333431548523667,0.0216420827247296,-0.0160570291183478,2.939030896496346,62.76557710688279,2.854567309996824
1403638527727829504,50.636768,345.00694296861457,9.430728416666666,-0.5720545833333333,-3.2280222916666665,0.1703441349946465,-0.0160570291183478,0.0335103216382911,2.9275286875123236,65.634618226697,2.869041119814213
1403638527777829376,48.959494,326.9830263376339,9.5124505,-0.4004382083333333,-3.734699208333333,0.2408554367752175,-0.0642281164733913,0.1256637061435917,2.816126680819354,68.37145169237604,2.736833465679041
1403638527827829504,50.470114,311.4754856744232,9.389867375,-0.5311935416666667,-3.6448049166666654,0.2897246558310587,-0.0740019602845595,0.1654572130890624,2.815734659589761,71.10909614611782,2.7376444537417797
1403638527877829376,49.573659,338.71240242283386,9.259112041666668,-0.2369940416666666,-3.6202882916666654,0.2590068609959585,-0.0390953752446729,0.1528908424747032,1.6440704534372834,72.6665882231829,1.5574920770650778
1403638527927829504,49.753428,352.9564787947932,9.455245041666666,0.0163444166666666,-3.636632708333333,0.1787217154042193,0.0223402144255274,0.0788888821901436,1.9090856459799435,74.45754954567315,1.7909613224902472
1403638527977829376,68.054914,359.8753407473872,8.825985,-0.2288218333333333,-3.268883333333333,0.1424188669627373,0.0705113017805709,0.0244346095279206,2.1354327676301446,76.47234216442487,2.014792618751727
1403638528027829504,39.150477,299.8829778037477,8.548129916666667,-0.0735498749999999,-3.391466458333333,0.2073451151369263,0.0844739357965255,0.0474729556542457,1.8770293161259741,77.96170574024187,1.489363575816995
1403638528077829376,45.694351,299.57532322254394,8.9240515,0.1062387083333333,-3.178989041666666,0.2324778563656447,0.0502654824574366,0.0474729556542457,0.6388767551435215,78.49701371604148,0.5353079757996113
1403638528127829504,49.235344,296.6235258169592,8.866846041666665,0.5965712083333333,-2.7622064166666664,0.2478367537831947,0.0146607657167523,0.0383972435438752,0.8298196667468786,79.23617408469397,0.7391603686524917
1403638528177829376,49.852371,296.03607315295267,9.275456458333332,0.3268883333333333,-2.40262925,0.2897246558310587,-0.0090757121103705,0.0509636141582344,0.9489210697260159,80.06070947896585,0.8245353942718765
1403638528227829504,49.419642,280.1111946010095,9.577828166666666,0.73549875,-2.2963905416666663,0.3225368457685521,-0.025830872929516,0.0342084533390888,0.9964740011890689,80.93680668184541,0.8760972028795635
1403638528277829376,50.889969,293.02251221891225,9.26728425,0.9970094166666666,-2.7131731666666665,0.2645919146023404,-0.0055850536063818,0.0279252680319092,0.8951234582606836,81.68591172223454,0.7491050403891251
1403638528327829504,49.018144,264.75370274025846,9.234595416666666,1.046042666666667,-3.0400615,0.1619665545850737,0.0760963553869527,0.0300196631343024,0.6636729132736955,82.13256038188288,0.4466486596483463
1403638528377829376,49.830437,292.48153135150113,9.7085835,0.8253930416666666,-2.778550833333333,0.028623399732707,0.0823795406941323,-0.0034906585039886,2.2928348710079725,84.18460713009779,2.052046748214906
1403638528427829504,49.924374,307.5136653772855,9.26728425,0.5883989999999999,-3.0809225416666663,-0.0041887902047863,0.0411897703470661,-0.0062831853071795,2.123641560215226,86.06644920634957,1.881842076251786
1403638528477829376,66.232204,334.6175484243477,9.414383999999998,0.5883989999999999,-3.4568441249999995,-0.0767944870877505,-0.0139626340159546,0.0663225115757845,4.435982758365824,90.19286120608564,4.126411999736064
1403638528527829504,34.374475,319.9799534234847,9.455245041666666,0.34323275,-3.162644625,-0.0907571211037051,-0.0593411945678072,0.1570796326794896,3.999902737469364,93.89470881249231,3.701847606406673
1403638528577829376,49.050093,304.16572354372505,9.389867375,0.171616375,-3.489532958333333,-0.1110029404268393,-0.0684169066781777,0.2254965393576673,5.219579746182642,98.8204855993121,4.925776786819782
1403638528627829504,49.926758,315.2824930425878,9.496106083333332,0.4985047083333333,-3.800076875,-0.0551524043630208,-0.0146607657167523,0.2115339053417127,5.980816824157183,104.44511514948287,5.624629550170781
1403638528677829376,50.133944,328.71202915157687,9.234595416666666,0.1797885833333333,-4.257720541666666,-0.1193805208364121,0.0335103216382911,0.1172861257340189,4.638739386353385,108.88543915159654,4.44032400211367
1403638528727829504,50.68922,357.44742952129513,8.989429166666666,0.2043052083333333,-4.666330958333333,-0.1864011641129944,0.0684169066781777,0.0740019602845595,3.429842551647572,112.05197353118544,3.166534379588896
1403638528777829376,49.225092,415.17350375161897,9.062979041666669,0.122583125,-4.9114972083333335,-0.0719075651821663,0.0376991118430775,0.1891936909161853,2.3339425705690586,114.12761428352863,2.0756407523431903
1403638528827829504,61.941624,426.746459613902,9.087495666666666,-0.2533384583333333,-5.230213333333333,-0.0160570291183478,0.0383972435438752,0.2820452071222836,1.845067944974765,115.86259204570109,1.7349777621724627
1403638528877829376,38.283109,441.892009485737,9.128356708333332,-0.2860272916666666,-5.271074375,-0.0083775804095727,0.0439822971502571,0.2722713633111154,2.914583476637884,118.61678744173196,2.754195396030866
1403638528927829504,67.685604,526.3002181098185,9.496106083333332,-0.73549875,-5.164835666666666,0.0202458193231342,-0.0027925268031909,0.2429498318776106,2.845854203300736,121.36263882256095,2.745851380828995
1403638528977829376,38.150788,525.6476338303482,8.441891208333333,-0.612915625,-5.1975245,0.0349065850398865,-0.0230383461263251,0.1843067690106012,2.8768142719475103,124.16977067733211,2.807131854771157
1403638529027829504,49.185037,554.494570674264,8.458235625,-1.1359369583333332,-4.380303666666666,-0.0712094334813686,0.0013962634015954,0.0719075651821663,1.663450506561614,125.89389080347644,1.724120126144328
1403638529077829376,48.937321,484.9937159124132,8.237585999999999,-0.93163175,-3.947176625,-0.1870992958137921,0.0167551608191455,-0.182212373908208,2.695612231383513,128.59816972253122,2.7042789190547865
1403638529127829504,49.882889,444.5844032581552,7.959730916666666,-0.9152873333333332,-3.92266,-0.2234021442552742,0.0132645023151569,-0.2534218073895766,1.5092659197214167,129.95176566002752,1.3535959374962943
1403638529177829376,49.45302,423.0957828389142,7.714564666666666,-0.4576436666666666,-3.587599458333333,-0.1466076571675237,-0.0020943951023931,-0.189891822616983,2.9241036838227417,132.848498684521,2.8967330244934715
1403638529227829504,65.785885,307.64209793737064,8.098658458333333,-0.4004382083333333,-3.612116083333333,-0.1389282084587486,-0.0216420827247296,-0.1675516081914556,2.8637895862204106,135.73655547300103,2.8880567884800428
1403638529277829376,34.156322,244.44119152696337,8.28661925,-0.0081722083333333,-3.1463002083333333,-0.0551524043630208,-0.1047197551196597,-0.0872664625997164,2.762938065753512,138.52560926407693,2.789053791075901
1403638529327829504,61.021328,213.9673687162908,8.253930416666666,0.44129925,-3.015544875,-0.0202458193231342,-0.1752310569002306,-0.0516617458590321,2.6736144998785205,141.2424092556988,2.716799991621855
1403638529377829376,38.673878,168.7261534017341,8.441891208333333,0.2533384583333333,-2.574245625,-0.0027925268031909,-0.2792526803190927,-0.0174532925199432,2.644344951715896,143.9066934584569,2.6642842027581253
1403638529427829504,50.789356,128.6281010065308,8.613507583333332,0.2941994999999999,-2.89296175,0.0614355896702004,-0.3707079331235955,0.0656243798749867,2.4456613580287283,146.37841258140926,2.4717191229523507
1403638529477829376,49.541712,110.96984764963716,8.850501625,0.3840937916666667,-3.2443667083333327,0.075398223686155,-0.393048147549123,0.0795870138909414,2.596188114490421,148.97167250294268,2.5932599215334164
1403638529527829504,50.230741,114.63859308785712,9.185562166666664,0.7109821249999999,-3.366949833333333,0.0502654824574366,-0.3413864016900908,0.0237364778271228,2.647810435071969,151.59931046189192,2.6276379589492365
1403638529577829376,48.963309,130.0352501890337,9.398039583333333,0.196133,-3.6284605,0.0006981317007977,-0.2213077491528809,0.0048869219055841,2.6761353965163157,154.19877133722198,2.5994608753300668
1403638529627829504,50.695419,169.81647008132686,9.062979041666669,0.2043052083333333,-3.8082490833333327,0.0069813170079773,-0.0851720674973232,0.0034906585039886,2.466664211757905,156.54421755960823,2.3454462223862436
1403638529677829376,49.620628,215.09361315154135,9.177389958333332,0.2124774166666666,-3.832765708333333,0.025830872929516,0.0670206432765822,0.0558505360638185,2.775698633492848,159.17779478865995,2.633577229051724
1403638529727829504,51.038504,224.9611001893072,9.283628666666663,0.44129925,-3.8654545416666655,-0.0097738438111682,0.1954768762233649,0.0774926187885482,2.6474639811097123,161.71639993835257,2.5386051496926143
1403638529777829376,50.229788,193.30363419720385,9.103840083333331,0.3023717083333333,-3.930832208333333,0.0530580092606276,0.2764601535159017,0.1452113937659282,2.8523923540433986,164.3582164276342,2.641816489281638
1403638529827829504,66.755056,193.68171635052255,9.577828166666666,0.44129925,-3.947176625,-0.0314159265358979,0.2527236756887789,0.0921533845053006,2.8443656492368388,166.94897061808106,2.5907541904468587
1403638529877829376,44.015408,198.02947773682573,10.002783,0.6701210833333332,-3.67749375,-0.0020943951023931,0.189891822616983,0.0851720674973232,3.0263033044914778,169.72753844459095,2.778567826509885
1403638529927829504,38.958549,222.9709546874398,9.65955025,0.6782932916666666,-3.2770555416666665,0.0209439510239319,0.0900589894029074,0.1075122819228507,2.4493944879770595,172.00858392518717,2.2810454805962195
1403638529977829376,50.168753,251.7216050746617,9.389867375,0.2615106666666666,-3.3506054166666663,-0.0397935069454707,0.0090757121103705,0.0460766922526503,3.334115800251051,175.0788772709367,3.070293345749519
1403638530027829504,49.031019,258.57024567216814,9.283628666666663,0.4739880833333333,-3.7919046666666665,0.0027925268031909,-0.0502654824574366,0.0872664625997164,2.7400313766759354,177.5776838220652,2.4988065511285242
1403638530077829376,62.010765,254.53921173633728,9.07115125,0.1307553333333333,-3.67749375,-0.0418879020478639,-0.0614355896702004,0.1256637061435917,3.8085415500180235,181.10028634475793,3.522602522692722
1403638530127829504,54.79002,252.7382022201717,8.97308475,0.3840937916666667,-3.8899711666666654,-0.0893608577021096,-0.0404916386462684,0.1480039205691191,3.5628885283099807,184.34924660854816,3.2489602637902237
1403638530177829376,46.920777,254.02361476063336,8.981256958333333,0.0572054583333333,-3.849110125,-0.1242674427419962,0.0090757121103705,0.1361356816555577,4.684316084187466,188.69276152973876,4.343514921190604
1403638530227829504,50.487041,251.35798149372525,8.87501825,0.4576436666666666,-4.1024485833333335,-0.0928515162060983,0.0265290046303138,0.1689478715930511,5.707695083118615,194.03773441472748,5.344972884988721
1403638530277829376,36.886454,236.05202145527124,8.572646541666666,0.1389275416666666,-4.494714583333333,-0.0851720674973232,0.0370009801422797,0.1759291886010284,6.00607205636339,199.2088365440989,5.1711021293714055
1403638530327829504,57.574749,229.03624130271285,9.079323458333333,0.2288218333333333,-3.947176625,-0.1242674427419962,0.0342084533390888,0.0963421747100869,4.293891997161409,202.8886843224996,3.6798477784007275
1403638530377829376,42.784691,220.71494154989657,9.210078791666666,0.171616375,-4.347614833333333,-0.0872664625997164,0.036302848441482,0.1214749159388053,4.588003133555505,207.14083650815627,4.252152185656655
1403638530427829504,66.045999,223.06780802850176,8.899534874999999,0.0,-4.494714583333333,-0.0397935069454707,0.0139626340159546,0.1487020522699168,6.768827101369262,213.36737969808027,6.226543189924001
1403638530477829376,44.711113,223.5588929442684,8.956740333333332,0.465815875,-4.453853541666667,0.0097738438111682,0.0195476876223364,0.1829105056090057,8.353788769602609,220.9641033902177,7.596723692137431
1403638530527829504,37.855387,223.72993738989055,8.825985,0.1470997499999999,-4.388475875,-0.0530580092606276,0.0062831853071795,0.1158898623324234,6.442288004712976,226.6052069712481,5.641103581030393
1403638530577829376,50.747394,204.80931025167996,8.768779541666666,-0.0980665,-4.453853541666667,-0.0642281164733913,-0.0474729556542457,0.0914552528045028,4.52166534155438,230.9989026782849,4.393695707036812
1403638530627829504,49.849034,166.3716947417947,8.809640583333332,0.0326888333333333,-4.233203916666667,-0.0488692190558412,-0.1186823891356144,0.1019272283164688,5.663929378739171,233.84093206030255,2.8420293820176425
1403638530677829376,50.200939,142.79093543470245,8.687057458333333,-0.0653776666666666,-4.192342875,-0.0174532925199432,-0.1452113937659282,0.1130973355292325,4.001493112827906,237.30295671597491,3.4620246556723657
1403638530727829504,49.036741,149.40361124763507,8.703401874999999,-0.1389275416666666,-4.404820291666666,-0.0411897703470661,-0.1047197551196597,0.0740019602845595,5.023143801659756,242.01502541929747,4.712068703322558
1403638530777829376,62.100649,164.5062905445159,8.850501625,-0.0572054583333333,-4.306753791666666,-0.0160570291183478,-0.0328121899374933,0.0767944870877505,3.7598904876848693,245.60961534772102,3.594589928423545
1403638530827829504,49.403429,186.53950798016623,8.883190458333333,-0.024516625,-4.584608875,0.0844739357965255,0.0104719755119659,0.1075122819228507,4.952359635068115,250.4161824459192,4.8065670981981725
1403638530877829376,38.655281,206.29331229998172,8.785123958333333,-0.2941994999999999,-4.445681333333333,0.0160570291183478,0.08307767239493,0.0823795406941323,4.1796358153412765,254.48371129491542,4.067528848996233
1403638530927829504,62.062741,210.8515288326919,8.87501825,0.0980665,-4.306753791666666,0.0153588974175501,0.1158898623324234,0.0928515162060983,5.234258594054249,259.43732580476603,4.95361450985061
1403638530977829376,38.184642,208.22877292736476,8.768779541666666,-0.2533384583333333,-4.323098208333334,0.0446804288510548,0.1256637061435917,0.0991347015132779,3.486252480338608,262.7806811884639,3.343355383697883
1403638531027829504,50.734759,203.09157247155463,10.068160666666666,-0.0653776666666666,-4.944186041666666,-0.0062831853071795,0.1256637061435917,0.0069813170079773,5.584544600715501,268.0806976653651,5.300016476901192
1403638531077829376,60.950994,193.8032724052596,9.814822208333332,-0.1307553333333333,-3.906315583333333,-0.0083775804095727,0.1298524963483781,0.0223402144255274,3.2604495847200723,271.19549837119894,3.1148007058338294
1403638531127829504,39.119482,183.76966979111648,8.580818749999999,0.2860272916666666,-3.8082490833333327,0.0502654824574366,0.0984365698124801,0.0418879020478639,1.3488470134599932,270.4701597078031,-0.7253386633958598
1403638531177829376,49.243212,210.13605919073476,8.38468575,0.0081722083333333,-3.8654545416666655,-0.0460766922526503,0.0146607657167523,-0.0069813170079773,3.333277859864938,272.21685376900086,1.7466940611977861
1403638531227829504,49.857855,159.40145987249014,8.621679791666667,-0.2043052083333333,-4.0125542916666666,-0.0223402144255274,-0.0509636141582344,0.0146607657167523,7.239784618955255,279.23039177129226,7.013538002291398
1403638531277829376,49.996376,152.31546673406845,8.801468374999999,0.5802267916666666,-3.554910625,-0.0788888821901436,0.1165879940332212,-0.0055850536063818,4.324512119640355,283.2164056980912,3.9860139267989325
1403638531327829504,50.217151,185.7729116310591,6.856482791666667,0.0898942916666666,-2.7376897916666665,-0.0118682389135614,-0.1417207352619395,0.0006981317007977,7.5230743391626875,290.3645614514194,7.148155753328183
1403638531377829376,50.137043,188.75527088169693,8.18855275,0.5883989999999999,-4.290409374999999,-0.0055850536063818,-0.0153588974175501,0.0335103216382911,5.619590730946707,292.92846201101133,2.563900559591957
1403638531427829504,50.380946,226.29529085410945,9.136528916666666,-0.269682875,-4.004382083333333,0.0020943951023931,0.1110029404268393,0.1256637061435917,1.3953369564819045,293.04276039168514,0.1142983806738016
1403638531477829376,49.852848,227.8911873762827,8.932223708333334,-0.0735498749999999,-3.6448049166666654,-0.0013962634015954,0.0097738438111682,0.0956440430092892,7.848642454143927,300.8357279905556,7.792967598870462
1403638531527829504,50.230741,225.9756593786173,8.981256958333333,0.2124774166666666,-4.094276375,0.0006981317007977,0.018151424220741,0.0376991118430775,10.605091466854635,311.3052811294554,10.469553138899812
1403638531577829376,59.784174,225.32066467993567,9.103840083333331,0.3514049583333333,-3.8245935,0.0069813170079773,-0.0048869219055841,0.0628318530717958,8.86352686465444,319.97226395966794,8.666982830212532
1403638531627829504,39.41083,229.4416444467813,8.842329416666665,-0.1634441666666666,-3.9880376666666666,0.0342084533390888,0.0097738438111682,0.1438151303643327,6.75967178388444,326.54395348317615,6.571689523508212
1403638531677829376,49.727201,226.5879364335718,8.793296166666666,-0.2288218333333333,-3.832765708333333,0.0097738438111682,0.0349065850398865,0.0411897703470661,6.168636842350354,332.48599802576786,5.942044542591702
1403638531727829504,51.039934,230.4066635676305,9.022118,-0.392266,-3.8654545416666655,0.0265290046303138,0.0356047167406843,0.085870199198121,5.700066522530172,338.0336800425795,5.5476820168116205
1403638531777829376,51.226378,227.4041379458511,8.956740333333332,0.1389275416666666,-3.930832208333333,0.0167551608191455,0.0132645023151569,0.0579449311662117,5.694582065923975,343.4625232803254,5.428843237745923
1403638531827829504,49.237728,230.43288042536568,8.850501625,-0.1144109166666666,-3.955348833333333,0.0195476876223364,0.0349065850398865,0.0677187749773799,6.709532023775952,350.02953071187255,6.567007431547154
1403638531877829376,50.121546,230.02856444660884,9.226423208333332,0.122583125,-3.849110125,0.0188495559215387,0.0202458193231342,0.0879645943005142,6.924497953727775,356.7626716299274,6.733140918054858
1403638531927829504,48.785209,228.3729179344332,8.785123958333333,-0.1144109166666666,-3.9390044166666662,-0.0013962634015954,0.0188495559215387,0.0495673507566389,6.969686140410531,363.5457126094528,6.783040979525367
1403638531977829376,62.028647,230.89860065011797,8.891362666666666,0.1389275416666666,-3.8654545416666655,0.0230383461263251,0.0244346095279206,0.1054178868204575,6.74163751352667,370.10765452961664,6.561941920163861
1403638532027829504,37.434816,228.4066198905153,9.013945791666666,0.0898942916666666,-3.8899711666666654,0.0,0.018151424220741,0.0370009801422797,7.4947779836899375,377.38526726682574,7.277612737209097
1403638532077829376,50.945759,231.94448639322803,8.858673833333333,-0.024516625,-3.87362675,0.0202458193231342,0.0216420827247296,0.1089085453244461,6.962489494714381,384.146165936957,6.760898670131269
1403638532127829504,61.508894,228.24220587299115,8.981256958333333,0.2369940416666666,-4.053415333333333,-0.0041887902047863,0.0216420827247296,0.046774823953448,7.403805321300176,391.33373906243844,7.1875731254814355
1403638532177829376,52.186966,231.9127802846293,8.981256958333333,0.0,-3.898143375,0.0083775804095727,0.0209439510239319,0.08307767239493,7.379954556727098,398.51597428545483,7.1822352230163915
1403638532227829504,53.779364,230.2965615970445,9.095667875,0.2288218333333333,-3.898143375,0.0062831853071795,0.0209439510239319,0.0795870138909414,7.6900749497401595,406.00836444447685,7.4923901590220225
1403638532277829376,31.881809,230.75354421502487,8.793296166666666,0.0572054583333333,-3.930832208333333,0.0027925268031909,0.0202458193231342,0.0712094334813686,7.546962316145539,413.3641049293555,7.355740484878652
1403638532327829504,50.865173,230.07233139866997,8.964912541666667,0.2369940416666666,-3.9390044166666662,0.0069813170079773,0.0223402144255274,0.0865683308989187,7.909575626989553,421.07720559120054,7.713100661845033
1403638532377829376,49.061299,230.1552048472514,8.932223708333334,0.0653776666666666,-3.898143375,-0.0062831853071795,0.018151424220741,0.0600393262686049,8.095556564747062,428.98416709788467,7.906961506684127
1403638532427829504,50.739765,231.2503821320153,8.932223708333334,0.1552719583333333,-3.92266,0.0083775804095727,0.025830872929516,0.0928515162060983,8.000756624338498,436.7950038248605,7.810836726975822
1403638532477829376,48.997164,229.30694725336335,9.054806833333332,0.0735498749999999,-3.996209875,-0.0055850536063818,0.0160570291183478,0.0614355896702004,8.27620969361332,444.8884456827729,8.09344185791241
1403638532527829504,50.851345,230.6454595330191,8.981256958333333,0.1307553333333333,-3.930832208333333,0.0069813170079773,0.0167551608191455,0.0907571211037051,8.25699868995992,452.96250305725084,8.074057374477945
1403638532577829376,49.074649,230.59572030851024,8.891362666666666,0.2369940416666666,-3.8654545416666655,0.0020943951023931,0.0216420827247296,0.0656243798749867,8.576309239611136,461.3577872338444,8.395284176593577
1403638532627829504,57.934046,231.1588985315824,8.842329416666665,0.0572054583333333,-3.8899711666666654,0.0034906585039886,0.0237364778271228,0.08307767239493,8.423329494810796,469.6077712782112,8.249984044366784
1403638532677829376,43.422461,229.12542752201983,9.013945791666666,0.171616375,-3.955348833333333,-0.0027925268031909,0.0188495559215387,0.0712094334813686,8.695582840723347,478.1267451052356,8.51897382702441
1403638532727829504,49.83139,231.0606230547098,8.981256958333333,0.0653776666666666,-3.8899711666666654,-0.0013962634015954,0.0244346095279206,0.0712094334813686,8.841429572145767,486.79311521214225,8.66637010690664
1403638532777829376,49.952984,231.08708281848263,9.038462416666666,0.1307553333333333,-3.947176625,-0.0013962634015954,0.0223402144255274,0.0816814089933346,8.95251022739123,495.58482616854417,8.791710956401914
1403638532827829504,50.041199,230.10519255014563,8.899534874999999,0.1062387083333333,-3.906315583333333,-0.0062831853071795,0.018151424220741,0.0760963553869527,9.08791376190312,504.5199892492884,8.935163080744246
1403638532877829376,50.547123,231.24000454609225,8.948568125,0.0817220833333333,-3.87362675,0.0027925268031909,0.0209439510239319,0.0823795406941323,9.19703985512343,513.554438560559,9.034449311270578
1403638532927829504,49.141884,231.47616237124032,8.948568125,0.0817220833333333,-3.906315583333333,-0.0034906585039886,0.0195476876223364,0.0740019602845595,9.345872943062494,522.7423623203081,9.187923759749083
1403638532977829376,50.992965,231.08040356919784,8.87501825,0.0572054583333333,-3.930832208333333,-0.0006981317007977,0.0251327412287183,0.08307767239493,9.33282706129304,531.9247968988085,9.18243457850042
1403638533027829504,48.788309,229.80130775155015,9.005773583333333,0.1389275416666666,-3.963521041666666,-0.0034906585039886,0.0223402144255274,0.0684169066781777,9.555106591317525,541.3243132896712,9.399516390862686
1403638533077829376,50.64106,230.70270501669387,9.046634625,0.171616375,-3.9144877916666654,0.0,0.0195476876223364,0.0809832772925368,9.612534255466883,550.7442670707883,9.419953781117101
1403638533127829504,49.10326,230.3230299972335,8.940395916666665,0.0898942916666666,-3.898143375,-0.0062831853071795,0.018151424220741,0.0747000919853573,9.739641964936693,560.3156453030072,9.571378232218876
1403638533177829376,49.907208,230.56338876359965,8.932223708333334,0.0572054583333333,-3.930832208333333,0.0034906585039886,0.0174532925199432,0.0816814089933346,9.821173914595324,569.9644706177644,9.648825314757232
1403638533227829504,50.060272,230.6784181896689,8.899534874999999,0.0326888333333333,-3.87362675,-0.0027925268031909,0.0230383461263251,0.0809832772925368,9.974921361787798,579.774083562046,9.809612944281639
1403638533277829376,50.802469,231.04483317818665,8.9240515,0.0408610416666666,-3.9390044166666662,-0.0034906585039886,0.0244346095279206,0.0788888821901436,10.084657612275127,589.6894433889723,9.915359826926306
1403638533327829504,61.150313,230.86621680051,8.964912541666667,0.1144109166666666,-3.9390044166666662,-0.0020943951023931,0.0216420827247296,0.0733038285837618,10.175573472205782,599.7154945830977,10.02605119412533
1403638533377829376,37.623167,231.14563510546893,9.07115125,0.122583125,-3.92266,0.0,0.0174532925199432,0.0733038285837618,10.52047120233325,610.0808654973542,10.365370914256573
1403638533427829504,52.638054,231.2647952519333,9.013945791666666,0.24516625,-3.930832208333333,0.0006981317007977,0.0216420827247296,0.0802851455917391,10.593455690148158,620.5168258881389,10.435960390784658
1403638533477829376,49.681901,231.0252989750687,8.883190458333333,0.0653776666666666,-3.930832208333333,-0.0020943951023931,0.0146607657167523,0.0781907504893459,10.606565592709046,630.974196908659,10.4573710205201
1403638533527829504,49.546004,230.5678476925193,8.915879291666666,0.1797885833333333,-3.87362675,-0.0041887902047863,0.0237364778271228,0.0851720674973232,10.842504489433862,641.6683237459946,10.694126837335602
1403638533577829376,67.061424,230.83705416954396,8.964912541666667,0.0572054583333333,-3.906315583333333,-0.0041887902047863,0.0209439510239319,0.0719075651821663,10.953532562999978,652.4777079860999,10.80938424010526
1403638533627829504,32.4862,230.419412598459,9.005773583333333,0.122583125,-3.979865458333333,0.0,0.0223402144255274,0.0851720674973232,10.960712647559246,663.2954429977949,10.81773501169505
1403638533677829376,49.791336,230.4058880161101,8.891362666666666,0.0326888333333333,-3.906315583333333,-0.0048869219055841,0.0195476876223364,0.0712094334813686,11.198261426167624,674.3493981703525,11.053955172557608
1403638533727829504,50.248147,231.0730751849159,9.022118,0.1062387083333333,-3.8899711666666654,0.0006981317007977,0.0209439510239319,0.0837758040957278,11.241257301569386,685.4378614091877,11.088463238835175
1403638533777829376,49.85094,231.00282660460576,8.997601374999999,0.1879607916666666,-3.947176625,-0.0034906585039886,0.0230383461263251,0.0788888821901436,11.430585815712734,696.7310957466632,11.293234337475496
1403638533827829504,49.811125,230.60452389789788,8.834157208333334,0.0326888333333333,-3.963521041666666,-0.0237364778271228,0.0230383461263251,0.0872664625997164,11.520483008038408,708.1176574447142,11.386561698050969
1403638533877829376,49.623251,225.68302202913844,8.433719,-1.765197,-3.3996386666666667,-0.0230383461263251,0.018151424220741,0.08307767239493,11.726822358202163,719.7249715917787,11.607314147064585
1403638533927829504,50.401211,226.8521064662056,9.80665,-1.1604535833333331,-4.225031708333333,-0.0083775804095727,0.0614355896702004,0.0418879020478639,11.61128712992976,731.1994805162557,11.474508924476936
1403638533977829376,49.511909,221.97330220251783,10.207088208333332,-0.44129925,-4.290409374999999,0.0342084533390888,0.0342084533390888,0.0823795406941323,11.667035437187964,742.7543890550019,11.55490853874619
1403638534027829504,66.259623,228.0710447824268,10.059988458333333,-0.7600153749999999,-4.519231208333333,0.0300196631343024,-0.0202458193231342,0.0844739357965255,12.066394433222994,754.6820911362149,11.927702081213056
1403638534077829376,33.682346,227.0886989599761,8.907707083333333,1.936813375,-4.323098208333334,0.1186823891356144,-0.0027925268031909,0.0551524043630208,12.115118145186491,766.6742276493253,11.992136513110381
1403638534127829504,61.243773,224.42719906047645,8.376513541666666,0.9970094166666666,-4.094276375,0.0656243798749867,-0.0265290046303138,0.0802851455917391,12.223913441072535,778.7620593371257,12.087831687800417
1403638534177829376,56.132078,228.14949053604175,9.242767625,0.1634441666666666,-4.208687291666666,0.0684169066781777,0.0607374579694026,0.0684169066781777,12.338800940852902,790.9641597745871,12.202100437461354
1403638534227829504,43.903828,226.8338416644218,9.340834125,-0.4086104166666666,-4.200515083333333,0.0090757121103705,0.0460766922526503,0.0209439510239319,12.539250211996814,803.3887418032812,12.42458202869409
1403638534277829376,50.370931,227.5328774917961,9.863855458333331,-1.3892754166666663,-3.9880376666666666,-0.0495673507566389,-0.0034906585039886,0.1019272283164688,12.515557351173431,815.7867528426954,12.3980110394142
1403638534327829504,38.596869,211.80594829579476,7.526603874999999,0.0980665,-2.8602729166666667,0.0111701072127637,0.0244346095279206,0.0963421747100869,12.372323099286952,828.0457998376995,12.259046995004155
1403638534377829376,48.943996,211.8226281865304,9.340834125,-0.4004382083333333,-4.241376125,-0.0041887902047863,0.0230383461263251,0.064926248174189,13.171568500931363,841.0991682229518,13.05336838525227
1403638534427829504,50.937414,215.02335552831312,8.981256958333333,0.04903325,-3.587599458333333,0.0027925268031909,0.0314159265358979,0.0865683308989187,12.918237478619293,853.9106159252419,12.811447702290138
1403638534477829376,49.7818,221.1837149719957,7.967903124999999,-0.4576436666666666,-3.4813607499999994,0.1165879940332212,0.0460766922526503,0.0195476876223364,12.880237109038797,866.6662401982946,12.755624273052717
1403638534527829504,60.843944,226.2220145900517,9.553311541666666,-0.2124774166666666,-4.347614833333333,0.0823795406941323,-0.0006981317007977,0.0760963553869527,13.181414624960766,879.7309592329276,13.064719034632958
1403638534577829376,38.976431,227.88888407260384,8.9240515,0.7600153749999999,-4.045243125,-0.0314159265358979,0.0453785605518525,0.0523598775598298,13.2401837023706,892.8751896741807,13.144230441253058
1403638534627829504,50.25816,226.3246780453071,9.136528916666666,-0.3023717083333333,-4.126965208333333,-0.0293215314335047,0.0153588974175501,0.1061160185212552,13.372499143533357,906.1409838175047,13.265794143324001
1403638534677829376,50.069809,229.28966849630305,8.981256958333333,1.250347875,-4.118792999999999,-0.0586430628670094,0.0083775804095727,0.1082104136236484,13.702715054292055,919.7503804530025,13.609396635497887
1403638534727829504,48.983335,227.0387908819193,8.67888525,-0.8580818749999999,-3.726527,-0.0565486677646162,0.0230383461263251,0.0942477796076938,13.616654816795448,933.2550534943294,13.504673041326896
1403638534777829376,50.649166,228.1485446046724,9.5124505,-0.9234595416666666,-4.020726499999999,-0.0530580092606276,0.0146607657167523,0.0949459113084915,13.836681093844334,946.9849250199887,13.729871525659291
1403638534827829504,60.194493,228.09758676429436,9.022118,-0.6210878333333334,-4.004382083333333,-0.036302848441482,0.0118682389135614,0.0802851455917391,13.84426727575406,960.7193324799911,13.73440746000233
1403638534877829376,46.404838,220.84916661901983,8.915879291666666,-1.3647587916666666,-3.6202882916666654,-0.0733038285837618,0.0328121899374933,0.0865683308989187,14.234860862446055,974.8506092448368,14.13127676484578
1403638534927829504,45.428038,226.13734990557555,8.695229666666666,-0.2288218333333333,-3.636632708333333,0.0607374579694026,0.0272271363311115,0.0600393262686049,14.12547914217318,988.8691042262002,14.018494981363347
1403638534977829376,47.394752,228.60946655788445,8.989429166666666,-0.4739880833333333,-3.930832208333333,0.0230383461263251,0.0195476876223364,0.0691150383789754,14.229441071609733,1002.9970972823811,14.127993056180912
1403638535027829504,61.95736,228.63426173817103,9.054806833333332,0.0163444166666666,-3.898143375,0.0307177948351002,0.0216420827247296,0.0460766922526503,14.483442966050047,1017.3848178310519,14.387720548670814
1403638535077829376,37.984371,228.74801653812355,9.259112041666668,-0.1389275416666666,-4.0615875416666665,0.0244346095279206,-0.0069813170079773,0.0691150383789754,14.459508650703695,1031.7602653371546,14.37544750610266
1403638535127829504,50.055265,228.9840857570009,8.997601374999999,-0.0326888333333333,-4.004382083333333,0.0216420827247296,0.0349065850398865,0.0767944870877505,14.592571293728346,1046.2597441416933,14.49947880453874
1403638535177829376,49.920321,229.0172194386848,8.597163166666666,-0.3350605416666666,-3.832765708333333,0.0034906585039886,0.0216420827247296,0.0684169066781777,14.995030988783336,1061.1479229273302,14.88817878563691
1403638535227829504,67.96956,229.87747586801132,9.161045541666669,0.34323275,-3.947176625,0.0090757121103705,-0.0006981317007977,0.0900589894029074,14.834780945724763,1075.8671400580229,14.719217130692641
1403638535277829376,33.052922,229.047339175418,8.883190458333333,-0.04903325,-4.077931958333333,0.0195476876223364,0.0307177948351002,0.0502654824574366,15.139359628072361,1090.899870507803,15.032730449780047
1403638535327829504,59.979677,229.76614574061097,9.136528916666666,0.3840937916666667,-4.028898708333333,0.0146607657167523,0.028623399732707,0.0851720674973232,15.283577060387938,1106.0817064418763,15.181835934073433
1403638535377829376,54.495334,229.8211621046778,8.825985,0.1552719583333333,-3.7673880416666665,-0.0041887902047863,0.0188495559215387,0.0642281164733913,15.22125365772621,1121.214268713266,15.132562271389588
1403638535427829504,45.443297,230.0345953819436,9.447072833333332,-0.0572054583333333,-3.947176625,0.018151424220741,0.0383972435438752,0.0809832772925368,15.36025531894718,1136.4862416962142,15.271972982948228
1403638535477829376,40.045023,230.66844475145143,9.030290208333332,0.4331270416666666,-4.110620791666666,0.0216420827247296,0.0209439510239319,0.0774926187885482,15.696384109587846,1152.0873175723632,15.601075876149025
1403638535527829504,49.110889,229.1105371288928,8.752435125,0.196133,-3.8899711666666654,-0.0020943951023931,0.0195476876223364,0.0677187749773799,15.90610341220505,1167.894743156065,15.807425583701843
1403638535577829376,51.038504,229.74391796444584,8.9240515,0.1307553333333333,-3.9880376666666666,-0.0048869219055841,0.0146607657167523,0.0809832772925368,15.893535471486892,1183.703341230625,15.808598074559995
1403638535627829504,59.776068,230.8299450465314,8.817812791666666,0.3268883333333333,-3.906315583333333,-0.0027925268031909,0.0237364778271228,0.0907571211037051,16.040558607884503,1199.6460921813484,15.942750950723394
1403638535677829376,39.060831,229.57111254886505,8.768779541666666,-0.1470997499999999,-3.8245935,-0.0104719755119659,0.0293215314335047,0.0607374579694026,16.143938844822408,1215.7034371130999,16.05734493175146
1403638535727829504,50.985336,230.18387434850868,9.275456458333332,0.0735498749999999,-4.16782625,0.0118682389135614,0.0111701072127637,0.0747000919853573,16.290383460524414,1231.892901595444,16.189464482344192
1403638535777829376,60.94265,230.3679386652876,8.834157208333334,0.2533384583333333,-3.9144877916666654,0.0048869219055841,0.0195476876223364,0.0823795406941323,16.648367030959506,1248.441379262716,16.54847766727198
1403638535827829504,38.968325,229.17277037309373,8.883190458333333,0.3595771666666666,-3.8654545416666655,-0.0153588974175501,0.0111701072127637,0.0760963553869527,16.540276380314587,1264.900162215668,16.45878295295188
1403638535877829376,49.259662,230.6980178299898,8.825985,0.171616375,-3.881798958333333,-0.007679448708775,0.0118682389135614,0.093549647906896,16.69024644845763,1281.5016134588536,16.601451243185693
1403638535927829504,64.579725,229.8788460802146,8.997601374999999,0.2043052083333333,-4.0125542916666666,-0.0069813170079773,0.0216420827247296,0.0726056968829641,17.015622943561585,1298.4386712427238,16.93705778387016
1403638535977829376,37.446022,230.92029565532076,8.7279185,0.171616375,-3.906315583333333,-0.0202458193231342,0.0551524043630208,0.1096066770252439,16.890777843126696,1315.2394457998175,16.800774557093746
1403638536027829504,48.951865,227.4465361516993,9.430728416666666,0.3023717083333333,-4.159654041666666,-0.0083775804095727,0.0376991118430775,0.1110029404268393,16.89713169420808,1332.059943502184,16.820497702366538
1403638536077829376,50.779819,229.10893678836223,9.210078791666666,0.196133,-4.16782625,0.0013962634015954,0.0307177948351002,0.1061160185212552,17.18878328660736,1349.163330650436,17.10338714825184
1403638536127829504,48.863411,230.2255158407368,9.1201845,0.3350605416666666,-3.881798958333333,-0.025830872929516,0.0223402144255274,0.0670206432765822,17.393699813321007,1366.4747714799214,17.31144082948549
1403638536177829376,49.679518,228.3009668222257,8.646196416666667,0.0163444166666666,-3.7919046666666665,0.0034906585039886,0.0195476876223364,0.1172861257340189,17.394362039780834,1383.7909739906377,17.316202510716266
1403638536227829504,51.125288,228.62728716023923,8.9240515,-0.1144109166666666,-3.726527,-0.0097738438111682,0.0034906585039886,0.0628318530717958,17.517098112443026,1401.215825775971,17.42485178533343
1403638536277829376,69.387436,230.1587511353871,8.915879291666666,0.465815875,-4.110620791666666,-0.0069813170079773,0.0321140582366956,0.0788888821901436,17.814711223313736,1418.9360220412404,17.72019626526935
1403638536327829504,31.472683,229.8985856661267,8.915879291666666,-0.3268883333333333,-3.8654545416666655,-0.0062831853071795,0.0209439510239319,0.0760963553869527,17.980011059085918,1436.8338362212078,17.897814179967327
1403638536377829376,49.620151,228.9995926321227,8.989429166666666,0.171616375,-3.9390044166666662,0.0048869219055841,0.0223402144255274,0.0844739357965255,17.806969064658055,1454.5654740007142,17.7316377795064
1403638536427829504,49.957276,229.1805739025129,8.474580041666666,-0.171616375,-3.702010375,-0.007679448708775,0.0104719755119659,0.0684169066781777,18.322642141273178,1472.794717148712,18.22924314799775
1403638536477829376,48.99168,229.49533749392103,9.291800875,-0.0326888333333333,-4.045243125,0.0034906585039886,0.0237364778271228,0.0956440430092892,18.296700977655924,1491.017457055403,18.222739906691004
1403638536527829504,50.631761,229.91561204381367,9.16921775,-0.2124774166666666,-3.963521041666666,-0.0090757121103705,0.0223402144255274,0.08307767239493,18.320237214421176,1509.2553939289876,18.23793687358466
1403638536577829376,49.148083,229.74256418451012,8.793296166666666,-0.220649625,-3.5957716666666664,-0.0104719755119659,-0.0062831853071795,0.0837758040957278,18.742020919915245,1527.9119937305811,18.65659980159353
1403638536627829504,61.553002,228.11931677740824,9.193734375,-0.220649625,-3.930832208333333,-0.0118682389135614,0.0342084533390888,0.0677187749773799,19.065308307841875,1546.9019986448752,18.990004914294104
1403638536677829376,49.833774,229.49272419399304,8.588990958333333,-0.5148491249999999,-3.693838166666666,-0.0328121899374933,0.0328121899374933,0.0460766922526503,18.826180578693677,1565.6386736087732,18.73667496389794
1403638536727829504,55.960178,229.8543511306135,8.662540833333333,0.4821602916666666,-3.9390044166666662,0.0041887902047863,0.0223402144255274,0.1235693110411985,19.228103335184073,1584.794665615881,19.155992007107898
1403638536777829376,32.959938,229.2758400918617,9.357178541666666,-0.0408610416666666,-4.053415333333333,0.0041887902047863,0.0272271363311115,0.0816814089933346,19.085889430483654,1603.7991708227373,19.004505206856265
1403638536827829504,61.273337,228.2262030512135,9.430728416666666,0.0081722083333333,-4.159654041666666,-0.0034906585039886,0.0223402144255274,0.0900589894029074,19.378751509592565,1623.1030526031204,19.303881780383108
1403638536877829376,38.751364,228.37827979197635,8.989429166666666,0.1144109166666666,-4.020726499999999,-0.0104719755119659,0.0006981317007977,0.0614355896702004,19.77767269778875,1642.8044200211073,19.70136741798683
1403638536927829504,48.960209,226.54825320492745,8.785123958333333,0.0572054583333333,-3.930832208333333,0.0265290046303138,0.0251327412287183,0.1151917306316257,19.44616345104343,1662.1644960387346,19.360076017627307
1403638536977829376,51.077842,227.5351441133029,8.662540833333333,0.2778550833333333,-3.9390044166666662,0.0195476876223364,0.0390953752446729,0.0970403064108847,19.891819486350872,1681.996497330904,19.83200129216948
1403638537027829504,66.57672,228.9929044121038,9.161045541666669,-0.4739880833333333,-3.92266,0.0083775804095727,0.0300196631343024,0.1123992038284348,19.554655863106248,1701.4795608919655,19.4830635610615
1403638537077829376,44.347047,226.0645344459876,9.152873333333332,-0.4739880833333333,-3.734699208333333,0.0020943951023931,0.028623399732707,0.0488692190558412,20.171980608772923,1721.6083520076957,20.12879111573011
1403638537127829504,50.201893,227.78303618247324,9.226423208333332,-0.6864655000000001,-3.9880376666666666,-0.0020943951023931,0.0006981317007977,0.0551524043630208,20.39046578998601,1741.920877433597,20.312525425901413
1403638537177829376,45.470238,227.2931273259043,9.087495666666666,-0.3350605416666666,-3.979865458333333,0.0,0.0404916386462684,0.0677187749773799,20.358196602451972,1762.2209177406987,20.300040307101654
1403638537227829504,45.156717,227.7309574899117,9.046634625,-0.3105439166666667,-3.849110125,0.0160570291183478,0.0062831853071795,0.0788888821901436,20.373279820098787,1782.5407196657218,20.319801925023057
1403638537277829376,47.938586,227.0339270043477,9.250939833333334,-0.171616375,-4.069759749999999,0.0118682389135614,0.0265290046303138,0.0719075651821663,20.755086864708698,1803.234066722663,20.69334705694132
1403638537327829504,66.282987,227.5916181219356,8.760607333333333,-0.0980665,-3.8164212916666655,-0.0013962634015954,0.0383972435438752,0.08307767239493,20.54943948533187,1823.7095061695986,20.475439446935525
1403638537377829376,33.394814,228.27849706577345,9.005773583333333,-0.171616375,-3.77556025,0.0153588974175501,0.0,0.0865683308989187,20.748273015108477,1844.3758101962733,20.666304026674652
1403638537427829504,61.338186,228.8415324405232,9.022118,0.024516625,-4.143309625,0.0020943951023931,0.0321140582366956,0.0719075651821663,20.87757358917401,1865.1820148397394,20.806204643466117
1403638537477829376,39.252043,228.4605714028913,8.401030166666667,0.0163444166666666,-4.086104166666667,-0.0055850536063818,0.0307177948351002,0.0705113017805709,20.890757151901635,1885.9927129064085,20.810698066669147
1403638537527829504,48.916816,226.76336898856675,9.430728416666666,0.24516625,-4.192342875,-0.0104719755119659,0.0502654824574366,0.08307767239493,21.541348705547144,1907.4745289221291,21.481816015720597
1403638537577829376,51.190377,227.2027997321366,8.3356525,0.220649625,-3.342433208333333,0.0020943951023931,-0.0139626340159546,0.1019272283164688,20.96235836362499,1928.3672456415434,20.89271671941424
1403638537627829504,48.781633,226.67638501669768,7.534776083333333,-0.53936575,-3.2035056666666666,-0.0272271363311115,0.025830872929516,0.0307177948351002,22.51500488912705,1950.8427237912556,22.475478149712217
1403638537677829376,50.653458,227.12862902801177,8.883190458333333,-0.9479761666666666,-3.718354791666666,-0.0439822971502571,0.0195476876223364,0.0321140582366956,21.709650607031108,1972.5046248239764,21.661901032720834
1403638537727829504,49.334526,226.76436980569508,8.3356525,0.1062387083333333,-3.4323274999999995,-0.0251327412287183,0.0188495559215387,0.0607374579694026,21.907826196339467,1994.3484144466638,21.843789622687382
1403638537777829376,51.103592,227.4730051238877,7.918869874999999,0.612915625,-3.113611375,-0.0237364778271228,0.0083775804095727,0.0509636141582344,22.017308251446355,2016.2984504228057,21.950035976141862
1403638537827829504,60.629368,226.839146797952,8.597163166666666,0.5230213333333333,-3.514049583333333,0.0027925268031909,0.0293215314335047,0.054454272662223,22.27464488148537,2038.510162791124,22.21171236831833
1403638537877829376,50.000905,223.54697911800676,9.455245041666666,0.5148491249999999,-3.7919046666666665,0.0139626340159546,0.0349065850398865,0.093549647906896,22.14037583821392,2060.592312135238,22.082149344113986
1403638537927829504,39.044381,223.4928060764957,8.809640583333332,-0.5720545833333333,-4.086104166666667,-0.0139626340159546,0.0523598775598298,0.0914552528045028,22.70300817142577,2083.2388359440342,22.646523808796246
1403638537977829376,50.346851,223.22891744502843,8.621679791666667,-0.1470997499999999,-4.086104166666667,0.0195476876223364,-0.0530580092606276,0.0607374579694026,22.247503635182785,2105.453236118646,22.21440017461191
1403638538027829504,49.95966,221.86540010904224,9.855683249999998,-0.220649625,-4.4211647083333325,0.0083775804095727,0.0851720674973232,0.0886627260013119,22.924843684519605,2128.304287216827,22.85105109818096
1403638538077829376,50.555944,224.87984367877544,8.891362666666666,0.8825985,-4.2168595,0.0300196631343024,-0.0293215314335047,0.0628318530717958,23.203933243795465,2151.4737922765385,23.169505059711355
1403638538127829504,49.957752,224.19141328354883,8.482752249999999,-0.3023717083333333,-3.6284605,0.0153588974175501,0.0034906585039886,0.0502654824574366,23.76577685001032,2175.1825691550766,23.708776878538174
1403638538177829376,49.821854,221.2572180342714,8.760607333333333,-0.7681875833333334,-3.554910625,0.0111701072127637,0.0670206432765822,0.0795870138909414,23.004656985065846,2198.12202597003,22.939456814953246
1403638538227829504,50.122738,218.84832251036127,9.177389958333332,-0.220649625,-4.429336916666666,-0.0202458193231342,0.1389282084587486,0.057246799465414,22.795141023937862,2220.877095051203,22.755069081173133
1403638538277829376,49.584627,215.30540845931696,10.435910041666666,0.04903325,-5.262902166666666,-0.0055850536063818,0.0027925268031909,0.0942477796076938,23.509445676533126,2244.3541784729873,23.4770834217843
1403638538327829504,61.527967,222.81237781007167,8.466407833333333,0.4985047083333333,-3.8164212916666655,-0.0216420827247296,0.1158898623324234,0.0656243798749867,22.898182401794926,2267.1828331820307,22.82865470904335
1403638538377829376,37.880183,223.77936364554523,9.013945791666666,-0.1307553333333333,-3.947176625,-0.0202458193231342,0.0502654824574366,0.0747000919853573,23.558094785296408,2290.688143759446,23.505310577415457
1403638538427829504,61.807871,223.30122496277625,6.676694208333332,0.6537766666666667,-3.0809225416666663,-0.0160570291183478,0.0069813170079773,0.0893608577021096,25.29433641386239,2315.9384188007016,25.250275041255463
1403638538477829376,38.8031,218.8704805466228,7.273265416666667,0.367749375,-2.778550833333333,-0.0013962634015954,0.1186823891356144,0.0865683308989187,23.59234361477121,2339.4735632657416,23.535144465040048
1403638538527829504,50.049305,223.89485554367545,8.172208333333334,-0.2533384583333333,-3.391466458333333,-0.0223402144255274,0.0223402144255274,0.0886627260013119,24.198962917693727,2363.636156619915,24.16259335417317
1403638538577829376,61.016083,215.73863881449,11.244958666666667,-0.4086104166666666,-5.140319041666666,-0.0034906585039886,0.046774823953448,0.0816814089933346,23.845057889646252,2387.4549353615607,23.81877874164593
1403638538627829504,49.878359,219.53130973282123,7.559292708333333,0.3023717083333333,-2.476179125,-0.0055850536063818,0.0083775804095727,0.0788888821901436,25.77915790823341,2413.179637499212,25.724702137651093
1403638538677829376,53.427458,223.4516053596213,10.730109541666666,-0.1552719583333333,-5.066769166666667,0.0055850536063818,0.0747000919853573,0.0586430628670094,24.586293469901214,2437.706598374226,24.526960875014083
1403638538727829504,46.637058,216.34850394733297,6.341633666666666,0.1552719583333333,-3.1544724166666662,0.0272271363311115,-0.0097738438111682,0.1117010721276371,26.970671700605088,2464.645785378459,26.93918700423319
1403638538777829376,37.96792,202.0849576465489,8.564474333333333,0.024516625,-2.8439285,0.0307177948351002,-0.0321140582366956,0.0230383461263251,27.353013444122475,2491.9061832610446,27.260397882585494
1403638538827829504,66.127062,207.08846501582332,8.270274833333334,0.1552719583333333,-2.165635208333333,-0.0083775804095727,0.0230383461263251,0.1165879940332212,38.724588329043044,2529.938192237645,38.03200897660054
1403638538877829376,33.313513,148.61465624715103,7.314126458333333,-0.0081722083333333,-3.661149333333333,0.0111701072127637,0.1270599695451872,0.0747000919853573,44.56708805991562,2574.2713155853194,44.333123347674245
1403638538927829504,50.6742,130.9909884648314,8.539957708333333,-0.6456044583333332,-4.110620791666666,-0.0013962634015954,0.1661553447898601,0.1110029404268393,92.2100102956167,2666.134144800629,91.86282921530983
1403638538977829376,50.544739,118.14932662997636,10.019127416666668,-0.34323275,-4.339442625,0.0020943951023931,0.2136283004441059,0.1424188669627373,71.39851618687923,2736.531251971517,70.39710717088792
1403638539027829504,49.725055,173.55937492926668,11.42474725,0.367749375,-4.314926,-0.0349065850398865,0.3029891581462156,0.1158898623324234,96.93495785114162,2833.0850906702694,96.55383869875232
1403638539077829376,48.894406,145.34361949645313,12.69961175,0.269682875,-3.906315583333333,0.0097738438111682,0.1787217154042193,0.0886627260013119,100.90848656636263,2932.815353012916,99.73026234264671
1403638539127829504,50.331354,135.95357844966577,10.043644041666663,-0.6047434166666666,-2.6641399166666666,0.0006981317007977,0.2150245638457014,0.025830872929516,57.64052664717829,2990.1203381756604,57.30498516274429
1403638539177829376,61.250686,142.19882135805207,8.940395916666665,0.5230213333333333,-2.7867230416666664,0.0307177948351002,0.1424188669627373,0.046774823953448,96.94593815376611,3082.9030250503683,92.7826868747079
1403638539227829504,39.197445,117.59804167645852,10.615698625,-0.171616375,-4.110620791666666,0.007679448708775,0.1165879940332212,0.0956440430092892,54.1970007336424,3134.867225785908,51.964200735539634
1403638539277829376,49.424887,187.85706793383736,10.051816249999998,0.3105439166666667,-3.546738416666667,0.0251327412287183,0.0851720674973232,0.1061160185212552,61.08536783803782,3193.419942754328,58.5527169684201
1403638539327829504,51.029444,169.24004380746078,9.07115125,0.4821602916666666,-3.4568441249999995,0.0097738438111682,-0.0342084533390888,0.0167551608191455,93.49444486309162,3214.6471260503276,21.227183295999566
1403638539377829376,49.833059,189.86098992096692,10.550320958333334,-0.4331270416666666,-3.8654545416666655,0.0195476876223364,0.0118682389135614,0.0942477796076938,96.58053562832681,3251.6119914951205,36.96486544479285
1403638539427829504,50.228357,194.75874767334355,9.332661916666666,0.7763597916666666,-3.18716125,0.0307177948351002,-0.0335103216382911,0.0565486677646162,18.212975657478665,3234.174149283275,-17.43784221184569
1403638539477829376,56.570292,203.1271368544205,9.152873333333332,0.416782625,-3.3996386666666667,0.0062831853071795,-0.0788888821901436,0.0425860337486616,41.82619865064242,3239.590485300009,5.4163360167340215
1403638539527829504,43.431044,216.29077365718484,9.75761675,-0.318716125,-3.563082833333333,0.0265290046303138,0.0097738438111682,0.0774926187885482,24.808955968779884,3233.1588946023417,-6.431590697667161
1403638539577829376,50.064802,237.1165562098807,7.5511205,1.0950759166666666,-2.623278875,0.0230383461263251,0.0383972435438752,0.0356047167406843,50.97827358450383,3214.570741931238,-18.58815267110367
1403638539627829504,49.219131,247.2244670621666,6.366150291666666,0.0653776666666666,-1.91229675,0.0349065850398865,-0.0097738438111682,0.0691150383789754,37.58482849624384,3252.1288783574983,37.55813642626026
1403638539677829376,51.07522,264.538993414595,6.22722275,0.024516625,-1.3565865833333333,0.0188495559215387,-0.0195476876223364,0.0635299847725936,76.40378893435255,3328.1355304445924,76.00665208709415
1403638539727829504,49.852133,300.3008291098393,10.182571583333331,0.6701210833333332,-4.609125499999999,0.0139626340159546,-0.028623399732707,0.0418879020478639,79.1388379030445,3407.2421532173926,79.10662277280016
1403638539777829376,49.902439,326.63494445109257,7.84532,-0.4576436666666666,-2.525212375,0.0006981317007977,-0.0495673507566389,0.0809832772925368,83.72531563607242,3490.8363678785477,83.59421466115509
1403638539827829504,50.094366,340.1603514995952,9.970094166666666,-0.5557101666666666,-3.334261,0.025830872929516,-0.0893608577021096,0.0767944870877505,78.51281835838961,3569.1345604601715,78.29819258162388
1403638539877829376,49.998284,301.3954483293946,9.07115125,0.416782625,-3.3751220416666667,0.0230383461263251,-0.0991347015132779,0.0600393262686049,4.40385512602793,3567.070606480767,-2.063953979404687
1403638539927829504,60.732603,307.53679179398665,8.9240515,-0.196133,-2.549729,-0.0300196631343024,-0.1396263401595463,0.1026253600172665,57.676180708007315,3624.6068143824673,57.536207901700436
1403638539977829376,38.910627,281.14311554413274,10.787315,-0.4494714583333333,-3.612116083333333,0.0202458193231342,-0.2450442269800038,0.0663225115757845,23.931274908280727,3648.0985704276945,23.49175604522725
1403638540027829504,50.657988,340.9150113525821,8.842329416666665,0.6946377083333333,-2.9256505833333333,0.0027925268031909,-0.1452113937659282,0.0,29.8505614328645,3677.6265687958935,29.52799836819895
1403638540077829376,49.64447,324.9984109473585,8.294791458333332,-1.0133538333333332,-3.293399958333333,-0.0139626340159546,-0.2310815929640492,0.104021623418862,33.97656560266588,3711.1271327162276,33.500563920334116
1403638540127829504,60.815811,372.4534826671823,9.839338833333333,-0.5965712083333333,-2.89296175,0.0153588974175501,-0.1068141502220529,0.1012290966156711,30.847448715575588,3741.164445515733,30.037312799505344
1403638540177829376,39.165735,422.02922986925256,10.084505083333331,-0.2369940416666666,-3.4568441249999995,-0.0104719755119659,0.0460766922526503,0.0376991118430775,37.26494290520947,3778.15035346025,36.98590794451684
1403638540227829504,48.962117,267.7474051551248,8.883190458333333,-0.0735498749999999,-3.718354791666666,0.0160570291183478,0.2024581932313422,0.1340412865531645,34.87917742023857,3812.54046020725,34.39010674700012
1403638540277829376,49.958705,202.4233519405981,8.049625208333332,0.24516625,-1.8632635,-0.0027925268031909,0.28623399732707,-0.0048869219055841,26.193102902963506,3838.5841830373806,26.04372283013072
1403638540327829504,63.19666,376.90777329428334,8.425546791666665,-0.93163175,-3.710182583333333,-0.0090757121103705,0.2206096174520832,0.0747000919853573,28.19112927506835,3866.6565685629357,28.07238552555509
1403638540377829376,48.812866,533.6084959600198,10.909898125,0.2043052083333333,-4.993219291666667,0.0642281164733913,0.161268422884276,0.0244346095279206,34.34026655985437,3900.8889289368185,34.232360373882784
1403638540427829504,38.914442,488.51640774656784,7.935214291666666,-0.5720545833333333,-2.9338227916666666,0.140324471860344,0.08307767239493,-0.0132645023151569,31.70109385756941,3932.4429783131036,31.554049376285093
1403638540477829376,64.568043,1075.7436902979714,9.128356708333332,0.2533384583333333,-2.312734958333333,0.2192133540504878,-0.0153588974175501,-0.0062831853071795,35.24315919035099,3967.5084833318515,35.0655050187479
1403638540527829504,46.824455,1051.0662326128245,10.354187958333334,-0.0735498749999999,-3.9390044166666662,0.239459173373622,0.0202458193231342,-0.0551524043630208,34.35629275912184,4001.6816042617093,34.17312092985776
1403638540577829376,49.020052,959.1273769558068,10.068160666666666,0.0326888333333333,-4.8052585,0.3371976114853044,0.0418879020478639,-0.0062831853071795,34.459582723467335,4035.91801665832,34.23641239661083
1403638540627829504,39.65187,893.4649178826098,6.880999416666667,0.5475379583333333,-3.097266958333333,0.3267256359733385,0.1165879940332212,-0.1263618378443894,35.869967254317196,4071.5483877053252,35.630371047005156
1403638540677829376,50.301552,959.3938549566992,10.125366125,-0.0163444166666666,-3.702010375,0.3728023282259888,0.0705113017805709,-0.2366666465704311,37.02074631568513,4108.259425583579,36.71103787825405
1403638540727829504,50.107479,915.667697785581,6.880999416666667,-1.2340034583333332,-3.563082833333333,0.3658210112180114,-0.0328121899374933,-0.2164208272472968,38.72380085346293,4146.68811519739,38.428689613811
1403638540777829376,64.400196,854.8305133424047,10.697420708333333,0.1062387083333333,-4.184170666666667,0.5194099853935125,0.0663225115757845,-0.2436479635784084,39.719066366766434,4186.116146278755,39.42803108136468
1403638540827829504,36.387206,855.018114461926,10.632043041666666,0.4331270416666666,-3.4404997083333333,0.4782202150464462,0.0558505360638185,-0.2303834612632515,40.56036538328316,4226.288509613126,40.17236333437086
1403638540877829376,49.160719,826.6007571975863,8.098658458333333,0.612915625,-3.219850083333333,0.5215043804959056,0.0376991118430775,-0.3392920065876977,39.944316347029826,4265.946139600477,39.657629987351356
1403638540927829504,49.616575,840.6953363659942,8.327480291666665,0.3268883333333333,-3.309744375,0.5515240436302082,-0.0397935069454707,-0.1668534764906579,40.00198077329076,4305.642616918313,39.69647731783607
1403638540977829376,50.43149,858.5657043941405,10.076332875,-0.24516625,-3.57942725,0.43703044469938,0.0488692190558412,-0.1277581012459849,40.42424453295021,4345.724484119588,40.08186720127469
1403638541027829504,61.003208,876.7744906175433,10.256121458333332,-0.6537766666666667,-2.8766173333333334,0.4523893421169302,0.0537561409614253,-0.0146607657167523,39.21265394451755,4384.584824924809,38.86034080522131
1403638541077829376,39.013386,954.8009443944076,9.447072833333332,-0.6292600416666666,-2.909306166666666,0.3211405823669566,-0.0006981317007977,-0.0684169066781777,39.62408100884642,4423.82434814729,39.239523222480784
1403638541127829504,60.451984,984.5346305362413,8.891362666666666,0.0163444166666666,-3.2525389166666665,0.3309144261781249,0.0788888821901436,-0.0111701072127637,40.215694666877475,4463.615179495319,39.790831348029315
1403638541177829376,39.116621,992.828567715141,9.56148375,0.8172208333333333,-3.7837324583333327,0.179419847105017,-0.0272271363311115,0.0376991118430775,40.70773798141503,4503.862149821402,40.2469703260831
1403638541227829504,50.396681,1043.7214128439214,9.005773583333333,-0.956148375,-2.6641399166666666,0.1487020522699168,0.0223402144255274,-0.0293215314335047,41.02712375289308,4544.4232845755605,40.56113475415805
1403638541277829376,50.542831,1140.9698196284414,9.152873333333332,0.7109821249999999,-3.726527,0.1647590813882647,0.0628318530717958,-0.0139626340159546,35.36003848658023,4579.349082161407,34.92579758584634
1403638541327829504,50.033093,1105.877275376595,9.65955025,0.0,-4.527403416666666,0.064926248174189,0.0558505360638185,0.0781907504893459,33.94728381435457,4612.863701689034,33.514619527627474
1403638541377829376,48.897266,1108.279988946162,10.395049,-0.784532,-4.274064958333334,0.0677187749773799,-0.0397935069454707,0.1438151303643327,35.10195270927667,4647.52403708361,34.66033539457567
1403638541427829504,49.738646,1058.58631346548,11.563674791666667,0.7028099166666667,-3.955348833333333,0.0006981317007977,0.0,0.0837758040957278,34.0036351975094,4681.089818013803,33.565780930192886
1403638541477829376,62.055111,888.038399811612,10.337843541666668,-0.1062387083333333,-4.625469916666667,-0.0453785605518525,0.0167551608191455,0.025830872929516,41.12380655181827,4721.762992144621,40.67317413081855
1403638541527829504,52.381038,902.4445078683788,9.242767625,0.44129925,-3.5957716666666664,0.0279252680319092,0.0188495559215387,0.0523598775598298,37.02297134273147,4758.325467880106,36.56247573548444
1403638541577829376,47.508955,888.3867515534492,8.556302125,0.4494714583333333,-3.113611375,0.0390953752446729,0.1242674427419962,-0.0125663706143591,42.13825763169964,4800.0010979070685,41.67563002696261
1403638541627829504,49.232245,866.8568296562221,10.2969825,0.0980665,-3.8409379166666655,0.1270599695451872,0.1277581012459849,0.1186823891356144,34.80935638498246,4834.359601866576,34.35850395950729
1403638541677829376,38.496256,775.0454788346542,8.989429166666666,-0.318716125,-4.2168595,0.1640609496874669,0.0726056968829641,0.0635299847725936,34.09610535168135,4867.990690210475,33.63108834389914
1403638541727829504,56.622266,756.010994175077,10.484943291666664,-0.4249548333333333,-4.0125542916666666,0.2869321290278678,0.0356047167406843,0.1626646862858715,43.08618645046381,4910.604573532818,42.6138833223431
1403638541777829376,44.797659,656.8199941467832,10.084505083333331,0.24516625,-3.366949833333333,0.3078760800517997,-0.0370009801422797,0.1200786525372098,42.29583669119246,4952.422754622029,41.818181089211066
1403638541827829504,49.364329,603.1669439362632,10.059988458333333,0.44129925,-2.99102825,0.2925171826342496,0.0502654824574366,0.0670206432765822,41.78014759719972,4993.742422606404,41.31966798437497
1403638541877829376,49.523353,619.2755651261418,6.791105125,0.3268883333333333,-1.838746875,0.3469714552964727,0.018151424220741,-0.0383972435438752,41.343816926805786,5034.639413824875,40.89699121847116
1403638541927829504,60.900927,622.3724096038588,7.534776083333333,0.392266,-2.999200458333333,0.3630284844148205,-0.0013962634015954,-0.0740019602845595,29.36105325151569,5063.26009584145,28.620682016574392
1403638541977829376,39.210081,570.2856111331909,8.360169125,-0.3595771666666666,-3.2770555416666665,0.3818780403363593,-0.0691150383789754,0.0104719755119659,41.17308663712163,5103.949623978751,40.68952813730175
1403638542027829504,49.962044,568.9708048532997,9.80665,0.0081722083333333,-3.849110125,0.4712388980384689,-0.0726056968829641,-0.0328121899374933,40.85430257871663,5144.30184361034,40.35221963158892
1403638542077829376,49.657821,547.9597125886081,9.782133375,0.5720545833333333,-4.396648083333333,0.4286528642898072,0.0509636141582344,-0.0802851455917391,42.292574138295585,5186.069235752794,41.7673921424539
1403638542127829504,62.999011,367.3662110198995,9.226423208333332,0.1307553333333333,-3.211677875,0.5173155902911193,0.0223402144255274,-0.0502654824574366,46.781373739869345,5191.711731495432,5.642495742637948
1403638542177829376,37.154913,371.4034637415867,7.461226208333334,0.3595771666666666,-2.803067458333333,0.48939032225921,-0.0090757121103705,-0.1438151303643327,43.36687303208379,5234.475964503992,42.76423300856004
1403638542227829504,61.12504,380.2858007738512,8.327480291666665,-0.1634441666666666,-2.909306166666666,0.5522221753310059,-0.0244346095279206,-0.208043246837724,38.565305556999895,5272.188708846861,37.71274434286897
1403638542277829376,38.957119,407.96691954395953,10.084505083333331,-0.1552719583333333,-2.69682875,0.5068436147791533,-0.0907571211037051,-0.0788888821901436,52.794805468380204,5323.595088264916,51.40637941805471
1403638542327829504,60.942173,393.2167534913791,9.921060916666669,-0.2124774166666666,-3.2035056666666666,0.4314453910929983,0.1675516081914556,-0.161268422884276,44.95567549307841,5367.8454414753,44.250353210383764
1403638542377829376,49.502372,361.2538380788712,8.196724958333332,0.0408610416666666,-3.4241552916666667,0.4000294645571003,0.2513274122871834,-0.21851522234969,38.945515260445774,5406.1086609980675,38.26321952276794
1403638542427829504,39.491177,314.79874424203854,9.357178541666666,0.2369940416666666,-4.519231208333333,0.278554548618295,0.2960078411382383,-0.28623399732707,65.51632970176738,5468.528303550666,62.419642552598816
1403638542477829376,49.881697,308.6431495673104,9.414383999999998,-0.3840937916666667,-3.391466458333333,0.1521927107739055,0.296705972839036,-0.3497639820996636,45.00151746228481,5512.756583815558,44.22828026489151
1403638542527829504,49.881935,391.9386463224496,10.730109541666666,0.465815875,-4.257720541666666,0.1654572130890624,0.3532546406036522,-0.3120648702565861,43.541427130577546,5555.6079880942825,42.85140427872466
1403638542577829376,50.592661,298.4784211558959,9.888372083333332,1.0869037083333333,-4.028898708333333,0.1396263401595463,0.0370009801422797,-0.0328121899374933,39.86085242059923,5594.53022830072,38.92224020643789
1403638542627829504,60.652256,376.7611739439509,8.915879291666666,-0.7109821249999999,-2.4843513333333336,0.0977384381116824,-0.0111701072127637,-0.0432841654494593,44.152881419505704,5635.932495513419,41.40226721269846
1403638542677829376,50.627231,422.053382533906,8.180380541666665,0.6537766666666667,-3.3506054166666663,0.1682497398922533,-0.0900589894029074,0.1068141502220529,38.400639440062804,5671.31150074471,35.37900523129156
1403638542727829504,38.549185,378.9647749080095,7.608325958333333,0.1552719583333333,-2.5660734166666663,0.1989675347273535,-0.0321140582366956,0.3546509040052477,43.91673728137337,5714.582470611527,43.27096986681681
1403638542777829376,49.771547,403.7814984686226,11.089686708333334,0.171616375,-3.8164212916666655,0.1389282084587486,-0.0691150383789754,0.2254965393576673,46.30621763270624,5759.70423835138,45.12176773985266
1403638542827829504,60.990334,440.5789923632576,8.221241583333333,-0.2941994999999999,-3.1217835833333334,0.0565486677646162,-0.0523598775598298,0.2869321290278678,38.48152769447697,5791.879095230146,32.17485687876615
1403638542877829376,52.554846,436.515127030666,11.155064374999998,0.8417374583333332,-3.857282333333333,0.122173047639603,-0.0523598775598298,0.2645919146023404,43.80212949680119,5835.052433626437,43.173338396291
1403638542927829504,46.975612,427.8049527808057,9.675894666666666,-0.220649625,-3.8899711666666654,-0.0174532925199432,-0.1047197551196597,0.1877974275145898,45.1645714368488,5879.5833387365465,44.530905110109416
1403638542977829376,39.108277,477.29517221065794,10.109021708333332,0.1797885833333333,-3.734699208333333,0.1012290966156711,-0.1989675347273535,0.1926843494201739,53.5245373423062,5932.028804351918,52.44546561537118
1403638543027829504,49.826383,307.10803076535365,9.422556208333331,0.220649625,-3.734699208333333,-0.0118682389135614,-0.0376991118430775,0.1745329251994329,45.24485651478311,5976.704096275988,44.675291924070734
1403638543077829376,61.679364,308.4120962239286,7.902525458333333,-0.5311935416666667,-3.0400615,0.0034906585039886,-0.0397935069454707,0.2234021442552742,42.09186427686302,6018.17979742382,41.47570114783139
1403638543127829504,38.472652,330.5862573934095,9.504278291666663,0.93163175,-3.759215833333333,-0.0272271363311115,0.0272271363311115,0.057246799465414,90.3051395028156,6107.728168582621,89.54837115880127
1403638543177829376,64.250946,418.79367888153246,8.793296166666666,0.5311935416666667,-3.309744375,-0.0125663706143591,-0.0376991118430775,0.0949459113084915,46.46281920790514,6153.565799957789,45.8376313751678
1403638543227829504,35.914898,413.1019590437308,10.313326916666666,0.1144109166666666,-3.18716125,0.0202458193231342,0.0788888821901436,0.1542871058762987,46.36340743804993,6198.040680385923,44.474880428134384
1403638543277829376,50.101757,416.5808211955541,7.363159708333333,0.7436709583333333,-3.138128,-0.0886627260013119,-0.0474729556542457,0.0586430628670094,46.07530763982669,6243.451653780879,45.41097339495536
1403638543327829504,50.034761,409.97813042240006,9.978266375,-1.2176590416666666,-4.437509125,0.0328121899374933,-0.0251327412287183,0.1172861257340189,50.584986236766284,6293.362021414944,49.91036763406555
1403638543377829376,49.86167,395.7700114331317,6.709383041666666,0.8907707083333333,-2.2228406666666665,0.0712094334813686,0.0349065850398865,0.0055850536063818,29.856809504351144,6318.565415220815,25.2033938058712
1403638543427829504,50.061464,356.23584059675795,10.484943291666664,-0.1062387083333333,-2.4925235416666665,0.0767944870877505,-0.0733038285837618,0.0719075651821663,69.88191774011588,6387.594690539998,69.02927531918249
1403638543477829376,49.923897,348.27888249525586,8.572646541666666,0.2778550833333333,-3.57942725,0.2241002759560719,0.018151424220741,-0.0495673507566389,117.97144599750654,6504.489170817473,116.89448027747494
1403638543527829504,49.982786,289.06025958971725,9.373522958333332,0.8662540833333333,-3.162644625,0.2597049926967562,0.0579449311662117,-0.0551524043630208,152.53865286332396,6655.612241521565,151.12307070409224
1403638543577829376,50.053597,270.9213056706492,7.207887749999999,0.0653776666666666,-2.5660734166666663,0.2778564169174973,0.0160570291183478,-0.1500983156715123,157.4836906406942,6811.91284768434,156.30060616277478
1403638543627829504,49.726724,256.1669231590746,9.496106083333332,-0.5720545833333333,-2.9174783749999995,0.3769911184307752,-0.0055850536063818,-0.1333431548523667,138.4538201944371,6949.307661738647,137.39481405430706
1403638543677829376,50.041914,240.59842707339104,10.378704583333333,0.0653776666666666,-3.906315583333333,0.3951425426515162,-0.0495673507566389,-0.1103048087260416,60.52809697837381,7009.066078002876,59.7584162642288
1403638543727829504,60.761214,239.50418018336265,9.210078791666666,0.8662540833333333,-3.015544875,0.4461061568097506,0.0523598775598298,-0.1207767842380075,87.99554556280498,7096.240632133458,87.17455413058269
1403638543777829376,39.431572,234.7261003197219,9.430728416666666,-0.1062387083333333,-3.2770555416666665,0.4384267081009756,0.0397935069454707,-0.2715732316103177,83.6667833700494,7178.462478193174,82.22184605971597
1403638543827829504,50.121545,240.16862283006225,12.029490666666666,0.5475379583333333,-4.184170666666667,0.5431464632206354,0.0167551608191455,-0.1103048087260416,66.80221620876065,7244.3937071980245,65.93122900485014
1403638543877829376,50.133229,225.75978659061911,8.18855275,1.103248125,-3.718354791666666,0.486597795456019,-0.0321140582366956,-0.104021623418862,66.01365196042283,7309.620292094985,65.22658489696096
1403638543927829504,49.78466,251.1282085241906,8.164036124999999,-0.34323275,-2.909306166666666,0.4195771521794367,0.0397935069454707,-0.0802851455917391,63.113150348004645,7371.572605992969,61.95231389798391
1403638543977829376,49.934864,240.16437130995328,10.092677291666664,0.1552719583333333,-5.287418791666666,0.4768239516448508,0.0160570291183478,0.0251327412287183,54.72021556240602,7425.032972703856,53.460366710886774
1403638544027829504,58.26807,239.63810595771284,9.65955025,0.4249548333333333,-3.7837324583333327,0.3797836452339661,-0.0984365698124801,0.0893608577021096,77.33666038360442,7501.375103147345,76.34213044348871
1403638544077829376,41.702032,296.3794436565533,8.237585999999999,0.2124774166666666,-2.9011339583333333,0.3015928947446201,0.0376991118430775,0.0041887902047863,56.88512995628556,7557.51227792486,56.13717477751561
1403638544127829504,50.28987,279.29052422165023,9.528794916666666,0.7109821249999999,-3.734699208333333,0.2988003679414292,0.0432841654494593,0.1843067690106012,64.98508131564222,7619.768817704191,62.256539779330524
1403638544177829376,62.063694,325.3653356514228,6.578627708333332,0.2043052083333333,-2.6886565416666666,0.1452113937659282,0.1186823891356144,0.0418879020478639,56.81848970319666,7675.780141072805,56.011323368614285
1403638544227829504,38.075924,383.065175847931,9.56148375,0.1307553333333333,-3.489532958333333,0.208043246837724,0.018151424220741,0.1850049007113989,57.08596498867696,7732.038257029896,56.25811595709092
1403638544277829376,60.639619,406.8847477021667,9.316317499999998,0.220649625,-3.4241552916666667,0.0977384381116824,0.0774926187885482,0.1186823891356144,57.34494839261801,7788.537118534842,56.498861504946035
1403638544327829504,43.180466,470.6975464361768,9.308145291666667,-0.5066769166666666,-3.2280222916666665,0.0335103216382911,-0.0460766922526503,0.0565486677646162,54.814374868174355,7842.180704248308,53.643585713465654
1403638544377829376,46.13328,480.68534676589366,8.621679791666667,0.8662540833333333,-2.754034208333333,0.0963421747100869,-0.007679448708775,0.1214749159388053,49.60136229831668,7889.703351017521,47.52264676921277
1403638544427829504,50.134659,491.8111818183717,7.542948291666666,0.0408610416666666,-3.726527,-0.0481710873550434,-0.0349065850398865,0.0146607657167523,57.868499519924775,7946.677054300509,56.973703282988026
1403638544477829376,61.091423,465.30223158051626,9.888372083333332,-0.220649625,-3.4813607499999994,0.025830872929516,0.1452113937659282,0.0656243798749867,57.936190903667054,8003.702031529207,57.024977228697935
1403638544527829504,38.814783,574.7502101738437,10.043644041666663,0.7273265416666667,-3.6284605,-0.018151424220741,0.0230383461263251,0.0586430628670094,58.673071030463596,8061.382635646429,57.680604117222174
1403638544577829376,60.343504,350.7500708678229,8.940395916666665,0.0163444166666666,-2.165635208333333,0.0474729556542457,0.2366666465704311,0.0397935069454707,57.51959468656397,8117.978430434043,56.59579478761407
1403638544627829504,38.94043,353.60680896008216,10.754626166666666,0.4903325,-3.4323274999999995,0.0502654824574366,0.2548180707911721,0.0376991118430775,58.688218494289956,8175.7517450321,57.77331459805737
1403638544677829376,66.118478,476.5357880705813,9.545139333333331,0.3105439166666667,-3.661149333333333,-0.0013962634015954,0.1130973355292325,0.0272271363311115,58.136495726627366,8232.955313592563,57.20356856046328
1403638544727829504,34.588814,661.8120790981042,7.9433865,0.0,-2.9256505833333333,0.018151424220741,0.007679448708775,0.054454272662223,59.16519546216696,8291.236858112134,58.28154451957016
1403638544777829376,49.976349,663.605157822712,8.392857958333332,0.8253930416666666,-3.669321541666666,-0.0090757121103705,-0.1424188669627373,0.0474729556542457,59.394689776794685,8349.759977686897,58.52311957476377
1403638544827829504,50.172806,663.9686679879728,10.395049,0.3514049583333333,-3.5957716666666664,0.0272271363311115,-0.1514945790731078,0.15079644737231,59.65540977046327,8408.545274017313,58.785296330415804
1403638544877829376,60.885906,761.9912851033886,7.567464916666665,0.1552719583333333,-1.91229675,0.0,-0.0432841654494593,0.0823795406941323,59.34760222869174,8466.999540964425,58.454266947112046
1403638544927829504,39.287567,774.2643132634047,9.112012291666666,-0.2369940416666666,-2.974683833333333,0.0349065850398865,-0.0376991118430775,0.0872664625997164,59.44681041613771,8525.535799372341,58.53625840791574
1403638544977829376,49.875498,746.2151514058619,8.809640583333332,0.6537766666666667,-3.4486719166666666,-0.0125663706143591,0.0900589894029074,0.0760963553869527,57.72862495222905,8581.551797921316,56.0159985489754
1403638545027829504,49.979687,731.3703634795904,8.687057458333333,-0.4903325,-2.9174783749999995,0.0307177948351002,0.085870199198121,0.0900589894029074,60.4972334722239,8641.121057367845,59.56925944652903
1403638545077829376,49.942493,744.9688632421503,8.008764166666666,-0.0572054583333333,-2.3454237916666667,-0.0188495559215387,-0.0097738438111682,0.0335103216382911,62.26767546232095,8702.379427774229,61.25837040638362
1403638545127829504,49.855948,844.9166094609361,8.7279185,0.2778550833333333,-4.527403416666666,0.0272271363311115,-0.0335103216382911,0.0851720674973232,61.441699178181565,8762.866318459915,60.486890685686376
1403638545177829376,50.156355,863.391646492914,8.237585999999999,-0.196133,-2.280046125,0.007679448708775,-0.0223402144255274,-0.0390953752446729,62.39618203768508,8824.301024278951,61.434705819036026
1403638545227829504,50.243139,840.5636974473139,9.185562166666664,-0.0081722083333333,-4.445681333333333,0.0111701072127637,-0.0453785605518525,0.0509636141582344,61.03264884435501,8884.356500751239,60.05547647228741
1403638545277829376,49.674749,733.1311883927061,8.278447041666666,0.1389275416666666,-3.0564059166666664,0.0006981317007977,0.1480039205691191,0.0474729556542457,61.76544320365398,8945.12891643255,60.77241568131103
1403638545327829504,60.665369,799.5664431267578,7.976075333333333,-0.7600153749999999,-3.08909475,0.0188495559215387,0.132645023151569,0.0565486677646162,53.26041510827808,8992.883890282332,47.75497384978189
1403638545377829376,50.042629,853.9542877729837,9.438900625,-0.4331270416666666,-3.930832208333333,0.0272271363311115,0.007679448708775,0.1591740277818828,60.904037541591,9052.130782344804,59.2468920624724
1403638545427829504,52.883864,937.9258961696038,8.466407833333333,0.220649625,-3.366949833333333,0.0677187749773799,0.0551524043630208,0.0488692190558412,53.58318037084317,9103.39045841476,51.259676069956186
1403638545477829376,46.931028,896.1199851168822,10.109021708333332,-0.6456044583333332,-3.898143375,0.1277581012459849,0.007679448708775,0.0963421747100869,57.96557650106141,9160.136911176254,56.746452761493856
1403638545527829504,39.421559,816.3300763448464,9.692239083333332,-0.2860272916666666,-2.705000958333333,0.1710422666954443,-0.0397935069454707,0.0055850536063818,62.45065024179372,9221.582476429716,61.44556525346161
1403638545577829376,49.935817,797.639475719889,10.681076291666663,-0.2369940416666666,-4.094276375,0.3344050846821135,-0.0460766922526503,0.0691150383789754,79.11670614698045,9299.109551970758,77.527075541042
1403638545627829504,49.793244,695.249739355653,9.479761666666668,0.3595771666666666,-3.0400615,0.2994984996422269,0.0425860337486616,-0.0153588974175501,57.50031142466677,9355.473043536585,56.363491565827644
1403638545677829376,50.359964,704.8313080123412,10.64021525,-1.2176590416666666,-4.314926,0.3309144261781249,-0.0439822971502571,-0.0558505360638185,56.430540279188804,9409.182839933084,53.70979639649886
1403638545727829504,62.285423,673.4576279094914,12.021318458333331,0.465815875,-3.8245935,0.468446371235278,0.0851720674973232,-0.054454272662223,65.20504186865584,9473.4263847793,64.24354484621654
1403638545777829376,37.314892,728.9840972794169,9.128356708333332,0.2533384583333333,-3.759215833333333,0.3958406743523139,0.0251327412287183,-0.1731366617978375,63.608530621604245,9536.06896971549,62.64258493618945
1403638545827829504,50.279856,672.1032460266193,10.877209291666668,-0.4576436666666666,-3.415983083333333,0.4768239516448508,-0.0048869219055841,-0.0963421747100869,66.26799312073426,9601.320713858258,65.25174414276808
1403638545877829376,50.159931,709.5615513697801,8.458235625,0.7600153749999999,-3.3015721666666664,0.5396558047166466,0.0914552528045028,-0.2401573050744197,64.1590656387152,9664.546089340742,63.22537548248329
1403638545927829504,49.700499,686.4237158541749,11.097858916666665,0.4576436666666666,-3.612116083333333,0.4858996637552213,0.0020943951023931,-0.1396263401595463,60.12658213212977,9714.531659132643,49.98556979190107
1403638545977829376,60.402631,746.2049508858024,9.455245041666666,-0.661948875,-3.67749375,0.4286528642898072,0.0509636141582344,-0.2366666465704311,97.65354040772326,9805.390738347885,90.85907921524267
1403638546027829504,52.2995,796.7134791638849,9.814822208333332,0.3350605416666666,-3.514049583333333,0.4105014400690662,-0.0376991118430775,-0.1947787445225671,65.55173275266438,9870.071741535949,64.68100318806319
1403638546077829376,47.915936,811.2952849600383,7.79628675,0.2369940416666666,-3.138128,0.3420845333908886,0.0488692190558412,-0.1270599695451872,73.10363244181958,9941.279495110406,71.20775357445746
1403638546127829504,39.43777,840.9536178265746,7.395848541666666,0.612915625,-2.89296175,0.2981022362406315,0.0321140582366956,-0.0530580092606276,66.59477770160514,10006.726634965054,65.44713985464841
1403638546177829376,49.472809,870.4384262699733,9.46341725,-0.3350605416666666,-3.3996386666666667,0.2548180707911721,-0.0872664625997164,0.1005309649148733,56.87347975483834,10062.501055280372,55.77442031531791
1403638546227829504,51.241875,949.6155470370668,9.136528916666666,0.5557101666666666,-2.50069575,0.2387610416728242,0.0209439510239319,-0.0013962634015954,64.25616956616813,10125.303815770654,62.8027604902818
1403638546277829376,56.3941,908.3570842163954,8.613507583333332,0.6292600416666666,-2.9174783749999995,0.1500983156715123,-0.0321140582366956,0.132645023151569,148.61579675929067,10269.438474087412,144.13465831675785
1403638546327829504,56.006193,931.3038338416004,9.1201845,-0.7763597916666666,-3.3751220416666667,0.1438151303643327,0.0970403064108847,0.1452113937659282,61.332820371613494,10329.7998325395,60.3613584520881
1403638546377829376,48.083782,1113.8017639426942,8.327480291666665,0.5475379583333333,-3.8164212916666655,0.1263618378443894,0.0027925268031909,0.122173047639603,115.4494720738047,10443.197827837783,113.3979952982827
1403638546427829504,39.181471,1087.3883912196268,7.788114541666666,0.7436709583333333,-2.778550833333333,0.0174532925199432,0.0488692190558412,0.0174532925199432,156.0116659927328,10597.472741472247,154.2749136344646
1403638546477829376,49.796105,1200.925018392509,9.381695166666669,-0.6864655000000001,-3.9390044166666662,0.075398223686155,-0.0439822971502571,0.1389282084587486,71.42837502351391,10667.849369793483,70.37662832123533
1403638546527829504,50.338983,1151.5031793456956,10.158054958333333,-0.318716125,-4.976874874999999,0.0607374579694026,-0.018151424220741,-0.0635299847725936,70.70180410607246,10737.469155475534,69.61978568205086
1403638546577829376,51.426173,1073.1950424726142,10.950759166666666,-0.1470997499999999,-4.690847583333333,0.161268422884276,0.0411897703470661,0.0209439510239319,71.93019563211624,10808.217507993377,70.74835251784316
1403638546627829504,49.189329,1052.9849502248037,10.468598874999998,-0.122583125,-3.832765708333333,0.161268422884276,-0.0132645023151569,0.0097738438111682,70.98521942527144,10878.131389859142,69.91388186576478
1403638546677829376,49.702406,992.9053555462174,8.801468374999999,-0.1879607916666666,-2.705000958333333,0.1473057888683213,0.0656243798749867,-0.0342084533390888,73.20684404292203,10949.742572149986,71.61118229084423
1403638546727829504,49.847602,1079.5601113214204,11.637224666666668,-0.8499096666666667,-2.99102825,0.1089085453244461,0.0055850536063818,-0.018151424220741,74.00334876900511,11021.675847906461,71.93327575647527
1403638546777829376,50.642968,1029.7001289446805,8.401030166666667,-0.2369940416666666,-3.702010375,0.1110029404268393,-0.0048869219055841,0.0460766922526503,72.85018367083815,11093.045802106057,71.36995419959567
1403638546827829504,49.485922,1029.3967966134028,8.490924458333334,-0.6537766666666667,-5.892162208333333,0.0656243798749867,0.0251327412287183,0.0,79.28462203737945,11171.330971233001,78.28516912694431
1403638546877829376,49.823999,1088.434666878576,8.87501825,-0.8253930416666666,-5.279246583333333,0.0488692190558412,0.0698131700797731,0.0111701072127637,71.74509380991545,11241.967023924297,70.63605269129584
1403638546927829504,50.408602,1147.5031744336566,7.036271375,0.5883989999999999,-1.81423025,0.0202458193231342,0.0167551608191455,-0.0705113017805709,77.57926589762032,11318.51174284747,76.5447189231727
1403638546977829376,49.358129,1129.4681878863505,9.373522958333332,0.34323275,-3.268883333333333,0.0132645023151569,-0.0034906585039886,0.0202458193231342,71.5992562190586,11388.374712855839,69.8629700083693
1403638547027829504,61.106682,1118.3039987537588,7.755425708333333,-1.2176590416666666,-3.1544724166666662,-0.0153588974175501,-0.0411897703470661,-0.0314159265358979,75.23669198491984,11462.192863608707,73.81815075286795
1403638547077829376,39.26754,1111.9458190310029,9.80665,0.024516625,-3.930832208333333,-0.0656243798749867,-0.0013962634015954,-0.1563815009786919,82.67033879221171,11542.187238412742,79.99437480403503
1403638547127829504,50.009251,1173.5754125476683,6.970893708333333,-0.1470997499999999,-2.525212375,0.0132645023151569,0.0272271363311115,-0.0244346095279206,96.55815643370921,11634.728340184773,92.54110177203074
1403638547177829376,49.893856,1181.6768597323694,9.299973083333333,0.2860272916666666,-3.3751220416666667,-0.0083775804095727,-0.0691150383789754,0.0356047167406843,73.26703436524738,11706.953921834307,72.22558164953443
1403638547227829504,49.912452,1125.2652882538985,8.458235625,-0.4576436666666666,-2.754034208333333,-0.0509636141582344,0.0970403064108847,0.046774823953448,69.511921980984,11775.322080390533,68.36815855622626
1403638547277829376,60.811997,1161.192725514541,7.616498166666665,0.0735498749999999,-3.8245935,-0.0439822971502571,0.0279252680319092,0.0614355896702004,74.21357465764807,11848.337760316046,73.01567992551281
1403638547327829504,39.285183,1070.2973563197852,10.24794925,-0.024516625,-3.195333458333333,0.0984365698124801,0.0069813170079773,0.3316125578789226,57.70557921564469,11904.953015670322,56.61525535427609
1403638547377829376,49.962759,1099.6622347403008,9.095667875,-0.7028099166666667,-4.625469916666667,0.025830872929516,-0.0907571211037051,0.1696460032938488,34.06549637967671,11937.24100755193,32.28799188160701
1403638547427829504,60.71496,1038.567342247767,9.7085835,0.6701210833333332,-3.293399958333333,0.0900589894029074,0.0558505360638185,0.2583087292951608,90.31970831234534,12026.284826461002,89.0438189090728
1403638547477829376,38.604975,979.4368758314774,7.820803375,-0.2778550833333333,-2.778550833333333,-0.0097738438111682,-0.0495673507566389,0.2247984076568696,75.18179725523613,12100.341839646802,74.05701318580032
1403638547527829504,50.026893,1006.4860951878076,9.684066875,-0.5883989999999999,-3.2361945,0.0418879020478639,-0.036302848441482,0.2136283004441059,109.50559204237888,12208.584632687876,108.24279304107404
1403638547577829376,50.698042,1076.455839885863,9.430728416666666,0.024516625,-3.5222217916666665,-0.0342084533390888,0.0621337213709981,0.0488692190558412,76.0540190485841,12283.548236104245,74.96360341636864
1403638547627829504,49.61133,1039.75924616396,8.760607333333333,-0.3595771666666666,-2.7622064166666664,-0.0356047167406843,-0.0509636141582344,0.122173047639603,116.60995582516409,12398.74848092085,115.20024481660585
1403638547677829376,65.315247,1092.221586102647,8.850501625,0.220649625,-3.195333458333333,-0.0216420827247296,0.0328121899374933,0.0188495559215387,61.75105765818327,12459.134972289397,60.38649136854656
1403638547727829504,45.881271,1076.7365765182149,8.172208333333334,0.0,-3.77556025,-0.0635299847725936,0.0174532925199432,-0.0111701072127637,72.93250907074977,12530.984249466139,71.84927717674145
