stamp,img_delta,blur,lin_acc.x,lin_acc.y,lin_acc.z,ang_vel.x,ang_vel.y,ang_vel.z,rpe,ate,drift
1403637132938319104,48.97356,636.4816544764593,9.26728425,-1.0869037083333333,-2.4108014583333333,-0.0020943951023931,0.0272271363311115,0.0851720674973232,0.12876963673246658,380.93298139431124,-0.03760334927034137
1403637132988318976,62.779188,636.1110342792591,9.667722458333332,-0.24516625,-2.3699404166666667,-0.0055850536063818,-0.0195476876223364,0.1123992038284348,0.5793690437629061,380.48149391707994,-0.45148747723129645
1403637133038319104,37.068844,637.9982096187158,9.1201845,-0.7191543333333333,-2.69682875,-0.0202458193231342,0.0293215314335047,0.064926248174189,0.28057329410555937,380.269767063464,-0.21172685361597132
1403637133088318976,50.264597,573.8899625019152,9.259112041666668,-1.299381125,-2.778550833333333,0.0404916386462684,0.1033234917180643,0.0970403064108847,1.1082064694353855,379.99467688926023,-0.27509017420373993
1403637133138319104,49.832583,614.6451505979545,9.610517,-0.4086104166666666,-2.288218333333333,0.0174532925199432,0.0314159265358979,0.0970403064108847,5.873846217274458,378.30841640294153,-1.6862604863187016
1403637133188318976,59.025526,616.8716052627084,9.152873333333332,-0.4739880833333333,-2.0021910416666664,-0.0900589894029074,0.0188495559215387,-0.0432841654494593,5.069515051892652,376.9139548952835,-1.3944615076580362
1403637133238319104,41.180133,623.5057844815999,9.986438583333332,-0.4903325,-2.9174783749999995,-0.0900589894029074,-0.018151424220741,-0.0439822971502571,4.058207753449936,375.6740471257082,-1.239907769575268
1403637133288318976,50.515891,637.6487089981041,9.855683249999998,-0.5311935416666667,-2.5905900416666663,-0.0293215314335047,-0.0195476876223364,0.0509636141582344,5.642243957636014,373.6421039755596,-2.0319431501486065
1403637133338319104,50.219059,566.7687801764292,10.092677291666664,-0.4004382083333333,-2.6641399166666666,-0.1235693110411985,-0.0488692190558412,0.0279252680319092,12.363450573162996,368.45982510782306,-5.1822788677365565
1403637133388318976,49.863815,514.8504848180705,9.136528916666666,-0.6456044583333332,-2.4843513333333336,-0.1528908424747032,-0.075398223686155,0.0844739357965255,20.793846664207532,359.1665965634971,-9.293228544325984
1403637133438319104,50.008535,626.9280769888006,8.597163166666666,-0.8008764166666666,-2.672312125,0.0027925268031909,-0.114493598930828,0.1466076571675237,20.664074205992243,349.8780079077058,-9.288588655791273
1403637133488318976,57.979584,566.6336360420353,9.553311541666666,0.563882375,-1.6753027083333332,-0.0893608577021096,-0.2136283004441059,0.1151917306316257,15.554184462286258,343.03357552333824,-6.844432384367565
1403637133538319104,41.90135,548.8719082999107,9.136528916666666,-0.612915625,-2.827584083333333,-0.0691150383789754,-0.1947787445225671,0.1787217154042193,11.846706382209101,337.87107258732226,-5.162502936015983
1403637133588318976,49.815893,543.7175994674341,9.986438583333332,-0.4249548333333333,-3.178989041666666,-0.1207767842380075,-0.124965574442794,0.0900589894029074,10.61473857333637,333.6622127673121,-4.2088598200101615
1403637133638319104,48.928023,566.9091153594354,10.386876791666666,-0.392266,-3.415983083333333,-0.1026253600172665,-0.0760963553869527,0.0879645943005142,16.250001443856796,327.2328124805437,-6.429400286768384
1403637133688318976,50.82941,505.6363821976785,10.386876791666666,-0.7273265416666667,-3.546738416666667,-0.1110029404268393,-0.0111701072127637,0.0188495559215387,25.272207700456917,315.93355862123445,-11.29925385930926
1403637133738319104,49.901247,438.8320871425889,10.730109541666666,-0.6701210833333332,-3.612116083333333,-0.0949459113084915,0.0279252680319092,0.0614355896702004,39.807656520332905,295.1422627213402,-20.791295899894237
1403637133788318976,49.925327,395.6025251368385,11.073342291666666,-0.34323275,-2.9338227916666666,-0.189891822616983,0.0027925268031909,0.0788888821901436,46.92560814448625,265.5484610008362,-29.59380172050402
1403637133838319104,58.138609,375.5016091269175,10.983448,-0.6210878333333334,-3.4404997083333333,-0.2199114857512855,-0.0781907504893459,0.1158898623324234,48.160275672816724,228.30918549416918,-37.23927550666701
1403637133888318976,41.855097,380.9937969481648,11.310336333333332,-0.8744262916666666,-3.759215833333333,-0.1382300767579508,-0.0900589894029074,0.1926843494201739,56.5859517457509,187.8260359543564,-40.483149539812786
1403637133938319104,50.171376,412.9765591447626,10.664731875,-0.7028099166666667,-3.6284605,-0.1291543646475804,-0.0551524043630208,0.1193805208364121,45.971268491734065,157.31298261964497,-30.51305333471143
1403637133988318976,49.82376,387.1385666854548,9.643205833333331,-0.6292600416666666,-3.2361945,-0.1891936909161853,0.0146607657167523,0.0342084533390888,41.72223479710027,127.33568680228026,-29.977295817364705
1403637134038319104,50.116063,414.7877609262831,9.651378041666666,-0.3759215833333333,-3.3015721666666664,-0.1270599695451872,0.0418879020478639,-0.025830872929516,17.37115838569596,116.2008851108491,-11.134801691431164
1403637134088318976,57.760238,392.8247746722085,9.103840083333331,-0.6782932916666666,-3.1544724166666662,-0.2087413785385218,0.0593411945678072,-0.0397935069454707,22.564289392393714,102.1044284386529,-14.096456672196197
1403637134138319104,41.886092,374.8012880294906,8.850501625,-0.2288218333333333,-2.582417833333333,-0.2464404903815993,0.1019272283164688,-0.1033234917180643,19.730035690529245,90.69162807158037,-11.412800367072535
1403637134188318976,49.947738,331.262789488079,9.471589458333332,-0.318716125,-2.9583394166666666,-0.2450442269800038,0.21851522234969,-0.0677187749773799,15.527619134056666,83.10822025746275,-7.583407814117621
1403637134238319104,50.386667,295.7307706900906,8.253930416666666,-0.1552719583333333,-2.69682875,-0.1480039205691191,0.3225368457685521,0.0,15.499971832381817,75.65707380313454,-7.45114645432821
1403637134288318976,49.722672,301.91044120597843,7.690048041666667,0.2288218333333333,-2.2473572916666664,-0.046774823953448,0.3686135380212024,0.0760963553869527,9.156808129443569,72.33784637020902,-3.3192274329255156
1403637134338319104,50.144911,319.7578547883513,7.60015375,0.1062387083333333,-1.9695022083333331,-0.0090757121103705,0.390255620745932,0.0774926187885482,6.122003129221068,69.95499488481249,-2.382851485396529
1403637134388318976,49.722194,353.5186705167905,6.668522,0.0408610416666666,-1.6753027083333332,-0.0851720674973232,0.3316125578789226,0.1368338133563554,4.454318899620098,68.45526221389446,-1.4997326709180356
1403637134438319104,50.083399,462.5808120296968,6.235394958333333,-0.0898942916666666,-1.22583125,-0.0279252680319092,0.2373647782712288,0.2743657584135086,3.0565959664784526,67.54099395294406,-0.9142682609503936
1403637134488318976,57.607651,802.398265670854,6.251739374999999,0.3350605416666666,-1.201314625,-0.0509636141582344,0.0823795406941323,0.2429498318776106,1.3064244835631627,67.07748209818425,-0.4635118547598154
1403637134538319104,42.586327,830.5509749606839,6.03108975,0.2778550833333333,-1.184970208333333,-0.0013962634015954,-0.0558505360638185,0.1919862177193762,0.38405375578669987,67.15093866643512,0.07345656825087588
1403637134588318976,49.496173,525.4988645255969,6.537766666666666,-0.0163444166666666,-1.4464808749999998,-0.0991347015132779,-0.1759291886010284,-0.0055850536063818,2.3940117179465097,67.9413198893065,0.7903812228713747
1403637134638319104,50.398112,422.4511662896354,6.611316541666667,0.2369940416666666,-1.6262694583333333,-0.0139626340159546,-0.2443460952792061,0.0300196631343024,4.210916578663204,69.41487684025024,1.4735569509437454
1403637134688318976,49.495458,341.7560176094638,7.363159708333333,-0.3268883333333333,-1.8550912916666664,0.0048869219055841,-0.3511602455012591,-0.057246799465414,6.536517628465792,72.17122031652168,2.7563434762714394
1403637134738319104,50.455571,285.7679022217641,7.837147791666666,-0.0408610416666666,-2.8357562916666668,0.0956440430092892,-0.4265584691874141,0.046774823953448,7.9159010173741855,75.39382568480417,3.222605368282487
1403637134788318976,49.949884,192.9719103289128,8.801468374999999,-0.4494714583333333,-3.3751220416666667,0.1487020522699168,-0.4810127418496372,0.1710422666954443,10.466602087075506,80.37851728532314,4.984691600518971
1403637134838319104,49.358845,178.71824358399272,9.814822208333332,-0.5311935416666667,-3.57942725,0.0733038285837618,-0.5403539364174444,0.0781907504893459,11.932367003967457,86.77093717087945,6.392419885556308
1403637134888318976,50.188303,190.48364122128936,9.80665,-0.04903325,-4.26589275,0.0781907504893459,-0.4565781323217166,0.2911209192326541,14.804733210005175,95.86388329042656,9.092946119547108
1403637134938319104,50.635814,234.96254946048103,10.599354208333333,-0.7028099166666667,-4.404820291666666,0.0879645943005142,-0.3218387140677544,0.1975712713257581,16.61261344307913,107.10127642495783,11.237393134531274
1403637134988318976,57.196379,284.69013344978777,11.040653458333331,-0.1307553333333333,-4.478370166666666,0.0474729556542457,-0.1494001839707146,0.1905899543177807,19.252400209384316,121.24749917858205,14.146222753624215
1403637135038319104,42.678118,316.8519012059437,11.048825666666666,-0.5311935416666667,-4.731708625,0.0767944870877505,-0.0837758040957278,0.2115339053417127,21.514850955103665,138.09734070602343,16.849841527441384
1403637135088318976,61.470985,313.4887982578066,10.681076291666663,-0.4903325,-4.633642125,-0.0006981317007977,-0.0691150383789754,0.0237364778271228,21.604416836013208,155.7260202125208,17.628679506497377
1403637135138319104,38.628579,302.52626278056545,11.547330375,-0.4331270416666666,-5.0013915,0.0027925268031909,-0.1207767842380075,0.0509636141582344,24.78141703597602,175.99214161702133,20.266121404500524
1403637135188318976,50.946235,263.65558365652555,11.964113,-0.6782932916666666,-5.271074375,-0.0174532925199432,-0.2569124658935653,-0.0174532925199432,13.16671283929933,186.79113464912896,10.798993032107632
1403637135238319104,49.956322,432.5511652795976,12.789506041666666,-0.4494714583333333,-5.4998962083333325,-0.0621337213709981,-0.2869321290278678,-0.0048869219055841,2.133657972064431,188.56355083813273,1.7724161890037635
1403637135288318976,52.011728,345.08658813123515,13.124566583333332,-0.318716125,-5.802267916666667,-0.0600393262686049,-0.1473057888683213,0.057246799465414,12.017450370721267,178.77486782117705,-9.788683016955673
1403637135338319104,48.994065,264.21439570080656,11.882390916666663,-0.6864655000000001,-5.442690750000001,-0.0733038285837618,0.1012290966156711,0.0670206432765822,21.76595853318177,163.73159175545467,-15.043276065722381
1403637135388318976,51.401853,199.0774915648546,11.195925416666665,-0.3023717083333333,-5.115802416666666,-0.104021623418862,0.3469714552964727,-0.0251327412287183,26.697528026485067,142.7567397194989,-20.974852035955763
1403637135438319104,63.187838,192.03248235011463,10.697420708333333,-0.1552719583333333,-4.625469916666667,-0.1291543646475804,0.4635594493296939,-0.0802851455917391,28.01740773377729,121.91002649810233,-20.846713221396584
1403637135488318976,49.343347,193.14835710323564,9.308145291666667,-0.392266,-4.045243125,-0.0942477796076938,0.5375614096142535,-0.0370009801422797,24.632929242311285,104.46482456733351,-17.445201930768818
1403637135538319104,38.011551,211.38337963911852,9.773961166666666,0.0735498749999999,-3.6202882916666654,-0.1452113937659282,0.4858996637552213,-0.0705113017805709,17.332923066835825,93.41014559357363,-11.054678973759877
1403637135588318976,49.994469,221.2970411201285,8.580818749999999,-0.220649625,-3.211677875,-0.1487020522699168,0.4488986836129415,0.0432841654494593,14.45411285831672,85.1552418149194,-8.254903778654224
1403637135638319104,50.224781,229.1203861627808,8.000591958333333,-0.1062387083333333,-2.999200458333333,-0.1675516081914556,0.468446371235278,0.0537561409614253,12.276951346404646,78.80125357427565,-6.3539882406437584
1403637135688318976,49.360037,266.4784942981233,7.428537374999999,-0.1879607916666666,-2.6477955,-0.036302848441482,0.4300491276914028,0.182212373908208,9.970638423126568,74.44962635956199,-4.351627214713659
1403637135738319104,61.440944,300.5209877319168,6.61948875,-0.0326888333333333,-2.280046125,-0.0097738438111682,0.3741985916275842,0.2275909344600605,8.25028679707107,71.23735419477708,-3.212272164784906
1403637135788318976,38.406611,363.28528018946616,6.022917541666666,0.5883989999999999,-1.7243359583333333,0.0439822971502571,0.2827433388230814,0.2401573050744197,6.284052055788396,69.11173135399416,-2.125622840782924
1403637135838319104,50.383091,529.9500725668976,5.908506625,-0.1470997499999999,-1.32389775,0.0237364778271228,0.182212373908208,0.1989675347273535,3.7097645295093558,68.643809563785,-0.4679217902091608
1403637135888318976,49.48163,775.7703960080731,5.287418791666666,0.3105439166666667,-1.184970208333333,-0.0565486677646162,0.0677187749773799,0.1305506280491758,2.093409522721653,68.20495818656745,-0.43885137721754575
1403637135938319104,50.494433,866.9403333377832,5.720545833333333,-0.3595771666666666,-1.5527195833333332,0.0404916386462684,-0.0425860337486616,0.1542871058762987,10.738223059290286,66.46661731164832,-1.7383408749191318
1403637135988318976,65.415144,651.1974067967284,5.3936575,-0.4004382083333333,-1.372931,-0.0118682389135614,-0.124965574442794,-0.0083775804095727,1.440524295522721,66.65502690025951,0.1884095886111936
1403637136038319104,34.430503,498.48062660144,6.349805875,0.2860272916666666,-1.5772362083333331,0.025830872929516,-0.1605702911834783,0.0642281164733913,3.1601901277694675,67.05878371279415,0.40375681253463824
1403637136088318976,49.716711,439.3399218547302,6.496905624999999,-0.4249548333333333,-1.8550912916666664,0.0097738438111682,-0.2010619298297467,0.0118682389135614,4.9405155243763526,67.89870819385058,0.8399244810564284
1403637136138319104,50.747872,283.3780681332002,7.591981541666666,-0.0735498749999999,-2.239185083333333,-0.1005309649148733,-0.2736676267127109,-0.0495673507566389,5.933428468668507,68.74515337323656,0.8464451793859809
1403637136188318976,49.209595,243.42418181757503,8.670713041666666,-0.2533384583333333,-3.178989041666666,-0.0013962634015954,-0.3574434308084387,0.1347394182539622,8.425322894985547,71.21528431913914,2.470130945902582
1403637136238319104,61.582088,215.33471690493212,8.695229666666666,-0.1389275416666666,-3.661149333333333,-0.0202458193231342,-0.4530874738177279,-0.0726056968829641,9.640756909855304,74.8964209178792,3.6811365987400535
1403637136288318976,38.550854,231.04753093251497,9.831166624999998,0.269682875,-3.963521041666666,0.0167551608191455,-0.4872959271568168,0.208043246837724,14.069878066993189,82.58472388712626,7.6883029692470615
1403637136338319104,49.293279,214.28134672860372,9.863855458333331,-0.2288218333333333,-4.633642125,0.0265290046303138,-0.5145230634879283,0.0907571211037051,12.457548278618463,89.1655375258015,6.580813638675238
1403637136388318976,50.675393,206.3642013740836,10.019127416666668,-0.1144109166666666,-4.993219291666667,0.0383972435438752,-0.4858996637552213,0.1096066770252439,16.628174699949028,100.09368568745725,10.928148161655756
1403637136438319104,66.761493,190.98053011107004,11.686257916666666,0.0572054583333333,-5.360968666666666,0.15079644737231,-0.4132939668722573,0.2380629099720265,20.28352350699353,114.50114758030159,14.407461892844339
1403637136488318976,33.389569,201.9967769572262,11.62088025,-0.4576436666666666,-5.810440125,0.1235693110411985,-0.333008821280518,0.2359685148696333,21.714172657099812,130.93523481107877,16.43408723077718
1403637136538319104,50.322055,246.27078997365865,11.923251958333331,-0.2860272916666666,-5.589790499999999,0.0733038285837618,-0.1989675347273535,0.2087413785385218,26.216131987652698,152.6575196553494,21.722284844270632
1403637136588318976,49.591542,325.7066753408289,12.536167583333333,-0.5148491249999999,-6.161845083333333,0.0104719755119659,-0.1186823891356144,0.0321140582366956,21.374469891244992,168.86854412692261,16.21102447157321
1403637136638319104,49.965858,567.0857395348069,12.715956166666665,-0.4576436666666666,-6.317117041666666,-0.0111701072127637,-0.0593411945678072,-0.0027925268031909,2.8381907510542104,171.0252135751335,2.1566694482108915
1403637136688318976,49.784899,339.0228503762118,12.822194875,-0.6047434166666666,-6.635833166666666,-0.0125663706143591,0.0153588974175501,0.0174532925199432,12.27051493248767,160.77947625948838,-10.24573731564513
1403637136738319104,49.948692,265.83641243455656,12.152073791666666,-0.2369940416666666,-6.268083791666666,0.0209439510239319,0.0872664625997164,0.0914552528045028,21.82086032206964,142.8475377083767,-17.93193855111167
1403637136788318976,51.0149,213.18623947189607,11.343025166666669,-0.4985047083333333,-5.834956749999999,0.0328121899374933,0.2611012560983517,0.0600393262686049,22.324985079393837,125.69511780016353,-17.152419908213176
1403637136838319104,49.559594,196.76065180812128,11.269475291666666,-0.1307553333333333,-5.042252541666667,-0.0432841654494593,0.3993313328563026,-0.0272271363311115,20.45530908997082,110.64575759237947,-15.049360207784062
1403637136888318976,63.745021,181.9327672065785,9.234595416666666,-0.0653776666666666,-4.4701979583333324,-0.0481710873550434,0.5242969072990966,0.0907571211037051,17.696824696287,99.2194777359598,-11.426279856419669
1403637136938319104,46.844006,184.9170445740212,9.749444541666666,0.024516625,-3.8082490833333327,-0.2143264321449036,0.507541746479951,-0.0020943951023931,15.101619553712064,93.15037149720597,-6.069106238753832
1403637136988318976,56.991339,190.426082145676,7.567464916666665,-0.367749375,-3.726527,-0.2485348854839925,0.5298819609054785,0.0642281164733913,13.152901098952297,87.24199847253,-5.908373024675967
1403637137038319104,32.159805,211.87322851652755,7.297782041666666,-0.3514049583333333,-2.868445125,-0.1801179788058148,0.528485697503883,0.1857030324121966,11.659651485582629,82.28206040070475,-4.959938071825249
1403637137088318976,60.946703,224.8158476843469,6.129156249999999,-0.7763597916666666,-2.459834708333333,-0.1291543646475804,0.5242969072990966,0.208043246837724,10.680371045226385,81.56076290354865,-0.721297497156101
1403637137138319104,39.239407,277.2380717244457,5.303763208333334,-0.2533384583333333,-1.7406803749999995,0.1005309649148733,0.4663519761328848,0.4098033083682685,14.943593528639488,71.92757214864197,-9.633190754906678
1403637137188318976,49.781322,355.3564418995844,5.254729958333334,-0.1552719583333333,-1.4137920416666665,0.0376991118430775,0.3588396942100341,0.093549647906896,4.6105674584698875,71.4195064084026,-0.508065740239374
1403637137238319104,50.064087,473.7778639570176,5.140319041666666,0.1634441666666666,-1.299381125,0.0684169066781777,0.2555162024919699,0.1137954672300302,2.801479363738116,71.40970468369778,-0.009801724704814774
1403637137288318976,60.558081,701.7478601930678,5.475379583333333,-0.4086104166666666,-1.32389775,-0.0230383461263251,0.1780235837034216,0.0020943951023931,0.6690622985078869,71.51269867403374,0.10299399033596046
1403637137338319104,39.193391,927.452895778397,5.24655775,-0.5230213333333333,-1.4628252916666666,0.0027925268031909,0.1291543646475804,0.054454272662223,1.2930063667224663,71.76010884498069,0.2474101709469494
1403637137388318976,49.132824,804.4514204025364,6.210878333333333,-0.2615106666666666,-1.372931,0.0809832772925368,0.046774823953448,0.0509636141582344,3.1592325060630486,71.99638606946006,0.23627722447936605
1403637137438319104,50.731421,567.1363181331451,6.439700166666666,-0.2369940416666666,-1.838746875,0.0418879020478639,-0.0970403064108847,-0.0488692190558412,4.731642808074161,72.42629589750929,0.42990982804923306
1403637137488318976,77.425957,410.7703289752786,8.28661925,0.5965712083333333,-2.533384583333333,-0.0195476876223364,-0.3881612256435388,-0.1158898623324234,6.236398808102109,72.85894803185289,0.4326521343435985
1403637137538319104,24.67966,324.77210282525635,8.28661925,0.5965712083333333,-2.533384583333333,-0.0195476876223364,-0.3881612256435388,-0.1158898623324234,20.973959814336325,70.79658317219544,-2.0623648596574498
1403637137588318976,48.138857,282.6609093244208,8.425546791666665,-0.4821602916666666,-2.8766173333333334,-0.1082104136236484,-0.5256931707006921,-0.161268422884276,8.78087105154194,73.6358322493199,2.839249077124464
1403637137638319104,49.063445,188.8290290121425,9.201906583333331,-0.0980665,-3.8082490833333327,-0.1563815009786919,-0.5508259119294103,-0.0083775804095727,9.216806992881965,76.57202698603803,2.9361947367181216
1403637137688318976,61.579704,179.78579473384676,10.231604833333332,0.0817220833333333,-3.881798958333333,0.0446804288510548,-0.57246799465414,0.1165879940332212,10.153771155567867,80.9655331981603,4.393506212122276
1403637137738319104,39.177656,184.69547779925784,9.798477791666668,-0.2860272916666666,-5.4998962083333325,0.0579449311662117,-0.457974395723312,0.1242674427419962,11.235795619875844,86.42009093927523,5.454557741114925
1403637137788318976,50.144911,209.265953454541,10.746453958333332,0.0980665,-5.410001916666666,0.1445132620651305,-0.3162536604613725,0.1773254520026238,13.240672037358491,94.2514181420354,7.831327202760178
1403637137838319104,49.844742,201.4955841818068,11.212269833333332,-0.04903325,-5.418174124999999,0.1640609496874669,-0.293913446035845,0.1277581012459849,5.227987617250285,90.5071918151448,-3.7442263268906117
1403637137888318976,50.138473,197.67527491884812,12.184762625,0.2043052083333333,-5.655168166666666,0.0726056968829641,-0.28623399732707,0.0132645023151569,12.59547767885601,96.61733420305646,6.110142387911665
1403637137938319104,49.783707,198.56470550308387,12.8467115,0.1062387083333333,-5.704201416666666,0.0020943951023931,-0.3316125578789226,0.0062831853071795,7.958919462879967,101.97789701077866,5.360562807722204
1403637137988318976,50.074577,247.8385706865028,13.353388416666665,0.0735498749999999,-6.292600416666667,0.0174532925199432,-0.3309144261781249,0.0167551608191455,3.6395964892047448,104.54622396037583,2.5683269495971643
1403637138038319104,60.588122,384.1499389758883,13.189944249999998,-0.2778550833333333,-6.864654999999999,0.0090757121103705,-0.2017600615305445,0.1256637061435917,1.8650959931993343,105.17669832267495,0.6304743622991253
1403637138088318976,39.13474,257.9003557491461,12.634234083333332,-0.44129925,-6.537766666666666,0.1242674427419962,0.0425860337486616,0.1829105056090057,5.648610845824287,102.78424583524075,-2.3924524874341984
1403637138138319104,61.020851,191.9384831403267,12.160246,0.3268883333333333,-5.875817791666666,0.1200786525372098,0.2443460952792061,-0.0432841654494593,12.343895681013334,97.02146053889822,-5.762785296342528
1403637138188318976,38.906813,183.7069878887827,11.253130874999998,0.171616375,-5.973884291666666,-0.1019272283164688,0.4237659423842232,-0.3155555287605747,7.873818697003876,94.26051191892626,-2.7609486199719697
1403637138238319104,65.85908,163.94122061832326,9.733100125,-0.5230213333333333,-4.829775124999999,-0.1989675347273535,0.5885250237724878,-0.1759291886010284,8.551393637779514,92.71444033576344,-1.5460715831628136
1403637138288318976,34.041166,165.01435812382226,8.5317855,-0.3268883333333333,-4.26589275,-0.1759291886010284,0.6953391739945409,-0.0481710873550434,14.14986378456859,100.46733867073556,7.752898334972116
1403637138338319104,50.597668,171.99016008187405,8.515441083333332,-0.0980665,-3.603943875,-0.1696460032938488,0.7588691587671345,0.1312487597499735,6.973938101913582,102.9027270761037,2.435388405368144
1403637138388318976,49.804449,190.42830562424427,7.216059958333333,0.44129925,-3.015544875,-0.2178170906488923,0.7379252077432026,0.0698131700797731,10.196213875360268,99.63098063524298,-3.271746440860724
1403637138438319104,60.895919,208.68436945614985,6.545938874999999,0.1062387083333333,-2.4680069166666665,-0.2094395102393195,0.6311110575211495,0.1361356816555577,17.204617942410827,94.93328062010895,-4.697700015134032
1403637138488318976,38.979054,242.3516532504141,5.573446083333333,0.0,-1.8224024583333327,-0.182212373908208,0.5054473513775578,0.1619665545850737,17.85235184440245,84.18625225510736,-10.747028365001583
1403637138538319104,50.184727,331.13867942872605,5.189352291666666,0.3840937916666667,-1.3811032083333332,-0.0886627260013119,0.3853686988403479,0.1417207352619395,5.657935462933291,83.53896681830999,-0.6472854367973753
1403637138588318976,60.624122,475.53114583774646,5.230213333333333,0.0326888333333333,-1.0787315,-0.0132645023151569,0.2562143341927675,0.1110029404268393,16.417230255426205,69.91345628965465,-13.62551052865534
1403637138638319104,39.077759,810.3096542785208,5.303763208333334,0.1797885833333333,-0.8253930416666666,0.0167551608191455,0.0970403064108847,0.104021623418862,1.2072137515239434,70.01268220980906,0.09922592015441012
1403637138688318976,50.293446,842.07144873735,5.377313083333333,-0.0408610416666666,-0.980665,0.0949459113084915,-0.0272271363311115,0.2241002759560719,1.0822220881644407,70.1552031495314,0.14252093972234547
1403637138738319104,49.953937,614.9695146658506,6.03108975,0.0980665,-1.2340034583333332,0.0237364778271228,-0.1235693110411985,0.1005309649148733,2.846922927759283,70.48030123110284,0.32509808157143993
1403637138788318976,50.110102,454.1745056184581,6.6603497916666665,0.0326888333333333,-1.1767979999999998,-0.0041887902047863,-0.2408554367752175,0.2408554367752175,4.528699830086333,71.02046560170282,0.5401643705999817
1403637138838319104,50.048351,294.721534536713,6.872827208333333,0.0980665,-2.4680069166666665,-0.0949459113084915,-0.3169517921621702,0.0118682389135614,5.723326397957748,71.36765809651602,0.3471924948131999
1403637138888318976,49.830675,276.6115630813092,7.730909083333333,-0.1144109166666666,-3.1463002083333333,0.0460766922526503,-0.3155555287605747,0.0446804288510548,7.526197232456863,73.09441085538525,1.7267527588692246
1403637138938319104,50.044537,259.52905765420434,9.398039583333333,-0.3840937916666667,-2.525212375,0.182212373908208,-0.2848377339254746,0.21851522234969,9.142794555529358,76.22056656169023,3.126155706304985
1403637138988318976,50.063133,269.1457205479722,9.471589458333332,-0.318716125,-3.4731885416666666,0.2401573050744197,-0.2450442269800038,0.2659881780039358,9.47951588162897,79.76589667512056,3.5453301134303246
1403637139038319104,49.747467,282.94753446365706,10.059988458333333,-0.465815875,-4.110620791666666,0.2492330171847902,-0.1870992958137921,0.2401573050744197,13.67152691492386,87.23057976812333,7.464683093002776
1403637139088318976,60.718536,301.13766968194034,10.509459916666668,-0.3759215833333333,-3.9880376666666666,0.2164208272472968,-0.1577777643802873,0.2778564169174973,14.831551373084995,95.55516533809711,8.324585569973777
1403637139138319104,39.211989,268.2839725290036,10.427737833333332,-0.6047434166666666,-4.26589275,0.1480039205691191,-0.1773254520026238,0.1424188669627373,13.239521715977109,104.06276573029858,8.507600392201468
1403637139188318976,60.862541,265.76092787558844,11.22861425,-0.1879607916666666,-4.135137416666667,0.1186823891356144,-0.1452113937659282,0.0628318530717958,21.341203950425676,118.371688384085,14.308922653786425
1403637139238319104,38.458347,309.8042802326967,11.539158166666668,-0.4086104166666666,-4.200515083333333,0.1319468914507713,-0.036302848441482,0.1319468914507713,24.9597019736453,137.5129734471679,19.14128506308289
1403637139288318976,67.332745,315.6115406193218,11.416575041666665,-0.4004382083333333,-4.110620791666666,0.0712094334813686,-0.0237364778271228,-0.0230383461263251,18.0400376015931,151.30769031778055,13.79471687061266
1403637139338319104,43.890715,341.8704172102375,11.024309041666667,-0.318716125,-4.0615875416666665,0.0370009801422797,-0.0139626340159546,-0.0083775804095727,19.699795734574458,167.01331793363434,15.705627615853786
1403637139388318976,41.774988,299.1144060059882,10.117193916666666,-0.5802267916666666,-4.5519200416666665,0.15079644737231,0.0,-0.0607374579694026,17.82425730495755,180.2586209059055,13.245302972271162
1403637139438319104,48.411131,374.3927753818616,9.872027666666666,-0.5802267916666666,-3.800076875,0.1884955592153876,0.085870199198121,0.0237364778271228,14.44260853239754,192.3236189029697,12.06499799706421
1403637139488318976,62.119007,396.8133032537786,9.381695166666669,-0.6782932916666666,-3.7919046666666665,0.1773254520026238,0.0956440430092892,0.0383972435438752,10.611640117498371,200.70032849082122,8.376709587851508
1403637139538319104,37.890434,470.117657640322,9.234595416666666,-0.3759215833333333,-3.702010375,0.1089085453244461,0.1466076571675237,0.1172861257340189,11.008704296114603,209.53645994463724,8.836131453816023
1403637139588318976,49.793482,482.0475840184338,9.406211791666664,-0.4086104166666666,-3.571255041666667,0.0272271363311115,0.1598721594826805,-0.0328121899374933,8.923643836527646,216.9716703603461,7.435210415708866
1403637139638319104,61.347008,476.0720564776728,9.054806833333332,-0.3105439166666667,-3.3996386666666667,0.0691150383789754,0.140324471860344,0.0167551608191455,6.786101180627788,222.6477355704719,5.676065210125785
1403637139688318976,38.595676,468.2693516922441,8.866846041666665,-0.24516625,-3.28522775,0.0670206432765822,0.1033234917180643,0.0383972435438752,8.592841487891869,230.01228573988573,7.364550169413832
1403637139738319104,65.259934,484.7018991117187,9.496106083333332,-0.0980665,-3.4977051666666665,0.0342084533390888,0.0579449311662117,0.0719075651821663,11.761618114673041,240.11337145880924,10.101085718923514
1403637139788318976,39.642334,453.8080867638202,9.087495666666666,-0.3268883333333333,-3.57942725,-0.0293215314335047,0.0090757121103705,0.0132645023151569,7.284963640143813,244.7174163567034,4.60404489789417
1403637139838319104,44.408083,291.82163474964085,8.695229666666666,0.318716125,-3.334261,0.1151917306316257,0.3064798166502042,0.0998328332140756,8.9375152602346,252.3625861000604,7.645169743357002
1403637139888318976,50.780057,355.6990097442622,9.259112041666668,-0.9479761666666666,-3.391466458333333,-0.0432841654494593,0.2541199390903744,0.1494001839707146,3.6327975873571408,255.59319421222008,3.230608112159672
1403637139938319104,50.034047,365.0440455401948,8.621679791666667,-1.1359369583333332,-3.064578125,-0.0970403064108847,0.1982694030265558,0.2038544566329376,3.9569500719228268,258.8919835388261,3.2987893266059984
1403637139988318976,61.007976,424.02595046022327,9.586000375,-0.4331270416666666,-3.072750333333333,-0.0656243798749867,0.132645023151569,0.2750638901143063,3.6805467459262062,261.977543944488,3.0855604056619086
1403637140038319104,38.967848,335.78160975869787,9.635033625,-0.4494714583333333,-2.803067458333333,-0.0837758040957278,0.2827433388230814,0.1954768762233649,2.537936867344121,264.02835708432633,2.05081313983834
1403637140088318976,61.119318,383.1970292958681,9.332661916666666,-0.93163175,-3.0400615,-0.1570796326794896,0.2247984076568696,0.0565486677646162,35.3724069064957,231.37651081996066,-32.65184626436567
1403637140138319104,38.609505,299.9603540940421,9.586000375,-0.809048625,-2.459834708333333,-0.093549647906896,0.333008821280518,0.1396263401595463,0.667887399888236,231.20528528881673,-0.17122553114393213
1403637140188318976,66.123724,486.399465162128,9.103840083333331,-0.4004382083333333,-2.157463,-0.1270599695451872,-0.0698131700797731,0.0740019602845595,0.8621878793899849,231.74741926900145,0.5421339801847296
1403637140238319104,34.147024,546.696160812957,9.504278291666663,-0.6047434166666666,-2.533384583333333,-0.0635299847725936,0.0279252680319092,0.0816814089933346,4.644116905414561,235.37254410196513,3.625124832963678
1403637140288318976,61.32555,557.5833497640739,9.022118,-0.5148491249999999,-2.459834708333333,-0.0006981317007977,0.0069813170079773,0.1836086373098034,2.8139503204213483,237.45204803126322,2.0795039292980846
1403637140338319104,38.636208,386.0817314241585,7.232404375,-1.062387083333333,-1.4709975,0.0188495559215387,0.1843067690106012,0.1773254520026238,2.0212963081646578,238.933187845488,1.4811398142247754
1403637140388318976,49.706697,566.6644439981552,9.986438583333332,0.024516625,-3.195333458333333,0.0055850536063818,0.093549647906896,0.0376991118430775,1.0984360829966011,238.07477032911382,-0.8584175163741747
1403637140438319104,60.317039,560.6257998617086,9.643205833333331,-0.83356525,-2.7622064166666664,0.0020943951023931,0.0984365698124801,0.1284562329467826,0.6130078696271911,238.5539324753101,0.4791621461962734
1403637140488318976,39.535285,577.6127979741179,9.349006333333334,-0.4331270416666666,-2.435318083333333,-0.0020943951023931,0.0349065850398865,0.0921533845053006,2.1580429849131137,236.91349003900527,-1.6404424363048236
1403637140538319104,49.091577,576.0826994628967,9.553311541666666,-0.8825985,-2.705000958333333,0.018151424220741,0.0383972435438752,0.1214749159388053,0.04159338905792882,236.87544114306624,-0.038048895939027716
1403637140588318976,51.038265,579.1032676158678,9.651378041666666,-0.6946377083333333,-2.582417833333333,0.0104719755119659,0.0237364778271228,0.0942477796076938,0.7046042054192686,236.29320583289507,-0.5822353101711712
1403637140638319104,50.175667,580.4900547969817,9.291800875,-0.8008764166666666,-2.606934458333333,0.0125663706143591,0.0251327412287183,0.064926248174189,0.06774746042247874,236.33466765601963,0.041461823124564035
1403637140688318976,49.838543,578.1380848692465,9.389867375,-0.318716125,-2.582417833333333,0.0146607657167523,0.0202458193231342,0.0712094334813686,0.12483540445415264,236.22470399324408,-0.1099636627755558
1403637140738319104,49.941063,579.9189853606543,9.332661916666666,-0.63743225,-2.574245625,-0.0027925268031909,0.0188495559215387,0.0586430628670094,0.0701961035102841,236.27086541296808,0.04616141972400101
1403637140788318976,50.291538,580.168572752683,9.643205833333331,-0.4086104166666666,-2.6886565416666666,0.0048869219055841,0.0188495559215387,0.0893608577021096,0.06704460005281455,236.21509743588388,-0.05576797708420145
1403637140838319104,49.587965,579.5962750631886,9.193734375,-0.809048625,-2.459834708333333,-0.0279252680319092,0.0188495559215387,0.0719075651821663,0.03443077670616185,236.1964458451256,-0.0186515907582816
1403637140888318976,50.085068,578.2237129280962,9.65955025,-0.9398039583333332,-2.533384583333333,-0.0202458193231342,0.0230383461263251,0.0767944870877505,0.019218626160423836,236.17760501346748,-0.018840831658110346
1403637140938319104,50.154686,579.9318926737318,9.389867375,-0.9643205833333331,-2.574245625,-0.0083775804095727,0.0251327412287183,0.0795870138909414,0.03235490717076465,236.19380586135614,0.016200847888654835
1403637140988318976,60.222149,579.7446477592624,9.5124505,-0.9234595416666666,-2.6151066666666667,-0.0083775804095727,0.0251327412287183,0.0760963553869527,0.014084368823036908,236.18348741280406,-0.010318448552084192
1403637141038319104,38.602114,580.9284507777867,9.553311541666666,-0.9234595416666666,-2.582417833333333,-0.0041887902047863,0.0265290046303138,0.0802851455917391,0.010951684119793572,236.18740409506023,0.003916682256175363
1403637141088318976,51.16415,580.2474536010931,9.316317499999998,-0.73549875,-2.549729,-0.0034906585039886,0.0167551608191455,0.0760963553869527,0.04713732175511581,236.14755851837052,-0.039845576689714335
1403637141138319104,48.782587,581.4173999789716,9.389867375,-0.7600153749999999,-2.6151066666666667,0.0048869219055841,0.0265290046303138,0.0760963553869527,0.06736902225525147,236.2011973928975,0.053638874526996005
1403637141188318976,51.064253,580.8356840091858,9.299973083333333,-0.6864655000000001,-2.5170401666666664,0.0069813170079773,0.0293215314335047,0.0837758040957278,0.07808804622903481,236.146560819288,-0.054636573609514016
1403637141238319104,50.123453,582.028311066937,9.332661916666666,-0.7600153749999999,-2.5905900416666663,0.0006981317007977,0.0167551608191455,0.0726056968829641,0.05574129383029396,236.19058801419203,0.044027194904032285
1403637141288318976,49.802065,581.7980564097285,9.36535075,-0.661948875,-2.6477955,0.0069813170079773,0.0251327412287183,0.0809832772925368,0.017399749376490924,236.18613791594893,-0.0044500982430975
1403637141338319104,49.047947,581.299209831694,9.226423208333332,-0.6292600416666666,-2.50069575,-0.0041887902047863,0.0216420827247296,0.075398223686155,0.0195948986660379,236.17376651598155,-0.012371399967378238
1403637141388318976,51.135778,581.7317730948363,9.406211791666664,-0.6292600416666666,-2.6477955,-0.0020943951023931,0.0195476876223364,0.0795870138909414,0.009011973667196404,236.18128767295988,0.007521156978327781
1403637141438319104,49.823761,582.6376160891681,9.471589458333332,-0.6537766666666667,-2.533384583333333,-0.0062831853071795,0.025830872929516,0.0733038285837618,0.04573222832601088,236.21703633262504,0.03574865966515972
1403637141488318976,49.978495,582.2045742309487,9.5124505,-0.6701210833333332,-2.631451083333333,-0.0062831853071795,0.0167551608191455,0.0781907504893459,0.021972441756748836,236.19659684768,-0.020439484945029562
1403637141538319104,65.409422,583.2944061064395,9.471589458333332,-0.6782932916666666,-2.639623291666666,-0.0048869219055841,0.0195476876223364,0.0733038285837618,0.011284061976618524,236.20611343018166,0.009516582501646553
1403637141588318976,44.55328,582.6165811520489,9.430728416666666,-0.5883989999999999,-2.5905900416666663,-0.0041887902047863,0.0202458193231342,0.0823795406941323,0.018270227731603056,236.21342739499593,0.007313964814272822
1403637141638319104,50.558328,582.3702158936676,9.455245041666666,-0.6864655000000001,-2.623278875,-0.0006981317007977,0.0188495559215387,0.0788888821901436,0.03567303497538147,236.24235640683332,0.028929011837391272
1403637141688318976,39.444685,582.1270679291097,9.430728416666666,-0.6456044583333332,-2.582417833333333,-0.0034906585039886,0.0202458193231342,0.0740019602845595,0.019893880705908563,236.2607253914944,0.01836898466106618
1403637141738319104,60.565233,582.0941167985401,9.36535075,-0.7436709583333333,-2.574245625,-0.0013962634015954,0.018151424220741,0.0726056968829641,0.0164144952797273,236.27337445454128,0.012649063046893616
1403637141788318976,39.456606,581.3650852557764,9.430728416666666,-0.7028099166666667,-2.59876225,0.0020943951023931,0.025830872929516,0.0893608577021096,0.02043633324860438,236.28355239175227,0.010177937210983146
1403637141838319104,65.655709,582.0047378970302,9.373522958333332,-0.6864655000000001,-2.5660734166666663,-0.0006981317007977,0.0188495559215387,0.0733038285837618,0.017044658703242354,236.26661966569523,-0.016932726057035552
1403637141888318976,44.375658,580.6582609743841,9.332661916666666,-0.7273265416666667,-2.606934458333333,-0.0006981317007977,0.0230383461263251,0.0816814089933346,0.07001322453297604,236.31862591866889,0.05200625297365491
1403637141938319104,38.958549,580.3616717587014,9.471589458333332,-0.5965712083333333,-2.582417833333333,0.0006981317007977,0.0230383461263251,0.075398223686155,0.08810967374412415,236.25650881750636,-0.06211710116252789
1403637141988318976,66.87212,580.4368791654092,9.422556208333331,-0.7109821249999999,-2.59876225,-0.0006981317007977,0.0209439510239319,0.0823795406941323,0.0495441236467526,236.29594203470384,0.03943321719748383
1403637142038319104,44.558525,580.6538344359186,9.422556208333331,-0.6537766666666667,-2.6477955,-0.0013962634015954,0.0153588974175501,0.0740019602845595,0.01201886397211922,236.30752620874364,0.011584174039796835
1403637142088318976,44.048071,582.4355328563395,9.381695166666669,-0.7109821249999999,-2.606934458333333,-0.0048869219055841,0.0230383461263251,0.0733038285837618,0.04471362970131993,236.33001866040027,0.02249245165663183
1403637142138319104,45.738697,581.9008149499962,9.479761666666668,-0.612915625,-2.574245625,-0.0034906585039886,0.0230383461263251,0.0747000919853573,0.057138099860922636,236.27496424666998,-0.0550544137302893
1403637142188318976,50.045967,582.1070469451624,9.471589458333332,-0.7028099166666667,-2.6151066666666667,-0.0020943951023931,0.0223402144255274,0.0802851455917391,0.06488632442817524,236.32472079853844,0.04975655186845529
1403637142238319104,49.916029,581.3012306431812,9.5124505,-0.6210878333333334,-2.639623291666666,-0.0020943951023931,0.0188495559215387,0.0774926187885482,0.034923565158737624,236.3089974219978,-0.015723376540648815
1403637142288318976,50.007582,581.8199460493242,9.438900625,-0.6537766666666667,-2.639623291666666,-0.0041887902047863,0.0153588974175501,0.0733038285837618,0.05113497246201936,236.2791591774228,-0.029838244574989403
1403637142338319104,50.110578,581.8740778486488,9.36535075,-0.63743225,-2.557901208333333,-0.0048869219055841,0.018151424220741,0.0740019602845595,0.009141516951748252,236.28695855926,0.007799381837202191
1403637142388318976,48.960925,580.7406857930847,9.340834125,-0.7681875833333334,-2.5660734166666663,-0.0027925268031909,0.0195476876223364,0.0795870138909414,0.08931036844336175,236.3464118780347,0.05945331877470039
1403637142438319104,66.858768,580.3477504690431,9.471589458333332,-0.6537766666666667,-2.639623291666666,-0.0034906585039886,0.0223402144255274,0.0809832772925368,0.058621385657191036,236.29282017926045,-0.05359169877425529
1403637142488318976,44.627428,579.9626294007636,9.414383999999998,-0.7191543333333333,-2.582417833333333,-0.0020943951023931,0.0202458193231342,0.075398223686155,0.01960757194817937,236.30874670918317,0.01592652992272292
1403637142538319104,38.481951,581.3643681075418,9.389867375,-0.6946377083333333,-2.5415567916666664,-0.0006981317007977,0.0146607657167523,0.0816814089933346,0.01566660305717113,236.29857444641576,-0.010172262767412121
1403637142588318976,51.031112,580.1095440673524,9.357178541666666,-0.6701210833333332,-2.582417833333333,-0.0027925268031909,0.0195476876223364,0.0781907504893459,0.014213534346254107,236.31281717777225,0.014242731356489458
1403637142638319104,49.672604,581.3630554630864,9.447072833333332,-0.6946377083333333,-2.606934458333333,0.0020943951023931,0.0167551608191455,0.08307767239493,0.03448095947279996,236.28101198535444,-0.03180519241780644
1403637142688318976,60.814858,580.059035971297,9.389867375,-0.6782932916666666,-2.574245625,0.0020943951023931,0.0237364778271228,0.0740019602845595,0.06421815904886383,236.3245969794409,0.04358499408647276
1403637142738319104,39.488792,582.0562718946469,9.447072833333332,-0.6701210833333332,-2.5905900416666663,0.0020943951023931,0.0216420827247296,0.0823795406941323,0.028395101902098704,236.33370995897303,0.009112979532119425
1403637142788318976,64.563274,581.2665597809329,9.398039583333333,-0.661948875,-2.582417833333333,0.0013962634015954,0.0125663706143591,0.08307767239493,0.04030815455668646,236.3161479982579,-0.017561960715141822
1403637142838319104,35.618306,581.9891075088918,9.406211791666664,-0.6864655000000001,-2.606934458333333,0.0013962634015954,0.0223402144255274,0.0837758040957278,0.019919847510090002,236.33186469546254,0.01571669720465252
1403637142888318976,48.682212,581.4973497911864,9.414383999999998,-0.7191543333333333,-2.557901208333333,0.0,0.0174532925199432,0.0781907504893459,0.043378973773729984,236.3845620187098,0.05269732324725851
1403637142938319104,49.962283,582.3673368197806,9.430728416666666,-0.6292600416666666,-2.655967708333333,0.0,0.0188495559215387,0.0823795406941323,0.01787568096218588,236.37346070458287,-0.011101314126932493
1403637142988318976,51.032781,581.8654140235523,9.479761666666668,-0.6210878333333334,-2.582417833333333,0.0,0.0216420827247296,0.0809832772925368,0.019697963335696844,236.38150716222043,0.008046457637561844
1403637143038319104,65.779925,581.6971802402439,9.373522958333332,-0.6456044583333332,-2.582417833333333,0.0006981317007977,0.0132645023151569,0.0851720674973232,0.02027217438268009,236.37092790235576,-0.01057925986467012
1403637143088318976,34.069299,582.6678348722508,9.447072833333332,-0.7028099166666667,-2.5905900416666663,-0.0034906585039886,0.0195476876223364,0.0747000919853573,0.008370288026190715,236.3657526169025,-0.00517528545324808
1403637143138319104,50.065279,582.1343697695916,9.422556208333331,-0.661948875,-2.574245625,-0.0006981317007977,0.0209439510239319,0.0816814089933346,0.009850128026471104,236.3613374118994,-0.0044152050031129875
1403637143188318976,65.480948,582.5862556844266,9.447072833333332,-0.63743225,-2.549729,-0.0034906585039886,0.0167551608191455,0.0795870138909414,0.01439315678046553,236.37501376572794,0.013676353828543597
1403637143238319104,34.556865,581.810631106156,9.455245041666666,-0.7191543333333333,-2.582417833333333,-0.0020943951023931,0.0167551608191455,0.08307767239493,0.010908593033936573,236.3781672245638,0.0031534588358681503
1403637143288318976,50.17376,581.8361899001882,9.414383999999998,-0.661948875,-2.557901208333333,-0.0020943951023931,0.0188495559215387,0.0705113017805709,0.028209931847708956,236.34760126727235,-0.030565957291457835
1403637143338319104,60.929537,581.9568194417674,9.479761666666668,-0.6537766666666667,-2.631451083333333,-0.0006981317007977,0.0272271363311115,0.0760963553869527,0.03350879080436994,236.35992115954804,0.012319892275684197
1403637143388318976,38.612127,582.0661315831318,9.422556208333331,-0.6701210833333332,-2.4843513333333336,-0.0006981317007977,0.0223402144255274,0.0872664625997164,0.03529112368137719,236.39582934448833,0.035908184940296906
1403637143438319104,61.071634,580.9972423414434,9.528794916666666,-0.7518431666666666,-2.574245625,0.0,0.0062831853071795,0.0726056968829641,0.009772790651974235,236.38446912164378,-0.01136022284455862
1403637143488318976,55.313349,580.9393936818894,9.291800875,-0.6946377083333333,-2.705000958333333,-0.0006981317007977,0.0307177948351002,0.0767944870877505,0.06436817436633446,236.33851019444947,-0.04595892719430594
1403637143538319104,44.457674,580.0681493690865,9.643205833333331,-0.6782932916666666,-2.4843513333333336,0.0,0.0209439510239319,0.0733038285837618,0.0924921667221524,236.41724899869212,0.07873880424264712
1403637143588318976,49.629212,582.7885076645417,9.283628666666663,-0.6946377083333333,-2.6151066666666667,0.0006981317007977,0.0069813170079773,0.0774926187885482,0.09470114712976237,236.3330237483493,-0.08422525034282557
1403637143638319104,38.842201,581.0514438160394,9.36535075,-0.6864655000000001,-2.655967708333333,0.0,0.0265290046303138,0.075398223686155,0.04146776193417431,236.3612631176674,0.02823936931810067
1403637143688318976,50.918817,582.5825047754154,9.455245041666666,-0.7028099166666667,-2.525212375,-0.0034906585039886,0.0188495559215387,0.0733038285837618,0.024091851868976128,236.3795272481102,0.01826413044281594
1403637143738319104,60.519934,582.6650933326653,9.46341725,-0.7109821249999999,-2.574245625,-0.0027925268031909,0.0216420827247296,0.0767944870877505,0.008921705387817285,236.3821746040283,0.0026473559180999473
1403637143788318976,55.64642,581.768810865568,9.389867375,-0.63743225,-2.631451083333333,-0.0034906585039886,0.0237364778271228,0.0767944870877505,0.037860032845647644,236.37214101881932,-0.010033585208987006
1403637143838319104,33.799409,582.3356946016297,9.520622708333333,-0.6292600416666666,-2.557901208333333,-0.0027925268031909,0.0244346095279206,0.0781907504893459,0.03256878794654853,236.40089805209666,0.028757033277344135
1403637143888318976,60.761214,581.6475362149909,9.422556208333331,-0.6456044583333332,-2.5415567916666664,0.0006981317007977,0.0111701072127637,0.0767944870877505,0.032467529409344324,236.38303975124612,-0.017858300850548403
1403637143938319104,49.759626,578.1304382215541,8.956740333333332,0.9152873333333332,-2.5905900416666663,-0.0132645023151569,-0.0153588974175501,0.0816814089933346,0.3707155344053524,236.11720736305193,-0.265832388194184
1403637143988318976,39.623737,579.5509885369462,9.863855458333331,-0.0081722083333333,-3.023717083333333,-0.0516617458590321,0.0013962634015954,0.1019272283164688,0.30480509524608396,236.3492066647268,0.23199930167487537
1403637144038319104,49.736977,578.3229881854653,9.790305583333332,-0.2778550833333333,-2.655967708333333,-0.0551524043630208,-0.0048869219055841,0.093549647906896,0.03207114786604386,236.33293926342654,-0.016267401300268602
1403637144088318976,67.435026,572.6491242078598,9.872027666666666,-0.612915625,-2.6641399166666666,-0.0530580092606276,-0.0048869219055841,0.0984365698124801,0.025433971842363647,236.33669542059422,0.0037561571676860694
1403637144138319104,32.65357,521.5048080215158,9.978266375,-1.789713625,-2.639623291666666,-0.1061160185212552,0.0328121899374933,0.0991347015132779,0.06362292476821807,236.290273875733,-0.04642154486123218
1403637144188318976,50.059557,544.8970251762328,9.455245041666666,-2.239185083333333,-2.3209071666666663,-0.0279252680319092,0.0167551608191455,0.0928515162060983,0.09727335323086755,236.3705581799266,0.08028430419361143
1403637144238319104,50.143481,556.3026855273419,9.994610791666668,-1.871435708333333,-2.754034208333333,-0.0069813170079773,0.0600393262686049,0.0914552528045028,0.0769666082666004,236.30244920804958,-0.0681089718770238
1403637144288318976,49.883842,571.8224388897816,9.430728416666666,-1.6099250416666664,-2.30456275,0.0118682389135614,0.0677187749773799,0.0705113017805709,0.07304233931110578,236.35833564067653,0.05588643262694859
1403637144338319104,72.291136,571.6736551472657,9.626861416666666,-1.3075533333333331,-2.69682875,0.0823795406941323,0.0418879020478639,0.0495673507566389,0.11755574490364523,236.25510993446898,-0.103225706207553
1403637144388318976,45.442104,531.9235100274782,9.128356708333332,0.0653776666666666,-2.557901208333333,0.0970403064108847,0.0237364778271228,0.0495673507566389,0.018026959800652536,236.26170513128062,0.00659519681164511
1403637144438319104,32.379151,552.6407458029375,8.654368624999998,-0.1062387083333333,-2.50069575,0.0628318530717958,0.0125663706143591,0.054454272662223,0.08129790210671135,236.18673210503135,-0.0749730262492676
1403637144488318976,50.215959,563.5261444057721,9.291800875,0.0,-2.745862,0.0453785605518525,0.0167551608191455,0.0642281164733913,0.02401892013236236,236.201616886702,0.014884781670644998
1403637144538319104,49.776554,576.9177459564753,9.1201845,-0.1879607916666666,-2.655967708333333,-0.0607374579694026,0.0118682389135614,0.1054178868204575,0.0201202255234052,236.1884790161902,-0.013137870511798155
1403637144588318976,49.995423,538.2182943567863,9.332661916666666,-3.4650163333333333,-2.3862848333333333,0.0349065850398865,0.0635299847725936,0.0551524043630208,0.20704911694465994,236.33302795308708,0.1445489368968822
1403637144638319104,60.689687,573.9625413817729,9.332661916666666,-0.661948875,-2.4108014583333333,0.0335103216382911,0.0376991118430775,0.0886627260013119,0.0450638334871515,236.3005738100518,-0.03245414303529515
1403637144688318976,39.059163,571.3227287464708,9.038462416666666,-1.593580625,-2.40262925,0.0726056968829641,0.0530580092606276,0.0481710873550434,0.0529844377091706,236.27513973242165,-0.025434077630137608
1403637144738319104,50.400257,507.25868081085866,9.103840083333331,0.563882375,-2.639623291666666,0.1033234917180643,0.0209439510239319,0.0356047167406843,0.05304469610230241,236.3246945937682,0.049554861346564394
1403637144788318976,49.894809,551.7873301912294,8.785123958333333,0.1470997499999999,-2.508867958333333,0.0453785605518525,0.0055850536063818,0.0558505360638185,0.12498770413448183,236.23073500803605,-0.0939595857321649
1403637144838319104,64.399958,565.5909648448843,9.259112041666668,0.1062387083333333,-2.69682875,0.0293215314335047,0.0,0.057246799465414,0.0612026610282275,236.277850864649,0.04711585661294748
1403637144888318976,46.056271,573.0680686369219,9.26728425,0.1307553333333333,-2.79489525,0.0041887902047863,0.0027925268031909,0.0628318530717958,0.08298849747405324,236.2134752104178,-0.06437565423118485
1403637144938319104,39.47401,579.9039016342105,9.332661916666666,0.3595771666666666,-2.6477955,-0.0537561409614253,-0.007679448708775,0.0914552528045028,0.07677958387865458,236.24915871792234,0.035683507504529643
1403637144988318976,65.427065,556.4586131844521,9.692239083333332,-0.3759215833333333,-2.9174783749999995,-0.1117010721276371,-0.0020943951023931,0.1361356816555577,0.04252076886132425,236.28152842979208,0.03236971186973392
1403637145038319104,34.461498,554.7398140475058,10.158054958333333,-0.53936575,-2.8602729166666667,-0.104021623418862,-0.0272271363311115,0.1019272283164688,0.05292613296702861,236.31517268436374,0.03364425457166931
1403637145088318976,50.101519,555.0240156199819,10.092677291666664,-0.9479761666666666,-2.729517583333333,-0.0747000919853573,-0.0083775804095727,0.1235693110411985,0.028861329564489224,236.35090087949186,0.0357281951281152
1403637145138319104,49.864769,554.490155997245,10.043644041666663,-0.980665,-2.803067458333333,-0.0705113017805709,0.0146607657167523,0.0956440430092892,0.11712577335962913,236.4285642208487,0.07766334135683906
1403637145188318976,49.972296,567.9315383995636,9.324489708333331,-1.32389775,-2.40262925,-0.0342084533390888,0.0216420827247296,0.0956440430092892,0.03833918642708978,236.39575734795403,-0.03280687289466755
1403637145238319104,50.179243,569.1670584999976,9.643205833333331,-1.0869037083333333,-2.4843513333333336,-0.0321140582366956,0.0118682389135614,0.0809832772925368,0.007768316516229383,236.39047754891794,-0.0052797990360886615
1403637145288318976,49.944639,579.1537728444742,9.56148375,-1.1441091666666665,-2.557901208333333,0.0083775804095727,0.0488692190558412,0.0851720674973232,0.009469221883039154,236.38469055192596,-0.005786996991986371
1403637145338319104,50.015688,578.4032883531693,9.226423208333332,-1.103248125,-2.3862848333333333,-0.0027925268031909,0.0397935069454707,0.0670206432765822,0.020944876298202506,236.36311084853335,-0.021579703392603733
1403637145388318976,60.239553,582.017980692119,9.414383999999998,-1.0215260416666667,-2.476179125,0.0118682389135614,0.0376991118430775,0.0712094334813686,0.011105684059028446,236.35919292859717,-0.003917919936185399
1403637145438319104,54.165364,581.433705993709,9.487933875,-0.7109821249999999,-2.557901208333333,0.0139626340159546,0.0397935069454707,0.0851720674973232,0.047591868639466885,236.3140358725045,-0.04515705609267684
1403637145488318976,46.274185,581.7489639953103,9.349006333333334,-0.784532,-2.5415567916666664,0.0027925268031909,0.0251327412287183,0.0677187749773799,0.04551517751880831,236.3461891633427,0.032153290838209614
1403637145538319104,49.774408,582.0271864667449,9.75761675,-1.005181625,-2.778550833333333,0.0195476876223364,0.0397935069454707,0.0635299847725936,0.05157977855020807,236.29998050214408,-0.04620866119861944
1403637145588318976,52.065849,579.0455456480266,9.030290208333332,-0.5965712083333333,-2.40262925,0.0244346095279206,0.0,0.0809832772925368,0.013306206531722445,236.3121865533222,0.012206051178111466
1403637145638319104,36.278964,581.3674422203898,9.226423208333332,-0.4086104166666666,-2.5905900416666663,0.007679448708775,0.0265290046303138,0.0600393262686049,0.03561213688930188,236.2747704549289,-0.03741609839329385
1403637145688318976,51.04804,581.5877236941391,9.528794916666666,-0.465815875,-2.680484333333333,0.0090757121103705,0.028623399732707,0.0844739357965255,0.054375529409701195,236.31054481990336,0.03577436497445774
1403637145738319104,50.037146,583.7517151974904,9.193734375,-0.4249548333333333,-2.59876225,-0.0034906585039886,0.0139626340159546,0.0795870138909414,0.017232364857622813,236.29698916671646,-0.013555653186898553
1403637145788318976,50.548553,584.6817445145049,9.103840083333331,-0.4086104166666666,-2.3454237916666667,-0.0174532925199432,0.0237364778271228,0.085870199198121,0.028057699676074875,236.27781310518242,-0.019176061534039945
1403637145838319104,60.109615,582.3014505035432,9.577828166666666,-0.784532,-2.606934458333333,-0.0139626340159546,0.0146607657167523,0.08307767239493,0.015050551847710529,236.27345529232372,-0.004357812858700072
1403637145888318976,39.356709,582.7662442337496,9.291800875,-0.8907707083333333,-2.50069575,-0.0020943951023931,0.0174532925199432,0.0851720674973232,0.029056905072482823,236.3051723018887,0.03171700956497148
1403637145938319104,50.046682,583.6149424151827,9.128356708333332,-0.6537766666666667,-2.427145875,0.0034906585039886,0.0062831853071795,0.0823795406941323,0.02864317310193227,236.3290683512318,0.02389604934310796
1403637145988318976,60.922861,583.1277722754879,9.46341725,-0.5557101666666666,-2.6641399166666666,-0.0006981317007977,0.0104719755119659,0.0795870138909414,0.03581965575440637,236.30513294839673,-0.02393540283506468
1403637146038319104,54.141283,581.9274611513504,9.299973083333333,-0.6537766666666667,-2.427145875,-0.007679448708775,0.025830872929516,0.0816814089933346,0.0464788182073102,236.2718828065069,-0.033250141889823226
1403637146088318976,45.572758,582.343843568812,9.504278291666663,-0.8253930416666666,-2.7213453750000003,0.0,0.0342084533390888,0.0726056968829641,0.0601976464001064,236.31721300681298,0.04533020030606849
1403637146138319104,39.142132,583.1644060499817,9.716755708333332,-0.7927042083333332,-2.672312125,0.0013962634015954,0.0216420827247296,0.0684169066781777,0.024272214827660326,236.3395768587048,0.022363851891810782
1403637146188318976,50.089836,580.806231056345,9.234595416666666,-0.4004382083333333,-2.7213453750000003,0.0146607657167523,0.0125663706143591,0.0537561409614253,0.08328189229706003,236.41722046770786,0.07764360900307565
1403637146238319104,49.969673,579.9470677439947,8.883190458333333,-1.1767979999999998,-2.353596,-0.0006981317007977,0.0069813170079773,0.1019272283164688,0.32688013702817065,236.6843279687008,0.26710750099294955
1403637146288318976,49.952984,567.5551737550262,9.193734375,-0.2778550833333333,-2.803067458333333,-0.0411897703470661,0.0300196631343024,0.1061160185212552,0.5867269625459992,236.24368556210715,-0.4406424065936676
1403637146338319104,49.971819,570.5298494793947,8.87501825,-1.0705592916666666,-2.288218333333333,-0.0439822971502571,0.0041887902047863,0.0397935069454707,0.37440316444038524,236.5402709957825,0.2965854336753466
1403637146388318976,50.076008,574.1928835958414,9.218251,-1.438308666666667,-2.231012875,-0.0390953752446729,0.0614355896702004,0.0747000919853573,0.3928571700016251,236.24616065544356,-0.294110340338932
1403637146438319104,50.394773,577.6088028552294,9.414383999999998,-1.52003075,-2.6477955,-0.0202458193231342,0.0174532925199432,0.0893608577021096,0.37221598804850387,236.5177068397017,0.2715461842581419
1403637146488318976,66.62345,581.5312331104446,9.872027666666666,-0.4249548333333333,-2.8602729166666667,-0.0027925268031909,0.0272271363311115,0.1186823891356144,0.32033925548661535,236.24812278199258,-0.26958405770912464
1403637146538319104,33.191681,579.0603662672954,9.912888708333332,-0.8662540833333333,-2.982856041666666,-0.0013962634015954,0.057246799465414,0.1047197551196597,0.3038989205976723,236.46732229618124,0.21919951418865935
1403637146588318976,54.270267,578.369713940248,9.953749749999998,-0.4331270416666666,-2.745862,0.0013962634015954,0.0383972435438752,0.1096066770252439,0.2903524056846366,236.224028058934,-0.24329423724722687
1403637146638319104,64.084053,579.257480078972,8.948568125,-1.0215260416666667,-2.3617682083333333,0.0006981317007977,0.0118682389135614,0.0809832772925368,0.2630952323472213,236.4166146325746,0.19258657364059673
1403637146688318976,32.018185,580.7583055912953,9.749444541666666,-0.4249548333333333,-2.69682875,0.0146607657167523,0.0244346095279206,0.1186823891356144,0.22898011257620846,236.2402989558087,-0.17631567676590976
1403637146738319104,49.788952,578.9881968390557,9.773961166666666,-1.1359369583333332,-2.8602729166666667,-0.0041887902047863,0.0062831853071795,0.0474729556542457,0.2245109759291387,236.41883217109617,0.178533215287473
1403637146788318976,50.263881,580.6120831078632,9.455245041666666,-0.7681875833333334,-2.5415567916666664,-0.0020943951023931,0.0314159265358979,0.0914552528045028,0.1539366476800241,236.30539523535762,-0.11343693573854807
1403637146838319104,48.811198,581.609134916105,9.316317499999998,-0.7600153749999999,-2.378112625,-0.0090757121103705,0.0216420827247296,0.0712094334813686,0.0775613454879045,236.3649978293682,0.05960259401058465
1403637146888318976,51.237344,579.1013657905161,9.700411291666663,-0.6456044583333332,-2.6641399166666666,-0.0006981317007977,-0.0090757121103705,0.114493598930828,0.023947041327892795,236.34592966638363,-0.01906816298458125
1403637146938319104,49.647332,580.393747497247,9.528794916666666,-0.4903325,-2.705000958333333,-0.0139626340159546,0.0321140582366956,0.0558505360638185,0.05157632081688002,236.380903379229,0.03497371284538531
1403637146988318976,48.979759,581.4757426412497,8.989429166666666,-0.3514049583333333,-2.353596,0.0055850536063818,0.0167551608191455,0.1242674427419962,0.018862758102508002,236.37714245650128,-0.0037609227277357604
1403637147038319104,50.712585,570.9803389594279,9.65955025,-1.1767979999999998,-2.427145875,-0.0432841654494593,0.0432841654494593,0.0837758040957278,0.039881145874765,236.35571886218742,-0.021423594313858985
1403637147088318976,50.181151,575.6990439354087,9.381695166666669,-0.9234595416666666,-2.5415567916666664,-0.0244346095279206,0.0055850536063818,0.1019272283164688,0.010820625905757213,236.36422799197078,0.008509129783362823
1403637147138319104,60.474157,576.2694002406895,9.308145291666667,-1.1441091666666665,-2.533384583333333,-0.0237364778271228,0.0349065850398865,0.08307767239493,0.024665808695922598,236.3751012317113,0.010873239740533336
1403637147188318976,39.395332,578.0451755506218,9.9047165,-1.1359369583333332,-2.8602729166666667,-0.0055850536063818,0.0153588974175501,0.0977384381116824,0.016586898980718513,236.3873470995857,0.012245867874383976
1403637147238319104,64.767838,580.6196486081626,9.398039583333333,-0.8172208333333333,-2.672312125,-0.0006981317007977,0.0237364778271228,0.0802851455917391,0.009874972526506372,236.3871402516282,-0.00020684795748593388
1403637147288318976,35.181999,579.7385898528421,8.956740333333332,-0.8417374583333332,-2.3454237916666667,0.0006981317007977,0.0209439510239319,0.0767944870877505,0.05370068451687928,236.35042986075666,-0.036710390871547816
1403637147338319104,50.036192,577.77059734129,8.817812791666666,-0.8008764166666666,-2.1983240416666665,-0.0027925268031909,0.0551524043630208,0.0474729556542457,0.04604296234793842,236.38931785221416,0.03888799145749999
1403637147388318976,50.157785,576.9571893773734,9.242767625,-0.612915625,-2.623278875,-0.0104719755119659,0.0607374579694026,0.0628318530717958,0.06746976296952589,236.34095960418753,-0.04835824802663069
1403637147438319104,49.727202,580.6344955403351,10.1008495,-0.8825985,-3.08909475,0.0013962634015954,0.036302848441482,0.0621337213709981,0.10226086816877446,236.4158326882598,0.07487308407226578
1403637147488318976,50.578356,579.8540955774183,9.765788958333331,-0.367749375,-2.8357562916666668,0.0020943951023931,0.0383972435438752,0.0802851455917391,0.09742080613240793,236.3455939391269,-0.07023874913289774
1403637147538319104,49.45898,580.6399048197786,10.027299625,-0.5720545833333333,-2.754034208333333,0.0020943951023931,-0.0048869219055841,0.1110029404268393,0.05273886190693953,236.36614071012337,0.02054677099647506
1403637147588318976,50.10891,580.3494589170234,10.207088208333332,-0.5557101666666666,-3.064578125,-0.0062831853071795,0.0279252680319092,0.0886627260013119,0.07192632338762062,236.31450129301803,-0.05163941710534914
1403637147638319104,60.397148,581.247165480526,9.994610791666668,-0.612915625,-2.9011339583333333,0.0006981317007977,0.036302848441482,0.0942477796076938,0.11788816885522632,236.40852507360418,0.09402378058615568
1403637147688318976,39.713621,581.3928042875312,9.610517,-0.3105439166666667,-2.5415567916666664,-0.0118682389135614,0.0453785605518525,0.0942477796076938,0.10234678384974537,236.33449445850886,-0.07403061509532449
1403637147738319104,60.379744,581.2810215287719,8.703401874999999,-0.8172208333333333,-2.1411185833333333,-0.0118682389135614,0.0460766922526503,0.0719075651821663,0.0357275979542586,236.3626090761128,0.028114617603932857
1403637147788318976,39.574861,581.3276422613029,9.144701125,-0.6047434166666666,-2.4189736666666666,-0.0174532925199432,0.0104719755119659,0.0642281164733913,0.0227707737370212,236.35439647929618,-0.008212596816605355
1403637147838319104,49.864769,581.4867988437451,8.907707083333333,-0.5066769166666666,-2.69682875,0.0006981317007977,-0.007679448708775,0.0809832772925368,0.0168580867380429,236.3681187824354,0.013722303139218184
1403637147888318976,60.436011,580.3284220678464,9.471589458333332,-0.7028099166666667,-2.549729,-0.0097738438111682,0.0349065850398865,0.0600393262686049,0.016400443994743247,236.37673757274396,0.008618790308560165
1403637147938319104,39.313316,582.0391270618085,9.643205833333331,-0.809048625,-2.672312125,-0.0104719755119659,0.0230383461263251,0.0677187749773799,0.014132466762047227,236.3746246305018,-0.002112942242149529
1403637147988318976,50.379991,580.3290685802987,9.643205833333331,-0.6210878333333334,-2.5170401666666664,-0.0027925268031909,0.0006981317007977,0.0677187749773799,0.020639001877836953,236.37029984271481,-0.0043247877869987406
1403637148038319104,60.40001,580.85021172657,9.357178541666666,-0.7927042083333332,-2.631451083333333,-0.0146607657167523,0.007679448708775,0.0579449311662117,0.011330238438399592,236.37308253999367,0.002782697278860269
1403637148088318976,50.092697,580.9263041361896,9.822994416666669,-0.7109821249999999,-2.9583394166666666,0.0048869219055841,0.0293215314335047,0.08307767239493,0.02461616978524888,236.37076108400404,-0.0023214559896302944
1403637148138319104,39.144516,578.4545440438666,9.144701125,-0.809048625,-2.4843513333333336,-0.0041887902047863,0.0272271363311115,0.0963421747100869,0.03136047720354767,236.39783064266106,0.027069558657018433
1403637148188318976,60.747862,579.781663114157,9.626861416666666,-0.2124774166666666,-2.7622064166666664,-0.0006981317007977,0.0502654824574366,0.075398223686155,0.08690990960870014,236.33387309400834,-0.06395754865272352
1403637148238319104,39.505243,580.6573126751815,10.1008495,-0.5557101666666666,-2.8602729166666667,0.0111701072127637,0.0,0.1089085453244461,0.1260988784677958,236.4427403608442,0.10886726683585835
1403637148288318976,49.889803,573.4804953596747,8.262102624999999,-0.3268883333333333,-2.1492907916666666,0.0195476876223364,0.0747000919853573,0.0949459113084915,0.0946348315061449,236.35383735298524,-0.08890300785895988
1403637148338319104,60.560941,579.9720680563697,10.035471833333334,-0.6782932916666666,-2.59876225,-0.0048869219055841,0.0733038285837618,0.0593411945678072,0.1181127071270526,236.4501351956897,0.09629784270447317
1403637148388318976,39.521456,580.0540047646211,10.386876791666666,-0.5066769166666666,-2.655967708333333,0.0307177948351002,0.0034906585039886,0.1165879940332212,0.10452166188512296,236.3730799090178,-0.0770552866719072
1403637148438319104,49.75915,578.476271353916,8.302963666666667,-0.0653776666666666,-1.871435708333333,-0.0062831853071795,0.0279252680319092,0.0314159265358979,0.01926352962438146,236.38219255339757,0.009112644379769108
1403637148488318976,50.207615,574.4070485744854,10.623870833333331,-0.8499096666666667,-3.097266958333333,0.0041887902047863,0.0670206432765822,0.0293215314335047,0.08608487507665898,236.44680207259077,0.06460951919319768
1403637148538319104,49.862623,572.7880095432495,10.288810291666666,-0.4494714583333333,-2.819411875,0.025830872929516,-0.0041887902047863,0.1242674427419962,0.07795140255068911,236.39094361707618,-0.05585845551459556
1403637148588318976,50.204515,569.2346105177782,9.357178541666666,0.1307553333333333,-3.1544724166666662,0.0516617458590321,0.0307177948351002,0.104021623418862,0.053389874199319266,236.43339860614626,0.04245498907008027
1403637148638319104,60.429335,574.3316439253992,9.724927916666667,-0.9234595416666666,-2.6641399166666666,0.0020943951023931,0.0698131700797731,0.0656243798749867,0.2762931056685915,236.67688790722988,0.24348930108362765
1403637148688318976,38.730144,568.0446325901565,9.07115125,-0.1797885833333333,-2.3944570416666666,0.0090757121103705,-0.0418879020478639,0.0446804288510548,0.18683078945171316,236.54876749528734,-0.12812041194254675
1403637148738319104,50.52352,572.4907520528392,8.016936375,-0.6537766666666667,-2.01036325,-0.0055850536063818,-0.0314159265358979,0.0719075651821663,0.2890048079053124,236.7964470018734,0.24767950658605287
1403637148788318976,50.159931,568.4164812211947,7.976075333333333,0.1144109166666666,-1.789713625,-0.0139626340159546,0.0788888821901436,0.0607374579694026,0.09918021054323707,236.7074055200802,-0.08904148179320259
1403637148838319104,54.928541,573.7650334177995,7.878008833333333,-0.563882375,-1.8796079166666664,0.0062831853071795,0.0837758040957278,0.0635299847725936,0.17379656400761495,236.83476515307444,0.12735963299425634
1403637148888318976,48.357249,570.9562992991895,8.77695175,-0.563882375,-2.1738074166666665,0.0356047167406843,-0.0670206432765822,0.0628318530717958,0.03386368875060471,236.83827763214552,0.0035124790710767684
1403637148938319104,47.029018,566.3542344025811,11.048825666666666,-0.0980665,-2.9256505833333333,0.0125663706143591,0.036302848441482,0.1123992038284348,0.21417702848399212,236.99718805732016,0.15891042517463916
1403637148988318976,60.572386,573.8701891880468,9.447072833333332,-0.8825985,-2.999200458333333,-0.0097738438111682,0.0767944870877505,0.0670206432765822,0.14762713165896912,236.93037209917946,-0.06681595814069397
1403637149038319104,55.424213,565.8747888067549,9.36535075,-0.44129925,-2.165635208333333,0.0321140582366956,0.0579449311662117,0.0740019602845595,0.3791992823854108,237.22588643867138,0.2955143394919162
1403637149088318976,33.663273,572.0583648096722,8.392857958333332,-1.372931,-1.846919083333333,-0.0237364778271228,0.0565486677646162,0.054454272662223,0.1438164618639819,237.18392985197204,-0.041956586699342324
1403637149138319104,60.883284,567.5891526137445,8.760607333333333,0.0817220833333333,-2.459834708333333,0.0202458193231342,0.0370009801422797,0.0251327412287183,0.14617794509598733,237.31278460752011,0.12885475554807613
1403637149188318976,39.343834,565.0387010716694,9.316317499999998,-0.956148375,-2.811239666666667,-0.0062831853071795,0.0307177948351002,0.1473057888683213,0.3134117304137064,237.5888605738126,0.2760759662924954
1403637149238319104,60.461521,562.4131234905306,8.907707083333333,-0.7518431666666666,-2.4516625,0.0488692190558412,0.018151424220741,0.0872664625997164,0.1051572034383415,237.643279576513,0.05441900270039923
1403637149288318976,39.349556,570.7043876126355,9.422556208333331,-1.062387083333333,-2.034879875,0.0139626340159546,-0.0474729556542457,0.0733038285837618,0.14907886834512224,237.79508950829177,0.15180993177875735
1403637149338319104,50.020933,564.4563130779507,9.046634625,-0.416782625,-2.288218333333333,0.0139626340159546,0.0565486677646162,0.0970403064108847,0.08201471615878676,237.87787683076868,0.08278732247691778
1403637149388318976,60.622692,569.0782581519878,9.594172583333334,-0.8499096666666667,-2.8766173333333334,0.0062831853071795,-0.0390953752446729,0.0802851455917391,0.16728313625479813,238.02087125299266,0.1429944222239783
1403637149438319104,50.135374,546.680574571525,8.825985,-0.6701210833333332,-2.5415567916666664,0.0425860337486616,0.0265290046303138,-0.0097738438111682,0.3817434689842536,238.36287267995365,0.3420014269609908
1403637149488318976,39.455652,562.7117009579728,10.378704583333333,-0.8907707083333333,-2.5170401666666664,-0.0167551608191455,0.007679448708775,0.0942477796076938,0.22913313658525736,238.58363980460996,0.2207671246563052
1403637149538319104,49.941302,531.6583876790289,9.545139333333331,-0.392266,-3.211677875,0.0914552528045028,-0.0914552528045028,0.0614355896702004,0.46248483638966664,238.95801052139922,0.37437071678925804
1403637149588318976,49.900055,401.4666417045971,8.662540833333333,-0.3268883333333333,-2.1166019583333333,0.0740019602845595,-0.1940806128217694,-0.0174532925199432,0.89052361167332,239.70856080619942,0.7505502848001981
1403637149638319104,51.263094,299.90679362519506,7.240576583333333,-0.24516625,-1.52003075,0.1947787445225671,-0.2534218073895766,-0.1347394182539622,2.1330088907981755,241.47827801930063,1.7697172131012167
1403637149688318976,49.248218,416.2532173039696,7.918869874999999,0.9479761666666666,-1.3075533333333331,0.179419847105017,0.0195476876223364,-0.0062831853071795,2.3493561887980685,243.5033520649164,2.0250740456157814
1403637149738319104,50.408125,469.682640776148,5.181180083333333,-0.8907707083333333,-0.2778550833333333,0.1026253600172665,0.1598721594826805,-0.0125663706143591,2.71502922062672,245.63312309693916,2.129771032022745
1403637149788318976,65.361738,476.98692707460685,10.730109541666666,-0.8825985,-4.306753791666666,0.1047197551196597,-0.0006981317007977,0.0719075651821663,2.212930409384896,247.29821044971607,1.665087352776908
1403637149838319104,45.660019,275.32020775518635,9.929233125,1.299381125,-2.606934458333333,0.0516617458590321,-0.260403124397554,0.1563815009786919,1.6846487096514706,248.423026606861,1.1248161571449202
1403637149888318976,38.648367,260.5512889564,11.179581,0.1144109166666666,-2.378112625,-0.0809832772925368,-0.278554548618295,-0.122173047639603,4.915530014036353,251.97958442034948,3.556557813488496
1403637149938319104,49.847126,259.6387297274925,10.329671333333332,-0.196133,-3.6202882916666654,-0.075398223686155,-0.3790855135331683,-0.0998328332140756,6.131396393294093,256.1454943113234,4.165909890973893
1403637149988318976,60.499668,241.0004703833067,8.392857958333332,-0.0408610416666666,-3.751043625,-0.0998328332140756,-0.4091051766674708,-0.1905899543177807,8.007664006449348,261.1158295266224,4.9703352152990306
1403637150038319104,39.43348,279.92718689961833,8.221241583333333,0.8580818749999999,-3.906315583333333,-0.1577777643802873,-0.2624975194999471,-0.1759291886010284,11.877271110202567,267.66851595490937,6.552686428286961
1403637150088318976,48.971653,292.1901543632857,11.955940791666666,-0.318716125,-4.053415333333333,-0.153588974175501,-0.1752310569002306,-0.0970403064108847,15.437833033818293,272.54901041376695,4.880494458857584
1403637150138319104,50.817728,292.82825464639603,8.850501625,0.9234595416666666,-3.4813607499999994,-0.1968731396249603,-0.0740019602845595,-0.1117010721276371,20.302277330900548,274.73347953785503,2.184469124088082
1403637150188318976,50.023794,278.7803613332136,10.550320958333334,-0.8907707083333333,-3.996209875,-0.15079644737231,0.007679448708775,-0.0223402144255274,24.391869716249246,272.9995523440051,-1.7339271938499223
1403637150238319104,49.953222,255.3258901715207,9.741272333333333,0.3595771666666666,-3.4404997083333333,-0.085870199198121,0.1689478715930511,0.0802851455917391,26.72985167521198,270.57707787079823,-2.4224744732068757
1403637150288318976,60.98628,249.5514947113732,8.817812791666666,0.6946377083333333,-2.525212375,-0.1103048087260416,0.1857030324121966,0.0872664625997164,30.50568558098488,263.7494802407112,-6.827597630087041
1403637150338319104,49.567461,225.74444582767472,10.2969825,-0.4903325,-3.8245935,-0.0551524043630208,0.3972369377539094,0.1940806128217694,31.373741634250248,251.2177969780643,-12.53168326264688
1403637150388318976,55.540085,227.48368137436177,8.768779541666666,0.6047434166666666,-3.072750333333333,-0.007679448708775,0.3874630939427411,0.1480039205691191,34.659861650862375,237.96737769438846,-13.250419283675853
1403637150438319104,33.357144,263.4350564361061,6.856482791666667,0.0735498749999999,-1.6753027083333332,-0.1270599695451872,0.2799508120198904,0.0404916386462684,32.28951184471526,225.10298420652668,-12.864393487861776
1403637150488318976,50.782919,320.01654996041606,9.079323458333333,-0.2288218333333333,-4.511059,-0.0879645943005142,0.1200786525372098,0.1968731396249603,28.49366249089853,213.37744467417292,-11.725539532353764
1403637150538319104,49.753427,354.6677200336877,10.713765125,-0.2369940416666666,-3.219850083333333,-0.0383972435438752,0.1242674427419962,0.0970403064108847,26.91445928430886,201.09070139456384,-12.286743279609084
1403637150588318976,60.478449,398.5265686615313,6.962721499999999,-0.5557101666666666,-1.7406803749999995,-0.0865683308989187,0.0774926187885482,0.0760963553869527,24.02194511263845,190.60097353388576,-10.489727860678073
1403637150638319104,39.213896,390.3386786319704,8.482752249999999,-0.0408610416666666,-3.0809225416666663,-0.0314159265358979,0.0439822971502571,0.1193805208364121,30.721819328416206,179.96115933473698,-10.639814199148788
1403637150688318976,50.216913,466.809121578077,10.983448,0.34323275,-5.426346333333333,-0.025830872929516,0.0314159265358979,0.0851720674973232,18.712825842868746,169.6709566833475,-10.290202651389478
1403637150738319104,49.792767,456.8033408605115,8.450063416666666,-0.0735498749999999,-2.083913125,-0.0691150383789754,0.1068141502220529,0.0390953752446729,14.510955561598863,165.97792989725838,-3.6930267860891206
1403637150788318976,50.073862,475.5844583414628,8.850501625,0.1797885833333333,-3.18716125,-0.0600393262686049,-0.0104719755119659,0.0684169066781777,17.05788566721743,158.60374487796463,-7.374185019293748
1403637150838319104,65.258979,414.51447660918274,10.795487208333332,0.2043052083333333,-4.249548333333333,-0.0111701072127637,0.2073451151369263,0.0621337213709981,16.49503479852158,152.0690529356179,-6.53469194234674
1403637150888318976,34.724713,390.568622488307,7.028099166666666,-0.5802267916666666,-2.018535458333333,-0.0230383461263251,0.2192133540504878,0.0551524043630208,15.865727899877646,146.18154637972503,-5.887506555892855
1403637150938319104,49.823999,423.5507527151588,8.842329416666665,-0.2124774166666666,-3.219850083333333,0.0041887902047863,0.122173047639603,0.1228711793404008,15.55620362109833,142.19556962878485,-3.985976750940182
1403637150988318976,50.274849,475.4160859850485,10.452254458333334,0.5230213333333333,-4.323098208333334,0.0104719755119659,0.1745329251994329,0.064926248174189,13.38218693008133,138.73125055315398,-3.4643190756308684
1403637151038319104,49.684525,457.9624191889743,7.992419749999999,0.2124774166666666,-2.9174783749999995,0.0090757121103705,0.2199114857512855,0.0565486677646162,10.851064144889257,135.95992680244123,-2.771323750712753
1403637151088318976,50.227165,466.8576065170083,8.7279185,0.1552719583333333,-2.7131731666666665,-0.0090757121103705,0.1549852375770964,0.0502654824574366,8.661295821160198,134.11916400916994,-1.8407627932712955
1403637151138319104,54.810524,542.3958184616436,9.684066875,0.3105439166666667,-4.151481833333333,0.0474729556542457,0.1186823891356144,0.054454272662223,8.067241163529529,132.48890584988905,-1.630258159280885
1403637151188318976,58.639765,746.7515540845716,9.406211791666664,0.3840937916666667,-3.407810875,0.0020943951023931,-0.0376991118430775,0.0886627260013119,7.0970178748561725,131.29990336783624,-1.189002482052814
1403637151238319104,36.419153,739.0685265984954,10.893553708333332,-0.416782625,-3.366949833333333,0.0614355896702004,-0.114493598930828,0.1123992038284348,6.764941596010286,130.1371421129485,-1.1627612548877266
1403637151288318976,66.365957,765.8540271852552,9.692239083333332,-0.1144109166666666,-2.20649625,0.075398223686155,-0.1647590813882647,0.171740398396242,7.296445939796225,128.9268328324494,-1.2103092804991036
1403637151338319104,44.526816,722.3907184997362,9.36535075,0.220649625,-4.16782625,0.1061160185212552,-0.1389282084587486,0.2317797246648469,8.588742166131356,127.6073209122898,-1.3195119201596128
1403637151388318976,49.876451,689.1846598865346,10.558493166666668,0.2778550833333333,-4.028898708333333,0.1096066770252439,-0.104021623418862,0.3427826650916863,8.878021297543167,126.2012324484,-1.4060884638897875
1403637151438319104,39.301157,841.8692504827474,11.097858916666665,-0.907115125,-2.639623291666666,0.0356047167406843,-0.0523598775598298,0.1263618378443894,9.867153898411763,124.97553349944003,-1.2256989489599732
1403637151488318976,50.084114,827.6535129709945,8.858673833333333,-0.024516625,-3.260711125,0.0202458193231342,-0.057246799465414,-0.0027925268031909,2.253151989833207,123.1378561173646,-1.8376773820754266
1403637151538319104,49.949885,790.4594201904839,7.976075333333333,0.024516625,-3.366949833333333,-0.057246799465414,-0.036302848441482,0.0097738438111682,1.8510669548517253,121.22203286591741,-1.9158232514471933
1403637151588318976,50.195694,973.6512078070574,7.50208725,-0.0898942916666666,-3.538566208333333,-0.0055850536063818,-0.0013962634015954,0.0383972435438752,4.847574026515946,120.03519817308894,-1.1868346928284694
1403637151638319104,49.881696,889.2110258852668,8.074141833333334,0.8499096666666667,-3.097266958333333,-0.018151424220741,0.0837758040957278,-0.0509636141582344,3.964196707952148,118.7172789537748,-1.317919219314149
1403637151688318976,50.102473,994.7797341442324,7.534776083333333,-0.1879607916666666,-3.1054391666666663,-0.0244346095279206,-0.0579449311662117,0.0614355896702004,2.9215999823344445,117.59849221070063,-1.1187867430741676
1403637151738319104,49.7303,1151.371381831693,9.635033625,0.220649625,-3.849110125,0.0272271363311115,0.0816814089933346,0.0530580092606276,4.041821156493139,116.89469331058588,-0.703798900114748
1403637151788318976,50.078393,1179.055098822422,9.013945791666666,-0.0817220833333333,-2.20649625,-0.0272271363311115,0.0090757121103705,0.0153588974175501,2.235513816879644,115.58763632082349,-1.307056989762387
1403637151838319104,49.960136,1174.3040491479646,11.024309041666667,0.7681875833333334,-3.538566208333333,0.0020943951023931,-0.0097738438111682,0.0677187749773799,1.953700023420158,114.82531509321979,-0.7623212276037066
1403637151888318976,50.238609,1180.5396179571917,9.422556208333331,0.0408610416666666,-2.655967708333333,-0.0111701072127637,0.0719075651821663,-0.0321140582366956,1.8585072901716224,114.09105159347064,-0.7342634997491473
1403637151938319104,49.634218,1279.8434134614322,9.945577541666664,-0.4903325,-4.731708625,0.0027925268031909,-0.0314159265358979,0.0970403064108847,1.6914959614991478,113.42941183842163,-0.6616397550490092
1403637151988318976,60.607195,1273.8061584561,8.67888525,0.3840937916666667,-3.505877375,0.0034906585039886,0.0104719755119659,0.0509636141582344,1.7542617464364192,112.74737773863058,-0.6820340997910534
1403637152038319104,39.491177,1309.4655880714051,9.430728416666666,-0.34323275,-3.2280222916666665,0.0418879020478639,0.0153588974175501,0.1082104136236484,2.118492652249783,111.92703194027933,-0.8203457983512408
1403637152088318976,50.228357,1251.5531656842022,10.509459916666668,0.1797885833333333,-3.603943875,0.0251327412287183,0.0230383461263251,0.0956440430092892,2.141798917273039,111.15355468313749,-0.7734772571418489
1403637152138319104,60.547114,1269.8550811891223,7.142510083333334,-0.4086104166666666,-3.342433208333333,0.0209439510239319,-0.0265290046303138,0.1235693110411985,2.656005641940262,110.23914119082481,-0.9144134923126757
1403637152188318976,50.210952,1224.8644925724811,8.654368624999998,-1.0296982499999998,-2.280046125,0.0132645023151569,0.0523598775598298,0.085870199198121,2.4844337718952185,109.41532576568642,-0.8238154251383918
1403637152238319104,38.336754,1350.831787493865,5.908506625,0.2941994999999999,-2.165635208333333,0.0265290046303138,-0.0020943951023931,0.1172861257340189,2.2718658474385403,108.60789160697655,-0.8074341587098672
1403637152288318976,50.696373,1335.8972734775011,8.115002875,-0.7600153749999999,-3.0400615,-0.0062831853071795,-0.0188495559215387,0.1647590813882647,7.239592077160552,109.92196337074718,1.3140717637706274
1403637152338319104,49.980164,1284.4738201655316,7.265093208333333,0.7518431666666666,-2.3454237916666667,0.0307177948351002,0.0600393262686049,0.0083775804095727,1.618840515628038,109.38394608365269,-0.5380172870944904
1403637152388318976,50.231695,1319.6513439131534,9.308145291666667,-0.0572054583333333,-3.67749375,-0.0174532925199432,-0.0139626340159546,0.0872664625997164,1.4656662593486112,108.89738656720085,-0.48655951645183393
1403637152438319104,49.819946,1362.97141037731,9.847511041666666,-0.7436709583333333,-3.28522775,-0.0237364778271228,-0.0370009801422797,0.0055850536063818,1.2556129128456022,108.47513460215535,-0.4222519650455041
1403637152488318976,65.898657,1361.5393976131172,7.837147791666666,0.5475379583333333,-2.435318083333333,0.0027925268031909,0.054454272662223,0.0984365698124801,1.1478218649562735,108.13250921332123,-0.3426253888341222
1403637152538319104,33.810854,1367.8950201731843,8.490924458333334,-0.2369940416666666,-3.5222217916666665,-0.0167551608191455,0.0083775804095727,0.0823795406941323,1.1088134062197157,107.8738559638612,-0.2586532494600249
1403637152588318976,49.277067,1320.2359366526427,9.177389958333332,0.0081722083333333,-1.9776744166666664,-0.0006981317007977,0.0956440430092892,-0.0090757121103705,1.1660464750313961,107.68150510188046,-0.19235086198074214
1403637152638319104,51.180125,1432.1868093068488,10.043644041666663,0.7273265416666667,-3.4813607499999994,0.0027925268031909,0.0216420827247296,0.1130973355292325,1.1639503591963478,107.49714307416802,-0.1843620277124387
1403637152688318976,60.361385,1261.200018378694,8.351996916666666,-0.612915625,-3.0564059166666664,-0.0390953752446729,0.0551524043630208,0.0516617458590321,0.9824635991804421,107.01641375932833,-0.4807293148396923
1403637152738319104,50.130844,1215.196690985121,9.667722458333332,-0.0817220833333333,-3.178989041666666,0.0642281164733913,0.1445132620651305,0.1186823891356144,1.0199136149768504,106.5535885597771,-0.4628251995512329
1403637152788318976,39.016247,1065.1792701923123,10.329671333333332,0.784532,-3.3015721666666664,-0.0251327412287183,0.1494001839707146,0.0900589894029074,1.1638561594751307,106.265972762926,-0.2876157968510995
1403637152838319104,60.914516,1131.907091378509,9.65955025,-0.8253930416666666,-4.2822371666666665,0.018151424220741,0.0558505360638185,0.1333431548523667,1.1810150390014544,105.74556460833406,-0.5204081545919337
1403637152888318976,39.41226,1038.2507152461626,8.490924458333334,0.6537766666666667,-4.502886791666667,0.0167551608191455,0.0928515162060983,-0.0118682389135614,1.4440229518465015,105.16844840917663,-0.5771161991574303
1403637152938319104,49.887896,951.5528212783051,10.525804333333332,-0.0735498749999999,-3.603943875,-0.0495673507566389,0.1500983156715123,-0.0300196631343024,1.4765969298303858,104.72695320455867,-0.441495204617965
1403637152988318976,50.108671,1236.235228986984,10.141710541666669,0.1879607916666666,-4.339442625,0.0502654824574366,0.0767944870877505,0.1019272283164688,7.911635719466398,107.10099240661582,2.3740392020571477
1403637153038319104,49.757719,1126.2798052553858,8.131347291666666,0.8989429166666666,-3.358777625,-0.0802851455917391,-0.0041887902047863,0.0593411945678072,1.835541214808788,106.49513007242555,-0.6058623341902631
1403637153088318976,65.911293,1225.119919036793,9.675894666666666,-0.93163175,-2.79489525,0.0,0.0272271363311115,0.0279252680319092,1.7660233235814928,105.8855218136443,-0.6096082587812504
1403637153138319104,33.255816,1295.6183675976306,6.995410333333333,0.8825985,-2.018535458333333,-0.0020943951023931,-0.0460766922526503,0.0677187749773799,1.6460873283243966,105.3270384756831,-0.5584833379612064
1403637153188318976,61.303854,1232.691858729231,8.09048625,0.3514049583333333,-3.366949833333333,-0.0342084533390888,-0.0523598775598298,0.0209439510239319,1.5249423674398026,104.7794756803295,-0.5475627953535991
1403637153238319104,39.555072,1169.6233715265175,8.507268875,0.2043052083333333,-3.38329425,0.0111701072127637,0.0307177948351002,-0.0090757121103705,1.413136244331276,104.27757083571198,-0.5019048446175134
1403637153288318976,61.062336,1227.0554346996223,10.207088208333332,0.5066769166666666,-3.391466458333333,-0.0237364778271228,0.0244346095279206,0.0474729556542457,1.3385054776320853,103.80807406232894,-0.4694967733830424
1403637153338319104,39.060116,1179.6491810254167,8.409202375,0.0735498749999999,-2.508867958333333,-0.054454272662223,0.0767944870877505,0.0251327412287183,1.2860694555410745,103.32937581387425,-0.4786982484546911
1403637153388318976,49.023628,1297.1944407245262,10.223432625,0.0,-4.053415333333333,0.0048869219055841,-0.0321140582366956,0.0446804288510548,1.261266375642656,102.87417070764384,-0.4552051062304088
1403637153438319104,55.881501,1271.316783202638,9.022118,0.122583125,-3.857282333333333,-0.0474729556542457,-0.0698131700797731,0.036302848441482,2.5431008690662447,103.41056606617963,0.5363953585357848
1403637153488318976,49.797535,1237.0877655927195,8.482752249999999,-1.348414375,-3.072750333333333,-0.0188495559215387,-0.104021623418862,-0.0167551608191455,1.3221778566671925,102.88736066494661,-0.5232054012330138
1403637153538319104,62.841415,1298.186031115722,8.891362666666666,0.1062387083333333,-3.947176625,0.025830872929516,-0.1061160185212552,0.093549647906896,1.3873530129907399,102.39141367508981,-0.4959469898568045
1403637153588318976,32.544375,1176.1173377371038,9.07115125,0.2043052083333333,-3.612116083333333,-0.0230383461263251,0.0293215314335047,0.1026253600172665,1.5281493172051324,101.88668140274414,-0.5047322723456631
1403637153638319104,49.864292,1098.3450752359151,10.190743791666666,0.2124774166666666,-3.881798958333333,0.0397935069454707,0.08307767239493,0.1242674427419962,1.7209832300097527,101.35124816634485,-0.5354332363992995
1403637153688318976,50.174474,1027.9501411818285,8.662540833333333,0.6864655000000001,-3.391466458333333,-0.0307177948351002,0.0411897703470661,0.0551524043630208,1.922560546753489,100.78845903746809,-0.5627891288767586
1403637153738319104,49.711705,919.1990500730016,7.510259458333333,-0.3595771666666666,-4.535575625,-0.0376991118430775,0.1277581012459849,0.0418879020478639,2.078285804794096,100.18599813609359,-0.6024609013744993
1403637153788318976,60.63056,986.2456416675312,8.850501625,0.1470997499999999,-2.8847895416666667,0.0404916386462684,0.0774926187885482,0.1766273203018261,2.065405202147118,99.56086342318076,-0.6251347129128249
1403637153838319104,55.140972,951.6414704680348,8.180380541666665,0.8008764166666666,-3.1544724166666662,-0.0027925268031909,0.1850049007113989,0.0097738438111682,1.8614812241492888,98.94580766168004,-0.6150557615007273
1403637153888318976,34.429073,1088.8525978577586,8.000591958333333,-0.5883989999999999,-2.9583394166666666,-0.0565486677646162,0.0621337213709981,0.1137954672300302,1.4847332935392568,98.37189754991951,-0.5739101117605259
1403637153938319104,49.550057,1063.0737523503417,9.855683249999998,0.0653776666666666,-3.342433208333333,0.0439822971502571,0.1117010721276371,0.1654572130890624,1.381526484544519,97.80954341378069,-0.562354136138822
1403637153988318976,50.549745,1185.9422698684418,7.624670374999999,0.1470997499999999,-2.868445125,-0.0209439510239319,0.0851720674973232,0.0328121899374933,1.135138907895119,97.39687129147589,-0.412672122304798
1403637154038319104,49.429178,1226.2521536333322,7.134337875,0.2043052083333333,-2.3699404166666667,0.0034906585039886,-0.0823795406941323,0.1382300767579508,0.9795897514293901,96.99869150541792,-0.3981797860579661
1403637154088318976,61.093569,1071.82002968247,9.013945791666666,0.171616375,-3.5222217916666665,0.0439822971502571,-0.1200786525372098,0.1954768762233649,0.8299409176769539,96.66031673413204,-0.3383747712858849
1403637154138319104,38.674116,928.6126585053554,6.913688249999999,1.12776475,-1.6998193333333331,0.1012290966156711,-0.1333431548523667,0.3351032163829112,0.6868288736885833,96.32376043730979,-0.33655629682225197
1403637154188318976,61.371327,735.3714396754439,9.75761675,-1.2830367083333332,-3.612116083333333,0.0921533845053006,-0.2387610416728242,0.4879940588576146,0.701906426237358,96.03284215634287,-0.2909182809669204
1403637154238319104,38.976669,1053.3233626988458,7.518431666666666,0.73549875,-2.2473572916666664,0.0816814089933346,-0.054454272662223,0.2883283924294632,0.7665847837235297,95.73745016974425,-0.29539198659861654
1403637154288318976,52.119017,1055.8200260473077,8.654368624999998,0.0817220833333333,-2.5415567916666664,0.0621337213709981,-0.0719075651821663,0.2666863097047335,0.901327514966049,95.41697046855852,-0.3204797011857323
1403637154338319104,48.981428,1079.5234808018893,11.048825666666666,0.1389275416666666,-4.323098208333334,-0.0586430628670094,-0.0844739357965255,0.0495673507566389,1.0447183431236238,95.03153501143828,-0.38543545712023786
1403637154388318976,61.919451,891.3646418163092,8.572646541666666,-0.3350605416666666,-2.557901208333333,-0.0677187749773799,0.1850049007113989,-0.1019272283164688,1.1976560925712483,94.52328872217703,-0.5082462892612511
1403637154438319104,55.835962,788.7562820638266,9.684066875,0.1307553333333333,-2.7131731666666665,-0.0593411945678072,0.1570796326794896,-0.0907571211037051,1.2914760631627766,93.91905214715851,-0.6042365750185184
1403637154488318976,32.388687,871.4861386268117,8.801468374999999,1.1114203333333332,-3.334261,-0.075398223686155,0.1891936909161853,-0.1207767842380075,1.3358927758196866,93.30338497109038,-0.6156671760681292
1403637154538319104,61.796665,857.4388679832506,9.65955025,-0.2369940416666666,-3.1299557916666663,-0.1556833692778942,-0.0453785605518525,-0.0726056968829641,1.4643559305499936,92.57335102969495,-0.7300339413954333
1403637154588318976,53.178549,824.6763748272482,7.902525458333333,-0.1552719583333333,-4.192342875,-0.0998328332140756,0.1214749159388053,-0.1368338133563554,1.7934863523950189,92.06139851802703,-0.5119525116679142
1403637154638319104,46.325207,797.8294256681748,9.381695166666669,0.220649625,-3.979865458333333,-0.1061160185212552,-0.0921533845053006,-0.0767944870877505,1.5196779262194637,91.28207912562118,-0.7793193924058528
1403637154688318976,37.501573,737.4086416539785,9.888372083333332,-0.5475379583333333,-2.280046125,-0.1731366617978375,-0.0893608577021096,-0.1033234917180643,1.489342564284078,90.48398529970058,-0.7980938259206027
1403637154738319104,50.372362,768.4853706927357,9.667722458333332,1.0215260416666667,-3.751043625,-0.1982694030265558,-0.1123992038284348,-0.0125663706143591,1.4896574917172907,89.75977036172539,-0.7242149379751908
1403637154788318976,50.419093,638.4091915798463,10.509459916666668,-0.6946377083333333,-4.208687291666666,-0.2303834612632515,-0.1689478715930511,0.124965574442794,1.4566168525749201,89.05317693093176,-0.7065934307936317
1403637154838319104,48.774957,645.0843085281297,9.242767625,-0.1062387083333333,-3.554910625,-0.2122320370425104,-0.1591740277818828,0.1647590813882647,1.3984903465253824,88.32224675499944,-0.7309301759323148
1403637154888318976,50.004483,724.6921314485988,9.618689208333333,0.5883989999999999,-4.36395925,-0.2478367537831947,-0.1200786525372098,0.0537561409614253,1.350593121791901,87.57561974499296,-0.7466270100064776
1403637154938319104,61.530113,732.461484072142,9.414383999999998,-0.6701210833333332,-3.603943875,-0.1947787445225671,-0.0523598775598298,0.2192133540504878,1.3714394516619999,86.88464541201222,-0.6909743329807441
1403637154988318976,38.551092,796.617435793992,10.533976541666666,-0.4004382083333333,-3.849110125,-0.1396263401595463,0.0146607657167523,0.179419847105017,2.188497536081836,86.77180562451385,-0.11283978749837331
1403637155038319104,66.217661,651.4887083133583,10.468598874999998,0.0980665,-3.293399958333333,-0.2429498318776106,0.1424188669627373,0.1654572130890624,2.0109298782773686,86.45542043919143,-0.31638518532241733
1403637155088318976,45.455456,502.9059299880109,11.253130874999998,-0.8744262916666666,-4.1024485833333335,-0.2834414705238791,0.2981022362406315,0.1766273203018261,2.5130193989295098,86.53290816202434,0.07748772283291316
1403637155138319104,39.148569,537.8794256376895,9.496106083333332,0.7600153749999999,-4.592781083333333,-0.2303834612632515,0.2492330171847902,0.2359685148696333,2.528414114035784,86.42155004366725,-0.11135811835708864
1403637155188318976,65.080166,615.5294269908566,9.062979041666669,-0.63743225,-4.069759749999999,-0.239459173373622,0.1480039205691191,0.1891936909161853,2.692459828017481,86.53928554172744,0.1177354980601848
1403637155238319104,44.983625,526.7554379957154,10.207088208333332,-0.0735498749999999,-2.966511625,-0.124965574442794,0.1864011641129944,0.1647590813882647,2.833929166353156,86.61524869568564,0.07596315395819886
1403637155288318976,39.844036,611.9333567853728,9.839338833333333,-0.1470997499999999,-2.655967708333333,-0.1494001839707146,0.2171189589480945,0.0949459113084915,2.566364468113446,85.92392774155975,-0.6913209541258851
1403637155338319104,50.107956,676.5690724452136,8.294791458333332,0.2778550833333333,-2.2963905416666663,-0.1633628179866692,0.1298524963483781,0.1633628179866692,2.9188585746414435,85.78904164993625,-0.13488609162349974
1403637155388318976,49.925089,597.0057702701191,11.343025166666669,0.0653776666666666,-4.0125542916666666,-0.1752310569002306,0.1382300767579508,0.210835773640915,3.5951547510197157,86.61545820977977,0.8264165598435227
1403637155438319104,60.297489,637.3944425660807,8.098658458333333,0.04903325,-2.9583394166666666,-0.3022910264454179,0.0914552528045028,0.1989675347273535,2.5661201988607094,86.41608912400105,-0.19936908577872714
1403637155488318976,39.504528,668.4034721061063,8.858673833333333,-0.53936575,-3.9880376666666666,-0.2562143341927675,0.1375319450571531,0.2988003679414292,2.3267661557337664,86.25025751830347,-0.16583160569757638
1403637155538319104,60.67729,765.6762635529839,7.273265416666667,0.196133,-4.086104166666667,-0.2303834612632515,0.0034906585039886,0.2492330171847902,1.9727454723172426,86.0521691087165,-0.1980884095869726
1403637155588318976,39.126873,757.7226284753657,8.866846041666665,0.0980665,-2.9011339583333333,-0.1940806128217694,0.1179842574348166,0.3169517921621702,1.7052794896201193,85.83340779792499,-0.21876131079150696
1403637155638319104,50.139427,776.6904162010054,8.605335375,-0.0326888333333333,-3.048233708333333,-0.1843067690106012,-0.0767944870877505,0.3106686068549906,1.4778617860525853,85.54840611904152,-0.28500167888347505
1403637155688318976,50.112009,783.2439467417804,9.357178541666666,0.4903325,-4.404820291666666,-0.1905899543177807,0.0397935069454707,0.2492330171847902,1.1629859855504623,85.17598874626144,-0.37241737278007747
1403637155738319104,54.673672,768.8269600433307,8.343824708333333,-0.04903325,-2.043052083333333,-0.228987197861656,-0.0104719755119659,0.2541199390903744,1.1067970217706125,84.8922061145787,-0.2837826316827403
1403637155788318976,47.918797,764.9844377419363,9.749444541666666,0.63743225,-3.0318892916666664,-0.2673844414055313,0.0733038285837618,0.3050835532486088,1.0623360011022378,84.62179428460567,-0.27041182997302826
1403637155838319104,47.349214,681.1276511023977,7.322298666666667,0.2124774166666666,-3.3751220416666667,-0.3658210112180114,-0.0418879020478639,0.3169517921621702,7.6909845385230335,89.36433807249472,4.742543787889048
1403637155888318976,50.048351,579.8426710361894,9.831166624999998,0.4004382083333333,-2.79489525,-0.4314453910929983,0.0069813170079773,0.1591740277818828,1.2002652385050363,89.05232618409242,-0.31201188840229577
1403637155938319104,50.142527,582.5036014775892,9.814822208333332,0.2043052083333333,-3.751043625,-0.4433136300065596,-0.0216420827247296,0.2687807048071267,1.2882557611638887,88.69253472178556,-0.359791462306859
1403637155988318976,49.918413,626.0672843781524,9.422556208333331,0.7191543333333333,-2.6886565416666666,-0.4461061568097506,0.0691150383789754,0.2450442269800038,1.3585350172972412,88.3054259582226,-0.38710876356296353
1403637156038319104,49.886942,639.5456518056653,9.888372083333332,-0.4086104166666666,-3.097266958333333,-0.4237659423842232,0.1382300767579508,0.325329372571743,1.4346267194000197,87.89811098384155,-0.4073149743810518
1403637156088318976,49.02482,714.5684258637399,11.302164125,0.7109821249999999,-3.4568441249999995,-0.4265584691874141,0.0670206432765822,0.3839724354387525,1.4024923374014509,87.48921128565405,-0.40889969818749705
1403637156138319104,50.86875,662.1831714324009,7.412192958333333,-0.6537766666666667,-2.3454237916666667,-0.5138249317871306,0.1172861257340189,0.2701769682087222,1.6093618767515558,87.12482938176377,-0.36438190389027625
1403637156188318976,51.827192,685.6814695298045,10.133538333333334,-0.220649625,-2.1411185833333333,-0.4495968153137393,0.1417207352619395,0.3686135380212024,2.2681804390047593,86.77930979887151,-0.3455195828922655
1403637156238319104,49.62492,683.9198704163554,10.525804333333332,-0.5148491249999999,-4.2168595,-0.5424483315198376,0.0705113017805709,0.3120648702565861,1.8074215312976933,86.31512091739305,-0.4641888814784636
1403637156288318976,49.503088,692.3662815922711,7.559292708333333,0.1062387083333333,-3.4977051666666665,-0.5173155902911193,0.0642281164733913,0.3281218993749339,1.9722552483708065,85.8080158343048,-0.5071050830882484
1403637156338319104,61.525822,693.4790601414538,9.945577541666664,0.220649625,-3.759215833333333,-0.5138249317871306,0.1075122819228507,0.2778564169174973,2.1273453178795103,85.34867785569813,-0.45933797860666914
1403637156388318976,38.314104,697.6169764719758,8.67888525,-0.34323275,-2.745862,-0.5592034923389831,0.0328121899374933,0.2611012560983517,2.014706460384683,84.7300747502284,-0.618603105469731
1403637156438319104,49.725533,719.6015897618172,8.605335375,0.6292600416666666,-4.568264458333333,-0.5522221753310059,0.08307767239493,0.2694788365079245,2.476132183240697,84.18176736633403,-0.5483073838943682
1403637156488318976,61.678648,704.4373204035692,9.046634625,0.0817220833333333,-1.9041245416666663,-0.518013721991917,0.1382300767579508,0.2590068609959585,2.480160573009205,83.61091237547701,-0.5708549908570149
1403637156538319104,38.773059,693.63659350958,8.744262916666667,-0.0898942916666666,-3.3751220416666667,-0.5452408583230285,0.0153588974175501,0.3050835532486088,3.5146374191106022,84.31536534331457,0.704452967837554
1403637156588318976,49.860478,700.0521862805786,7.657359208333333,-0.04903325,-3.4323274999999995,-0.5696754678509492,0.0865683308989187,0.1647590813882647,2.625479331764214,83.6525138767694,-0.6628514665451632
1403637156638319104,49.927473,705.0458303553405,7.665531416666666,0.5720545833333333,-4.028898708333333,-0.5298819609054785,0.1172861257340189,0.2234021442552742,2.7133851081078757,82.94011638513183,-0.7123974916375744
1403637156688318976,65.290689,696.1148483993601,7.984247541666667,-1.2748645,-3.334261,-0.5738642580557356,0.1186823891356144,0.1375319450571531,2.8743617003428037,82.24535598049339,-0.6947604046384441
1403637156738319104,45.313836,726.9298944451218,8.989429166666666,0.1634441666666666,-3.963521041666666,-0.4586725274241098,0.0104719755119659,0.1668534764906579,2.7730857820947614,81.42849184394568,-0.8168641365477072
1403637156788318976,50.443887,632.8147576052287,9.487933875,-0.0326888333333333,-3.334261,-0.4412192349041665,-0.0230383461263251,0.018151424220741,2.855411622975385,80.69419813110528,-0.7342937128403975
1403637156838319104,38.535118,609.5628817884794,8.28661925,-0.465815875,-3.979865458333333,-0.403520123061089,-0.1305506280491758,-0.0083775804095727,3.1605016811769646,79.87066073699131,-0.8235373941139699
1403637156888318976,50.02594,694.6615355191516,9.863855458333331,-0.1797885833333333,-4.233203916666667,-0.2820452071222836,-0.1110029404268393,0.018151424220741,3.1583380775323597,79.10737753382988,-0.7632832031614356
1403637156938319104,49.939394,709.4603323364641,9.095667875,-0.784532,-4.2168595,-0.2834414705238791,-0.0034906585039886,-0.0335103216382911,3.142807241214022,78.46331750493408,-0.6440600288957938
1403637156988318976,50.178767,764.232407502834,7.739081291666666,-0.0163444166666666,-2.459834708333333,-0.1368338133563554,-0.0460766922526503,0.0251327412287183,3.124388314364063,77.64431912012593,-0.8189983848081539
1403637157038319104,49.965143,874.0045388179786,9.5124505,-0.5311935416666667,-3.8164212916666655,-0.0781907504893459,-0.1487020522699168,0.1654572130890624,2.967323902038038,76.79048876196256,-0.8538303581633642
1403637157088318976,50.221681,926.139275642711,9.185562166666664,0.6537766666666667,-2.1738074166666665,-0.0328121899374933,-0.0237364778271228,0.1424188669627373,2.9737014751983026,75.95701861710629,-0.8334701448562782
1403637157138319104,50.013543,1077.524766603202,9.07115125,-0.2615106666666666,-3.064578125,0.0328121899374933,-0.0502654824574366,0.153588974175501,3.0856794005710406,75.16021172223815,-0.7968068948681406
1403637157188318976,60.961008,1141.0052157182693,9.937405333333334,0.4004382083333333,-4.75622525,0.0027925268031909,0.057246799465414,0.1675516081914556,3.0185497978701745,74.28145275112433,-0.8787589711138111
1403637157238319104,38.589239,1118.1232867789606,10.983448,-0.3350605416666666,-4.445681333333333,0.0579449311662117,0.0460766922526503,0.1933824811209717,3.0648172831569775,73.50041544069633,-0.7810373104280046
1403637157288318976,49.006462,1125.353642760047,9.218251,-0.1797885833333333,-2.5415567916666664,0.085870199198121,0.0265290046303138,0.1703441349946465,3.3575667367810285,72.67929365920305,-0.8211217814932752
1403637157338319104,61.969757,1130.3643630180627,9.185562166666664,0.220649625,-2.3454237916666667,0.0726056968829641,0.0411897703470661,0.1445132620651305,3.2678129731429832,71.81064485646894,-0.8686488027341142
1403637157388318976,38.234949,1003.481647393667,10.713765125,-0.0735498749999999,-3.857282333333333,0.1494001839707146,0.0083775804095727,0.3134611336581816,3.5555195245579556,70.91524434693366,-0.8954005095352784
1403637157438319104,50.725937,1101.383416305894,9.398039583333333,-0.24516625,-5.066769166666667,0.1214749159388053,-0.0432841654494593,0.2164208272472968,3.536197637138548,69.90957940330249,-1.0056649436311744
1403637157488318976,50.07863,1073.208113130425,9.013945791666666,-0.2043052083333333,-2.7867230416666664,0.0872664625997164,0.1235693110411985,0.1291543646475804,3.84732615796279,68.92338037256582,-0.986199030736671
1403637157538319104,60.732603,1118.7742865591572,11.923251958333331,-0.0408610416666666,-3.685665958333333,0.1263618378443894,0.0733038285837618,0.1731366617978375,4.254036294643637,67.97820147564218,-0.9451788969236361
1403637157588318976,39.261818,1151.8880465456407,9.357178541666666,-0.1879607916666666,-2.999200458333333,0.0509636141582344,-0.0621337213709981,0.036302848441482,4.606287702482124,67.04973880727304,-0.9284626683691357
1403637157638319104,49.918413,1169.135916241853,8.817812791666666,0.0408610416666666,-3.652977125,0.0523598775598298,0.0265290046303138,0.0628318530717958,4.864306394487175,66.06695967642159,-0.9827791308514549
1403637157688318976,50.093651,1122.468975682525,10.109021708333332,-0.9970094166666666,-2.50069575,0.0663225115757845,0.0481710873550434,0.1026253600172665,4.880320903244352,64.58471210740983,-1.4822475690117614
1403637157738319104,50.004244,1112.5373947221071,11.32668075,-0.9152873333333332,-4.993219291666667,0.0530580092606276,0.1068141502220529,0.0600393262686049,5.385762226904599,63.604508522194834,-0.9802035852149942
1403637157788318976,49.865484,900.645363492116,8.825985,-0.7109821249999999,-2.6477955,-0.0104719755119659,0.0788888821901436,-0.0816814089933346,5.575499073346132,62.385299453734355,-1.2192090684604793
1403637157838319104,49.98827,886.8078488245217,9.5124505,0.0163444166666666,-3.415983083333333,-0.0216420827247296,0.1459095254667259,-0.0048869219055841,5.392190779812883,61.054517121280696,-1.3307823324536585
1403637157888318976,49.916029,743.677623246554,8.368341333333333,0.0898942916666666,-2.40262925,-0.028623399732707,0.2261946710584651,-0.0907571211037051,5.65837369654982,59.786109897474894,-1.2684072238058022
1403637157938319104,60.315609,875.7454201583821,9.610517,-0.53936575,-4.028898708333333,-0.0230383461263251,0.1291543646475804,-0.0279252680319092,5.7453333522961305,58.47348615205694,-1.3126237454179517
1403637157988318976,62.142134,892.1027128111482,9.26728425,0.220649625,-3.2525389166666665,-0.0132645023151569,0.1724385300970397,-0.0390953752446729,5.786300102114306,57.18781376824905,-1.285672383807892
1403637158038319104,45.019626,592.6117235962714,11.269475291666666,-0.44129925,-3.612116083333333,-0.1103048087260416,0.0397935069454707,-0.1549852375770964,5.915173933583433,55.94041625525594,-1.2473975129931105
1403637158088318976,32.635451,676.4307723684728,8.77695175,-0.5066769166666666,-3.097266958333333,0.0062831853071795,0.0586430628670094,-0.0411897703470661,5.887372604286356,54.5401149523185,-1.400301302937443
1403637158138319104,49.785375,698.4793685444063,10.182571583333331,0.465815875,-1.7243359583333333,0.0132645023151569,0.0837758040957278,0.028623399732707,5.984564489427028,53.21434200884331,-1.3257729434751866
1403637158188318976,50.195933,689.2799598801756,10.501287708333331,-0.44129925,-3.661149333333333,-0.0020943951023931,0.0781907504893459,0.0844739357965255,5.955711091892575,51.80096294353454,-1.4133790653087672
1403637158238319104,49.642324,629.1635280771343,9.26728425,0.0081722083333333,-4.437509125,-0.1012290966156711,-0.0816814089933346,0.0740019602845595,6.141892270585694,50.43054923020842,-1.3704137133261227
1403637158288318976,50.353766,605.9637366041248,10.198916,0.3514049583333333,-2.30456275,-0.1340412865531645,-0.036302848441482,0.0865683308989187,6.237729051109387,49.237357169883,-1.1931920603254227
1403637158338319104,49.759149,342.7960725402372,7.493915041666666,-0.0735498749999999,-2.263701708333333,-0.2073451151369263,0.0537561409614253,0.1487020522699168,6.620607183863917,48.14433297411784,-1.0930241957651603
1403637158388318976,60.836315,332.18816129060565,10.329671333333332,0.6701210833333332,-4.225031708333333,-0.2031563249321399,0.0432841654494593,0.2687807048071267,6.52425291350308,46.95583681961777,-1.188496154500065
1403637158438319104,39.319754,290.2625494735668,6.938204874999999,-0.4331270416666666,-2.4189736666666666,-0.2925171826342496,0.093549647906896,0.2101376419401172,5.72228535236242,44.990280956875104,-1.9655558627426686
1403637158488318976,50.035477,290.82614125875125,7.420365166666667,1.0950759166666666,-3.407810875,-0.3029891581462156,0.0900589894029074,0.2981022362406315,6.483131321512047,43.867876276127966,-1.1224046807471382
1403637158538319104,49.185991,261.8356384883366,9.569655958333334,-0.6292600416666666,-3.3751220416666667,-0.3553490357060455,-0.0160570291183478,0.4384267081009756,6.322221269320815,42.57303350084052,-1.2948427752874423
1403637158588318976,50.922155,266.0062842686491,8.703401874999999,-0.5066769166666666,-3.4813607499999994,-0.2974041045398337,-0.0272271363311115,0.390255620745932,6.52159395492396,41.3602829431903,-1.2127505576502244
1403637158638319104,49.138308,242.3052326939774,9.283628666666663,-0.4004382083333333,-2.9338227916666666,-0.450294947014537,0.1298524963483781,0.3497639820996636,6.752995666571461,40.42396467884116,-0.9363182643491399
1403637158688318976,60.900211,255.8576767581855,9.349006333333334,0.220649625,-4.535575625,-0.4300491276914028,0.0809832772925368,0.3518583772020568,6.7187376734633455,39.34076415805525,-1.0832005207859083
1403637158738319104,39.596081,239.01351453993055,7.60015375,-0.956148375,-2.1983240416666665,-0.4768239516448508,-0.0516617458590321,0.2485348854839925,6.7657450395765855,38.36096958597239,-0.9797945720828594
1403637158788318976,49.908638,241.3955865153324,10.182571583333331,0.6864655000000001,-2.974683833333333,-0.3755948550291797,-0.0446804288510548,0.2017600615305445,6.492561345810108,36.961206730118626,-1.3997628558537656
1403637158838319104,50.225973,239.3031671919602,8.77695175,-1.2340034583333332,-3.1054391666666663,-0.333008821280518,0.0097738438111682,0.1438151303643327,6.788332648027243,36.00464669222968,-0.9565600378889485
1403637158888318976,60.529709,247.92778441099549,10.550320958333334,-0.5148491249999999,-3.505877375,-0.249931148885588,0.0062831853071795,0.057246799465414,6.7441546748043955,34.9993618519067,-1.0052848403229788
1403637158938319104,38.544417,236.91190762735263,9.103840083333331,0.24516625,-3.097266958333333,-0.2492330171847902,-0.1186823891356144,-0.0055850536063818,6.767978564442048,34.01795132229779,-0.9814105296089082
1403637158988318976,61.241626,245.34279542746347,9.030290208333332,-0.3268883333333333,-3.7673880416666665,-0.2485348854839925,-0.0390953752446729,-0.007679448708775,6.68736374241507,32.871099784857115,-1.146851537440675
1403637159038319104,50.740958,253.7465547740302,12.536167583333333,-1.005181625,-4.445681333333333,-0.1389282084587486,0.0460766922526503,-0.0530580092606276,6.888115033167338,31.788938264560002,-1.082161520297113
1403637159088318976,39.389133,263.1539330815226,9.9047165,-0.3595771666666666,-4.069759749999999,-0.0900589894029074,-0.025830872929516,0.1549852375770964,7.328244444850779,31.04216515836803,-0.7467731061919736
1403637159138319104,49.818516,276.46852550776947,6.7502440833333335,0.661948875,-2.754034208333333,0.0139626340159546,0.0272271363311115,0.2450442269800038,6.869215124780395,29.904905369436026,-1.1372597889320026
1403637159188318976,50.025463,289.5890633568746,7.518431666666666,-0.8008764166666666,-3.7919046666666665,0.0509636141582344,-0.0160570291183478,0.2750638901143063,6.867025911152276,28.8074623578018,-1.0974430116342262
1403637159238319104,50.00782,299.4629078180887,10.558493166666668,0.367749375,-2.9338227916666666,0.0488692190558412,0.0300196631343024,0.1912880860185785,6.929313485279216,27.722980070915064,-1.084482286886736
1403637159288318976,48.812151,317.3613859543139,6.913688249999999,-0.5883989999999999,-2.124774166666666,0.028623399732707,-0.0195476876223364,0.171740398396242,6.895926326922094,26.712125535293207,-1.0108545356218563
1403637159338319104,50.85659,311.64046431552623,8.237585999999999,-0.2778550833333333,-2.9583394166666666,0.0837758040957278,0.0705113017805709,0.2220058808536787,7.055332330105622,25.75805011211154,-0.954075423181667
1403637159388318976,65.577746,317.6524538375158,8.237585999999999,-0.4985047083333333,-2.0675687083333334,0.0586430628670094,0.075398223686155,0.0453785605518525,7.17364623411364,24.843101985178645,-0.9149481269328952
1403637159438319104,33.756733,298.63266967312944,10.386876791666666,-0.5883989999999999,-2.754034208333333,0.0174532925199432,-0.0083775804095727,0.0460766922526503,7.308572338202411,23.715677931878968,-1.127424053299677
1403637159488318976,61.225176,307.4551832594535,7.910697666666666,0.1389275416666666,-2.8602729166666667,0.0041887902047863,0.0474729556542457,-0.104021623418862,7.412527578319637,22.83430114799982,-0.8813767838791478
1403637159538319104,39.475917,216.64116096978196,9.210078791666666,-0.2941994999999999,-3.538566208333333,-0.0425860337486616,-0.1005309649148733,-0.132645023151569,7.626607419410142,22.20393595890579,-0.6303651890940287
1403637159588318976,59.883356,233.7185679048072,8.825985,-0.8172208333333333,-2.9174783749999995,-0.0188495559215387,-0.0314159265358979,-0.1514945790731078,7.675538899084808,21.523009617353008,-0.6809263415527838
1403637159638319104,40.004731,227.65290875042444,10.54214875,0.4494714583333333,-2.941995,0.0314159265358979,0.0390953752446729,-0.1193805208364121,7.763322880108754,20.97565418927574,-0.5473554280772674
1403637159688318976,50.020933,227.0472674117236,10.223432625,0.0,-5.181180083333333,-0.0111701072127637,-0.046774823953448,-0.0279252680319092,7.762677997228801,20.449307920199644,-0.5263462690760967
1403637159738319104,49.867391,243.6603707163825,9.422556208333331,-1.0705592916666666,-4.355787041666666,-0.0132645023151569,0.0677187749773799,0.0174532925199432,7.897647722404091,20.060302332569986,-0.38900558762965787
1403637159788318976,50.173998,225.24813616359145,10.533976541666666,-0.7927042083333332,-4.004382083333333,-0.028623399732707,0.1521927107739055,-0.0551524043630208,7.845608991928697,19.807126119110936,-0.2531762134590494
1403637159838319104,49.953699,234.23291288952356,9.520622708333333,0.367749375,-3.6202882916666654,-0.093549647906896,-0.0048869219055841,0.0055850536063818,7.8201295665202615,19.5188024664205,-0.2883236526904369
1403637159888318976,50.086499,202.92989343613544,7.853492208333332,-0.2778550833333333,-3.530394,-0.1996656664281513,-0.0747000919853573,0.1473057888683213,7.8178045575598025,19.302693173615364,-0.21610929280513602
1403637159938319104,49.9475,200.56950325088573,7.534776083333333,0.6456044583333332,-3.1299557916666663,-0.2548180707911721,0.0279252680319092,0.1186823891356144,7.917329198049036,19.194033757573127,-0.1086594160422365
1403637159988318976,50.225496,179.90941874931443,9.724927916666667,-0.4821602916666666,-3.28522775,-0.325329372571743,0.1689478715930511,0.2520255439879811,7.779936063428103,19.309416167878467,0.11538241030534024
1403637160038319104,48.900843,163.34361024017588,8.270274833333334,-0.8989429166666666,-2.631451083333333,-0.3316125578789226,0.2436479635784084,0.3385938748868999,7.9129375310257055,19.254510415481683,-0.054905752396784635
1403637160088318976,61.534643,184.0168062060247,8.752435125,-0.4494714583333333,-4.380303666666666,-0.35395277230445,0.1480039205691191,0.3239331091701475,7.69603228026635,19.31180647658647,0.05729606110478613
1403637160138319104,39.210796,183.376041042216,10.623870833333331,0.3514049583333333,-4.617297708333333,-0.4551818689201211,0.1347394182539622,0.3790855135331683,7.2872995731854555,19.78772991282007,0.4759234362336002
1403637160188318976,50.157786,192.9744337643129,8.38468575,-0.44129925,-3.538566208333333,-0.4991641660703782,0.0586430628670094,0.249931148885588,7.251979763850606,20.367941576883776,0.5802116640637074
1403637160238319104,53.56574,193.94378057725172,7.984247541666667,-0.3595771666666666,-2.69682875,-0.5033529562751646,0.1361356816555577,0.3141592653589793,7.225720083477069,20.91487388583071,0.546932308946932
1403637160288318976,49.277306,188.78914989389497,8.834157208333334,0.0817220833333333,-3.4977051666666665,-0.5417501998190398,0.0984365698124801,0.2436479635784084,7.198174964612949,21.464127710909423,0.5492538250787149
1403637160338319104,57.876348,170.5097393902902,9.144701125,-0.5148491249999999,-4.0125542916666666,-0.6136577650012062,0.0460766922526503,0.346273323595675,6.925459802431659,22.11968616085813,0.6555584499487068
1403637160388318976,49.528838,168.11567431929822,9.896544291666666,-0.8253930416666666,-3.178989041666666,-0.6164502918043971,-0.0307177948351002,0.3127630019573839,6.820593867631105,22.800633281870454,0.6809471210123235
1403637160438319104,40.51423,161.3147768435755,9.161045541666669,-0.392266,-2.7131731666666665,-0.7113962031128886,0.046774823953448,0.1850049007113989,6.640302556800137,23.738622222456573,0.9379889405861199
1403637160488318976,50.247431,127.12224329087137,10.002783,-0.0081722083333333,-4.829775124999999,-0.671602696167418,-0.0788888821901436,0.1724385300970397,6.5723873880693535,24.500415717337372,0.7617934948807985
1403637160538319104,49.65806,131.85377223200425,9.054806833333332,-0.7436709583333333,-3.652977125,-0.7086036763096978,0.0090757121103705,0.1689478715930511,6.062905819809562,25.49897359927134,0.9985578819339693
1403637160588318976,50.052405,141.99997009645753,9.765788958333331,1.7570247916666666,-3.195333458333333,-0.6548475353482724,0.0293215314335047,0.2869321290278678,6.157432511357801,26.206610975735234,0.707637376463893
1403637160638319104,49.918174,121.68591010036944,8.180380541666665,-2.034879875,-2.941995,-0.5989969992844539,-0.1549852375770964,0.278554548618295,5.745505051954733,27.069735261669337,0.8631242859341022
1403637160688318976,60.662747,154.7585129920166,7.927042083333333,-0.4494714583333333,-1.299381125,-0.4963716392671873,-0.0747000919853573,0.2366666465704311,5.737570564239189,27.720466070292805,0.650730808623468
1403637160738319104,38.527489,272.9896276152433,9.675894666666666,0.1470997499999999,-3.979865458333333,-0.4167846253762458,-0.0279252680319092,0.1487020522699168,8.141706068248723,27.242599368090513,-0.47786670220229155
1403637160788318976,50.508022,256.72823318335617,9.406211791666664,-0.7681875833333334,-4.56009225,-0.3469714552964727,-0.0048869219055841,0.0551524043630208,4.985180281748466,28.301442352015023,1.0588429839245102
1403637160838319104,49.574375,346.1443398841316,10.566665374999998,0.2860272916666666,-4.919669416666666,-0.2548180707911721,-0.0523598775598298,0.2234021442552742,4.953590604661371,29.337764277699797,1.0363219256847742
