stamp,img_delta,blur,lin_acc.x,lin_acc.y,lin_acc.z,ang_vel.x,ang_vel.y,ang_vel.z,rpe,ate,drift
1403636580913555456,38.660288,263.6663576010954,8.940395916666665,-0.612915625,-3.8245935,-0.1905899543177807,0.3239331091701475,-0.036302848441482,0.5276302441713923,0.5276302441713405,0.5276302441713405
1403636580963555584,50.57311,295.075412051192,8.123175083333333,0.122583125,-3.751043625,-0.0726056968829641,0.3232349774693498,-0.0069813170079773,0.5602091578159597,1.0834141438289056,0.555783899657565
1403636581013555456,49.734831,317.76830118686155,7.9433865,-0.1389275416666666,-3.178989041666666,0.0293215314335047,0.2932153143350474,0.0747000919853573,0.5683502119983246,1.6444596995548024,0.5610455557258969
1403636581063555584,59.819698,336.094721139486,8.213069375,0.0898942916666666,-2.827584083333333,-0.0397935069454707,0.2981022362406315,0.2038544566329376,0.573470762072015,2.204771626415026,0.5603119268602237
1403636581113555456,44.092179,317.62326531878347,8.213069375,0.0898942916666666,-2.827584083333333,-0.0397935069454707,0.2981022362406315,0.2038544566329376,0.42462984174810103,2.609070368819009,0.404298742403983
1403636581163555584,45.924902,333.8582387716372,7.976075333333333,0.416782625,-3.178989041666666,0.0013962634015954,0.3364994797845067,0.1466076571675237,0.5321074621663153,3.118511782810505,0.509441413991496
1403636581213555456,49.942255,311.84774189481,7.918869874999999,-0.2288218333333333,-2.6477955,-0.0523598775598298,0.3553490357060455,0.1996656664281513,0.3659187951477063,3.4684636391048884,0.3499518562943833
1403636581263555584,61.034202,368.18617940220105,6.235394958333333,-0.53936575,-2.0267076666666664,-0.0230383461263251,0.3092723434533951,0.057246799465414,0.30706679811762744,3.743472551448553,0.27500891234366476
1403636581313555456,38.819313,423.3348107646747,6.235394958333333,-0.53936575,-2.0267076666666664,-0.0230383461263251,0.3092723434533951,0.057246799465414,0.13926077019432262,3.8033899336041386,0.0599173821555854
1403636581363555584,60.877085,706.9276681740287,5.810440125,-0.0653776666666666,-1.6834749166666665,-0.0928515162060983,0.0293215314335047,-0.0209439510239319,0.2548301486505249,3.699448471412651,-0.10394146219148759
1403636581413555456,50.985575,898.7292284889082,5.998400916666666,0.1307553333333333,-1.7161637499999998,-0.0488692190558412,-0.1096066770252439,-0.0705113017805709,0.39397821289862905,3.451078052427042,-0.24837041898560885
1403636581463555584,38.339853,627.8675556700354,5.998400916666666,0.1307553333333333,-1.7161637499999998,-0.0488692190558412,-0.1096066770252439,-0.0705113017805709,0.3663801860167462,3.228274069469149,-0.22280398295789317
1403636581513555456,60.645342,477.68341668448966,7.2487487916666655,-0.171616375,-2.30456275,-0.0237364778271228,-0.2443460952792061,0.1633628179866692,0.2814693943609788,3.128883554852293,-0.09939051461685589
1403636581563555584,44.967651,403.2026616945042,7.2487487916666655,-0.171616375,-2.30456275,-0.0237364778271228,-0.2443460952792061,0.1633628179866692,0.10017405877152143,3.1140252727658733,-0.014858282086419816
1403636581613555456,44.479609,403.1741312812884,7.9433865,0.0408610416666666,-2.378112625,0.0747000919853573,-0.2268928027592628,0.093549647906896,0.12435936868817424,3.103335801720706,-0.010689471045167043
1403636581663555584,60.447454,432.5322688743063,8.229413791666666,-0.2778550833333333,-3.0564059166666664,0.0747000919853573,-0.1089085453244461,-0.0153588974175501,0.11629836526900098,3.0644643375706404,-0.038871464150065815
1403636581713555456,50.137043,367.6807377370697,9.430728416666666,-0.1307553333333333,-3.4568441249999995,0.0153588974175501,-0.0335103216382911,0.0956440430092892,0.12396906735689642,2.968409984741317,-0.09605435282932362
1403636581763555584,39.574147,404.2509303480711,9.430728416666666,-0.1307553333333333,-3.4568441249999995,0.0153588974175501,-0.0335103216382911,0.0956440430092892,0.14072940725730118,3.0178836969678513,0.049473712226534516
1403636581813555456,49.95346,366.736618190612,8.850501625,-0.1879607916666666,-3.260711125,0.1577777643802873,-0.0656243798749867,0.143116998663535,0.14004894273319532,3.051604171220608,0.033720474252756816
1403636581863555584,50.074101,373.80182120812896,9.128356708333332,-0.392266,-3.415983083333333,-0.028623399732707,-0.0837758040957278,0.0823795406941323,0.1176737381424767,3.0958284618349636,0.04422429061435551
1403636581913555456,61.024666,322.51026076711,10.092677291666664,-0.5883989999999999,-3.268883333333333,-0.1186823891356144,-0.2771582852166995,0.1242674427419962,0.7151339600625762,2.5888155619386675,-0.5070128998962962
1403636581963555584,38.841486,291.0877900899805,10.092677291666664,-0.5883989999999999,-3.268883333333333,-0.1186823891356144,-0.2771582852166995,0.1242674427419962,0.10742984781939313,2.591037962411563,0.0022224004728954583
1403636582013555456,49.934864,273.7819191842833,10.019127416666668,-0.04903325,-4.175998458333333,-0.1193805208364121,-0.3197443189653611,0.0809832772925368,0.10561961938622272,2.5918508702589125,0.0008129078473495532
1403636582063555584,49.88265,265.27589428368776,11.13054775,-0.3595771666666666,-4.151481833333333,-0.0195476876223364,-0.3218387140677544,0.1061160185212552,0.11948522503408808,2.4810760038551396,-0.11077486640377288
1403636582113555456,50.046444,256.7156031591092,11.024309041666667,-0.44129925,-4.95235825,0.0139626340159546,-0.3204424506661589,0.0111701072127637,0.19335468692388458,2.326260978599666,-0.15481502525547342
1403636582163555584,50.304174,286.09970191007307,11.759807791666669,-0.0163444166666666,-4.927841624999999,0.0851720674973232,-0.2345722514680378,0.1410226035611418,0.14706950698547305,2.240024760249918,-0.08623621834974804
1403636582213555456,60.91094,404.3613294504831,12.405412249999998,-0.1634441666666666,-5.181180083333333,0.0244346095279206,-0.0949459113084915,0.0621337213709981,0.15617529197527305,2.181109585846749,-0.05891517440316907
1403636582263555584,48.648119,669.9820275994263,12.119384958333333,-0.269682875,-5.606134916666666,0.0523598775598298,0.0034906585039886,0.0872664625997164,0.18848446991542891,2.2303961571238475,0.04928657127709846
1403636582313555456,49.850703,397.5404395938473,12.119384958333333,-0.269682875,-5.606134916666666,0.0523598775598298,0.0034906585039886,0.0872664625997164,0.20389270052643835,2.294632191127843,0.06423603400399536
1403636582363555584,53.645372,279.69500766314184,10.419565625,0.0735498749999999,-4.748053041666666,-0.0097738438111682,0.3134611336581816,0.0600393262686049,0.22630732232637513,2.3743834574843325,0.07975126635648966
1403636582413555456,36.225319,249.5296830135814,10.419565625,0.0735498749999999,-4.748053041666666,-0.0097738438111682,0.3134611336581816,0.0600393262686049,0.13915883500096785,2.4149529190518217,0.040569461567489196
1403636582463555584,50.559759,257.97418645542274,10.158054958333333,0.0572054583333333,-4.135137416666667,0.0006981317007977,0.335801348083709,0.1026253600172665,0.11467709564308552,2.4663193482966057,0.05136642924478396
1403636582513555456,62.027216,290.7092629194779,9.005773583333333,0.2043052083333333,-3.8164212916666655,-0.0844739357965255,0.208043246837724,0.0670206432765822,0.14572296512145863,2.4864290029998566,0.02010965470325088
1403636582563555584,37.98008,333.02032996963646,9.005773583333333,0.2043052083333333,-3.8164212916666655,-0.0844739357965255,0.208043246837724,0.0670206432765822,0.15543684548177503,2.4099679874498836,-0.07646101554997298
1403636582613555456,55.294037,370.36355367321767,9.381695166666669,-0.1552719583333333,-3.7919046666666665,-0.132645023151569,0.1270599695451872,-0.0020943951023931,0.109661950883109,2.3578910349359736,-0.05207695251390998
1403636582663555584,44.916153,397.3712351749055,8.588990958333333,0.0817220833333333,-3.693838166666666,-0.1054178868204575,0.1165879940332212,0.0628318530717958,0.11113380178130502,2.320889855953397,-0.03700117898257682
1403636582713555456,59.791803,392.457236183335,8.360169125,0.0980665,-3.4241552916666667,-0.093549647906896,0.1682497398922533,0.1549852375770964,0.16424170728308557,2.298084088330455,-0.02280576762294162
1403636582763555584,44.897318,380.9905771296919,8.360169125,0.0980665,-3.4241552916666667,-0.093549647906896,0.1682497398922533,0.1549852375770964,0.18180560583904648,2.3158831780299285,0.017799089699473303
1403636582813555456,45.182943,321.8049680303617,9.586000375,0.367749375,-3.309744375,-0.1640609496874669,0.2324778563656447,0.1780235837034216,0.15771518927324127,2.366846469573643,0.05096329154371437
1403636582863555584,50.086022,291.991663156984,7.878008833333333,-0.3268883333333333,-3.554910625,-0.1591740277818828,0.3169517921621702,0.200363798128949,0.7271706164023665,2.4857151204175096,0.11886865084386677
1403636582913555456,55.081844,307.52956291300427,8.3356525,0.0081722083333333,-2.99102825,-0.1158898623324234,0.3672172746196069,0.1940806128217694,0.0698622008080609,2.541580028149355,0.05586490773184538
1403636582963555584,44.628143,320.58394099769583,6.913688249999999,-0.3514049583333333,-2.729517583333333,-0.0439822971502571,0.3665191429188092,0.104021623418862,0.08379355623509029,2.615485933337749,0.0739059051883939
1403636583013555456,59.900522,377.2399080743498,6.562283291666667,-0.2941994999999999,-1.8224024583333327,0.025830872929516,0.2073451151369263,0.0579449311662117,0.05257692883144402,2.658382656038959,0.042896722701210255
1403636583063555584,46.414614,634.2064112424738,6.562283291666667,-0.2941994999999999,-1.8224024583333327,0.025830872929516,0.2073451151369263,0.0579449311662117,0.07986163609494995,2.7266050560296953,0.0682223999907361
1403636583113555456,44.164896,860.8256963254792,6.1209840416666665,0.04903325,-1.5608917916666667,-0.0851720674973232,0.0760963553869527,-0.0069813170079773,0.09606193311413552,2.7981646254751134,0.07155956944541808
1403636583163555584,49.842596,838.4443457552464,6.006573125,-0.0653776666666666,-1.830574666666667,-0.0865683308989187,0.0069813170079773,0.0104719755119659,0.08687362743367506,2.8098455338766213,0.011680908401507928
1403636583213555456,60.213089,770.1130998773762,7.681875833333333,0.3350605416666666,-1.8060580416666667,-0.0237364778271228,-0.0663225115757845,0.0502654824574366,0.1121481838098608,2.719671102111443,-0.09017443176517848
1403636583263555584,39.687634,708.0751010700483,7.681875833333333,0.3350605416666666,-1.8060580416666667,-0.0237364778271228,-0.0663225115757845,0.0502654824574366,0.12640382363186672,2.5977983400554647,-0.12187276205597808
1403636583313555456,59.799671,614.1682367520524,7.861664416666666,-0.0653776666666666,-2.6477955,-0.0111701072127637,-0.0802851455917391,0.0104719755119659,0.25189477402845534,2.726361248734159,0.12856290867869413
1403636583363555584,44.081211,437.2350852445632,7.861664416666666,-0.0653776666666666,-2.6477955,-0.0111701072127637,-0.0802851455917391,0.0104719755119659,0.160008022103364,2.6931315100462685,-0.033229738687890364
1403636583413555456,56.750774,408.593072548256,9.430728416666666,-0.2615106666666666,-2.5170401666666664,0.1291543646475804,-0.1165879940332212,0.0656243798749867,0.17996689992266904,2.738510723003471,0.0453792129572026
1403636583463555584,39.526225,382.86205560585495,9.430728416666666,-0.2615106666666666,-2.5170401666666664,0.1291543646475804,-0.1165879940332212,0.0656243798749867,0.1430163706619229,2.7445877868837125,0.006077063880241429
1403636583513555456,49.57962,392.6439635203239,8.605335375,0.4004382083333333,-3.2770555416666665,-0.028623399732707,-0.132645023151569,-0.028623399732707,0.11747277411641267,2.756103502897458,0.011515716013745347
1403636583563555584,60.572386,371.9869446247163,9.161045541666669,0.196133,-3.563082833333333,-0.1584758960810851,-0.228987197861656,-0.0719075651821663,0.12563786258372323,2.752327046094531,-0.0037764568029268197
1403636583613555456,39.632797,319.8223207004329,9.161045541666669,0.196133,-3.563082833333333,-0.1584758960810851,-0.228987197861656,-0.0719075651821663,0.12425111220072733,2.774037722542325,0.021710676447793897
1403636583663555584,49.872875,264.8540367873172,9.626861416666666,-0.1634441666666666,-3.5957716666666664,0.1975712713257581,-0.3448770601940795,0.2401573050744197,0.12285761808027379,2.7385297085834734,-0.0355080139588515
1403636583713555456,49.878836,249.97978283254068,10.1008495,-0.0408610416666666,-3.92266,0.0628318530717958,-0.4244640740850209,0.2345722514680378,0.6047027855996251,2.441936162116831,-0.29659354646664227
1403636583763555584,59.68523,248.3459381855288,10.313326916666666,-0.1470997499999999,-4.135137416666667,-0.0041887902047863,-0.3686135380212024,0.122173047639603,0.23875061848919596,2.3043214496120648,-0.13761471250476642
1403636583813555456,45.271635,239.2705208229873,10.313326916666666,-0.1470997499999999,-4.135137416666667,-0.0041887902047863,-0.3686135380212024,0.122173047639603,0.24856835406247774,2.336639901752344,0.032318452140279064
1403636583863555584,45.168638,257.31447149648693,9.880199875,0.1307553333333333,-4.731708625,-0.0251327412287183,-0.2478367537831947,0.0733038285837618,0.10514601531111763,2.230572003781378,-0.10606789797096594
1403636583913555456,49.942494,278.8081840799192,10.558493166666668,-0.5802267916666666,-4.829775124999999,-0.0069813170079773,-0.1500983156715123,-0.0628318530717958,0.10861963703489462,2.1456387093469362,-0.08493329443444164
1403636583963555584,50.006628,303.789866730484,10.705592916666664,-0.3759215833333333,-5.140319041666666,0.0558505360638185,-0.0872664625997164,-0.0781907504893459,0.05815686143954311,2.0983230576915415,-0.04731565165539475
1403636584013555456,50.095796,403.3734010090676,11.32668075,-0.2043052083333333,-5.042252541666667,0.1151917306316257,-0.0139626340159546,0.0370009801422797,0.05862337167083339,2.047531240988482,-0.050791816703059656
1403636584063555584,60.563565,556.5049473913166,11.596363625,0.0980665,-4.895152791666666,0.0963421747100869,0.0195476876223364,0.0998328332140756,0.06892056763426001,1.9890802032062043,-0.05845103778227756
1403636584113555456,43.682337,528.9564609990666,11.596363625,0.0980665,-4.895152791666666,0.0963421747100869,0.0195476876223364,0.0998328332140756,0.0983318268813019,1.9063755608378887,-0.08270464236831554
1403636584163555584,45.851469,395.0128542879143,11.898735333333333,0.1797885833333333,-5.107630208333333,0.0747000919853573,0.0202458193231342,0.0635299847725936,0.1929253279017069,1.9763801448883949,0.07000458405050614
1403636584213555456,49.737215,353.27031295387235,10.672904083333334,-0.1144109166666666,-4.993219291666667,0.0,0.0335103216382911,0.0488692190558412,0.361999159833914,1.9193219491991254,-0.05705819568926951
1403636584263555584,50.202608,313.5195116645948,10.517632125,-0.0653776666666666,-4.715364208333333,0.0083775804095727,0.0956440430092892,0.0677187749773799,0.18495680679857315,1.8969735358732462,-0.022348413325879113
1403636584313555456,60.518265,319.0126206691533,10.476771083333333,0.4494714583333333,-4.225031708333333,-0.08307767239493,0.0809832772925368,-0.0677187749773799,0.19154925080855725,1.9878595998437485,0.09088606397050225
1403636584363555584,39.397478,338.7114125333576,10.476771083333333,0.4494714583333333,-4.225031708333333,-0.08307767239493,0.0809832772925368,-0.0677187749773799,0.15187407830342697,2.0683831990090864,0.08052359916533791
1403636584413555456,49.45445,307.0761492987769,9.643205833333331,-0.0735498749999999,-4.233203916666667,-0.189891822616983,0.0984365698124801,-0.0300196631343024,0.17143447797488945,2.164152226906458,0.09576902789737174
1403636584463555584,50.270319,299.09143919946723,9.177389958333332,0.0898942916666666,-4.257720541666666,-0.1172861257340189,0.1752310569002306,-0.0453785605518525,0.09996106947508579,2.155639528701471,-0.008512698204987235
1403636584513555456,50.067425,272.0738330703182,9.349006333333334,-0.0898942916666666,-3.9390044166666662,-0.0537561409614253,0.2450442269800038,0.1277581012459849,0.13674474326649128,2.197394932977772,0.04175540427630109
1403636584563555584,49.929857,285.4863616634131,9.259112041666668,0.2778550833333333,-3.8654545416666655,-0.08307767239493,0.2932153143350474,0.0453785605518525,0.12833693924834097,2.271500963198013,0.07410603022024098
1403636584613555456,55.080652,257.7938147700252,8.401030166666667,0.024516625,-3.8409379166666655,-0.1417207352619395,0.3923500158483253,0.1584758960810851,0.14685968481536232,2.366668837252735,0.09516787405472193
1403636584663555584,58.361054,252.2727263460188,7.510259458333333,0.0898942916666666,-3.195333458333333,-0.1333431548523667,0.4656538444320871,0.1228711793404008,0.14431659709047057,2.4763638914427637,0.10969505419002878
1403636584713555456,41.963339,259.13720548480967,7.510259458333333,0.0898942916666666,-3.195333458333333,-0.1333431548523667,0.4656538444320871,0.1228711793404008,0.12397828502097141,2.587947818523821,0.11158392708105724
1403636584763555584,55.558443,287.5679642230647,7.175198916666666,-0.0408610416666666,-2.7213453750000003,-0.0579449311662117,0.3378957431861022,0.1410226035611418,0.8638955714469866,2.5712486955218354,-0.016699123001985505
1403636584813555456,49.581051,326.06285646679504,7.346815291666666,0.220649625,-2.557901208333333,-0.0272271363311115,0.2715732316103177,0.1850049007113989,0.1075637347834396,2.686644953960811,0.11539625843897561
1403636584863555584,44.300556,460.5136350139532,7.346815291666666,0.220649625,-2.557901208333333,-0.0272271363311115,0.2715732316103177,0.1850049007113989,0.11606585798519774,2.767759931678374,0.08111497771756282
1403636584913555456,45.48192,610.8213042981412,6.22722275,-0.1144109166666666,-1.871435708333333,0.0397935069454707,0.1884955592153876,0.1759291886010284,0.1205931670767811,2.8210043614054583,0.05324442972708443
1403636584963555584,49.986363,776.0558942147965,6.799277333333333,0.63743225,-1.5608917916666667,-0.0788888821901436,0.0914552528045028,0.2157226955464991,0.11839457778865226,2.841651257808622,0.02064689640316386
1403636585013555456,56.794881,1029.465479462413,7.036271375,0.3023717083333333,-1.8550912916666664,-0.0984365698124801,-0.0628318530717958,0.0949459113084915,0.13267229337924363,2.8465477746270462,0.004896516818424068
1403636585063555584,43.640614,886.627514530518,7.036271375,0.3023717083333333,-1.8550912916666664,-0.0984365698124801,-0.0628318530717958,0.0949459113084915,0.18697195971531586,2.867478269500305,0.02093049487325871
1403636585113555456,49.656153,810.3935523761095,6.652177583333333,0.2288218333333333,-2.0267076666666664,0.0153588974175501,-0.0760963553869527,0.1110029404268393,0.18149168102492633,2.8871089167818185,0.019630647281513536
1403636585163555584,55.822849,648.680786847138,7.722736874999999,0.1307553333333333,-2.0675687083333334,-0.1179842574348166,-0.1012290966156711,0.0390953752446729,0.0786613913669785,2.9011433058868668,0.014034389105048284
1403636585213555456,44.035673,598.4291784014974,7.79628675,0.2941994999999999,-2.329079375,-0.1214749159388053,-0.1117010721276371,0.0733038285837618,0.04834812995516236,2.8677386113706094,-0.03340469451625738
1403636585263555584,50.119877,613.211880357615,8.719746291666667,-0.1470997499999999,-2.7131731666666665,-0.1061160185212552,-0.1047197551196597,-0.1207767842380075,0.0810975166332551,2.8024391710964074,-0.06529944027420198
1403636585313555456,61.348438,451.351267242731,9.144701125,0.3105439166666667,-3.0400615,-0.0048869219055841,-0.114493598930828,-0.036302848441482,0.07312597763365732,2.822613630531538,0.020174459435130743
1403636585363555584,49.831629,439.73543734926784,9.586000375,0.0163444166666666,-3.4486719166666666,-0.0027925268031909,-0.132645023151569,-0.0383972435438752,0.08746714670232467,2.8239089326972744,0.0012953021657362562
1403636585413555456,38.491011,406.6188253069632,9.586000375,0.0163444166666666,-3.4486719166666666,-0.0027925268031909,-0.132645023151569,-0.0383972435438752,0.11878079044188268,2.825847674461907,0.001938741764632823
1403636585463555584,55.174589,377.7254064132072,9.095667875,0.0572054583333333,-3.8082490833333327,0.143116998663535,-0.1745329251994329,0.0279252680319092,0.11851759851324122,2.770373679082142,-0.055473995379765384
1403636585513555456,44.923544,367.2572321912056,9.978266375,0.392266,-3.857282333333333,0.1005309649148733,-0.1905899543177807,0.0027925268031909,0.09765434970146071,2.7179375020705097,-0.05243617701163217
1403636585563555584,50.201416,326.98960137764,9.872027666666666,0.5148491249999999,-4.576436666666666,0.2715732316103177,-0.2087413785385218,0.0055850536063818,0.5910563478792558,2.2286326603924236,-0.4893048416780861
1403636585613555456,61.181545,322.8867570930013,10.419565625,-0.122583125,-4.797086291666667,0.2638937829015426,-0.2429498318776106,0.1459095254667259,0.19466820001498109,2.0437332877498697,-0.18489937264255385
1403636585663555584,38.775206,319.5693247433849,10.419565625,-0.122583125,-4.797086291666667,0.2638937829015426,-0.2429498318776106,0.1459095254667259,0.2268260163057951,1.8526606069207443,-0.19107268082912543
1403636585713555456,49.897194,338.08550058121097,10.533976541666666,0.5148491249999999,-3.832765708333333,0.2241002759560719,-0.2729694950119131,0.1864011641129944,0.22274784476448953,1.6888329907634183,-0.163827616157326
1403636585763555584,50.089836,361.471019827733,10.468598874999998,-0.3595771666666666,-4.380303666666666,0.1661553447898601,-0.2953097094374406,0.1926843494201739,0.19412286692290795,1.5983674747835217,-0.0904655159798966
1403636585813555456,50.117969,363.1253069620442,9.822994416666669,0.0817220833333333,-4.404820291666666,0.171740398396242,-0.3127630019573839,0.249931148885588,0.18892065225676746,1.5695774827096571,-0.028789992073864568
1403636585863555584,50.305605,369.899934685107,10.043644041666663,-0.269682875,-4.404820291666666,0.143116998663535,-0.3581415625092364,0.1850049007113989,0.17755115102301486,1.5844384669544145,0.014860984244757347
1403636585913555456,59.626579,390.8581372311539,9.136528916666666,-0.1062387083333333,-4.069759749999999,-0.0607374579694026,-0.4377285764001778,0.1459095254667259,0.1712541633262529,1.6307789907270949,0.046340523772680386
1403636585963555584,39.538146,352.5517791347333,9.136528916666666,-0.1062387083333333,-4.069759749999999,-0.0607374579694026,-0.4377285764001778,0.1459095254667259,0.1831152560448013,1.6904948386056495,0.05971584787855466
1403636586013555456,49.932003,338.6089538563781,8.866846041666665,-0.196133,-4.633642125,-0.1738347934986352,-0.4740314248416599,0.153588974175501,0.22248803044846885,1.7311392202656328,0.0406443816599833
1403636586063555584,55.482149,344.68151569585,8.719746291666667,-0.416782625,-4.985047083333333,-0.3399901382884954,-0.4796164784480418,0.0991347015132779,0.2192819145176705,1.784294716533975,0.05315549626834226
1403636586113555456,54.945707,405.4361015348146,8.294791458333332,-0.4086104166666666,-5.410001916666666,-0.2017600615305445,-0.3455751918948772,0.1891936909161853,0.21189146284954427,1.8640695828360507,0.07977486630207564
1403636586163555584,40.039062,483.57960933951045,8.294791458333332,-0.4086104166666666,-5.410001916666666,-0.2017600615305445,-0.3455751918948772,0.1891936909161853,0.19555581364844363,1.973739435117245,0.1096698522811943
1403636586213555456,59.668065,391.9836730910905,7.788114541666666,0.2369940416666666,-5.475379583333333,-0.0383972435438752,-0.3741985916275842,0.1228711793404008,0.21611144174487873,2.1132647147065318,0.13952527958928673
1403636586263555584,51.542759,339.90127222783667,7.436709583333332,-0.04903325,-5.93302325,-0.0349065850398865,-0.3741985916275842,0.2143264321449036,0.21212212783169854,2.2380250363669436,0.12476032166041184
1403636586313555456,38.716316,350.38868493991885,7.436709583333332,-0.04903325,-5.93302325,-0.0349065850398865,-0.3741985916275842,0.2143264321449036,0.2242256655668623,2.3657675252671635,0.12774248890021989
1403636586363555584,59.718609,312.6568976799208,7.126165666666666,-0.0817220833333333,-6.145500666666667,-0.018151424220741,-0.3937462792499207,0.2247984076568696,0.22981113689230834,2.476691750057352,0.11092422479018849
1403636586413555456,52.191496,314.8132503629751,7.886181041666666,0.0,-6.219050541666666,-0.0027925268031909,-0.3546509040052477,0.0349065850398865,0.21931711300377676,2.606668057340094,0.129976307282742
1403636586463555584,38.212776,323.2391162619536,7.886181041666666,0.0,-6.219050541666666,-0.0027925268031909,-0.3546509040052477,0.0349065850398865,0.15294959579976944,2.7110263143670115,0.10435825702691748
1403636586513555456,49.971103,379.13305362689687,7.951558708333333,-0.0326888333333333,-6.071950791666666,-0.0139626340159546,-0.3099704751541929,0.0537561409614253,0.20974675489342007,2.7356935154805258,0.02466720111351428
1403636586563555584,50.176621,499.0049409265588,7.673703624999999,0.24516625,-6.088295208333333,0.0516617458590321,-0.2227040125544764,0.0041887902047863,0.16559927169448846,2.762859413708684,0.02716589822815818
1403636586613555456,50.062179,870.1512930487958,7.820803375,-0.0326888333333333,-5.93302325,0.0509636141582344,-0.0984365698124801,0.1054178868204575,0.12276286550702063,2.7940563967970005,0.031196983088316532
1403636586663555584,49.697161,742.7246038452411,7.739081291666666,-0.122583125,-6.145500666666667,-0.0188495559215387,0.025830872929516,0.0879645943005142,0.14520890653822532,2.8325916386626857,0.038535241865685244
1403636586713555456,50.231934,630.6670337133876,7.1588545,-0.5311935416666667,-5.990228708333333,0.0635299847725936,0.1514945790731078,0.0984365698124801,0.21485637270163754,2.8220667117019156,-0.01052492696077012
1403636586763555584,60.564995,597.6050870402282,7.019926958333333,-0.4249548333333333,-6.039261958333333,0.0425860337486616,0.1870992958137921,0.064926248174189,0.30725649973340347,2.8573782347349423,0.03531152303302676
1403636586813555456,49.990415,604.651314218035,7.142510083333334,-1.12776475,-6.129156249999999,0.0530580092606276,0.1570796326794896,0.0230383461263251,0.31712595367406876,2.851320691243016,-0.006057543491926332
1403636586863555584,39.34598,767.0270325810396,7.142510083333334,-1.12776475,-6.129156249999999,0.0530580092606276,0.1570796326794896,0.0230383461263251,0.21855157218011717,2.8425998556363896,-0.008720835606626398
1403636586913555456,55.022001,772.1579962334038,7.420365166666667,-0.7518431666666666,-6.153672874999999,0.0663225115757845,0.132645023151569,-0.0153588974175501,0.15455941860418446,2.83080356878647,-0.011796286849919735
1403636586963555584,48.918247,854.0219501968643,7.788114541666666,-0.1879607916666666,-6.161845083333333,0.0747000919853573,0.0914552528045028,0.007679448708775,0.10806878408371695,2.8215261969025347,-0.009277371883935182
1403636587013555456,47.83535,857.6256281277333,7.256920999999999,-0.6047434166666666,-6.202706124999999,0.0823795406941323,0.054454272662223,-0.0342084533390888,0.03937889401863789,2.820941944695337,-0.0005842522071977108
1403636587063555584,49.561501,885.1513014338315,7.690048041666667,-0.0817220833333333,-6.390666916666666,0.018151424220741,-0.0432841654494593,-0.0167551608191455,0.057962487676212766,2.8001117523720493,-0.020830192323287644
1403636587113555456,55.088043,890.1768316164939,7.240576583333333,0.1389275416666666,-6.080123,0.0237364778271228,-0.0774926187885482,0.0188495559215387,0.03810367659018823,2.801786921575011,0.0016751692029615128
1403636587163555584,43.758154,852.7666499741379,7.60015375,0.2941994999999999,-6.243567166666667,0.0027925268031909,-0.0719075651821663,-0.0006981317007977,0.07921450877975765,2.823814836642625,0.022027915067614146
1403636587213555456,60.758114,798.4294619150937,7.542948291666666,0.3514049583333333,-6.243567166666667,-0.0090757121103705,-0.0069813170079773,0.124965574442794,0.09005514444605436,2.834124765459779,0.010309928817154201
1403636587263555584,51.841497,707.0785458869681,7.453054,0.6864655000000001,-6.219050541666666,-0.0432841654494593,-0.0160570291183478,0.1068141502220529,0.08905479655084862,2.851931121701238,0.017806356241458765
1403636587313555456,37.690163,557.6488170625967,7.453054,0.6864655000000001,-6.219050541666666,-0.0432841654494593,-0.0160570291183478,0.1068141502220529,0.07450789618990984,2.862523609533402,0.010592487832163933
1403636587363555584,49.941301,526.9613084370557,7.469398416666666,0.2043052083333333,-6.366150291666666,-0.0370009801422797,-0.0020943951023931,0.1445132620651305,0.11021637600647204,2.8818930377242054,0.01936942819080345
1403636587413555456,60.174942,475.2887675108977,7.469398416666666,0.24516625,-6.537766666666666,-0.0153588974175501,-0.0237364778271228,0.1891936909161853,0.08685947206761471,2.896484174224302,0.014591136500096802
1403636587463555584,39.477349,446.1231627914409,7.469398416666666,0.24516625,-6.537766666666666,-0.0153588974175501,-0.0237364778271228,0.1891936909161853,0.08172389379902714,2.8904697624533857,-0.006014411770916439
1403636587513555456,50.036192,421.6803181901598,7.232404375,0.4249548333333333,-6.562283291666667,-0.0216420827247296,-0.018151424220741,0.1452113937659282,0.0900588326715612,2.8813780788770527,-0.009091683576333054
1403636587563555584,60.052633,380.29181334212007,7.649186999999999,0.04903325,-6.71755525,-0.0795870138909414,0.0516617458590321,0.143116998663535,0.09401295735594278,2.8505695029272116,-0.0308085759498411
1403636587613555456,39.260149,344.7407769547826,7.649186999999999,0.04903325,-6.71755525,-0.0795870138909414,0.0516617458590321,0.143116998663535,0.0688542368885358,2.843904354351797,-0.006665148575414559
1403636587663555584,50.727129,310.87468752772224,7.559292708333333,-0.0081722083333333,-6.268083791666666,-0.0767944870877505,0.132645023151569,0.182212373908208,0.08261485860109333,2.8391106951528986,-0.004793659198898403
1403636587713555456,60.847044,318.2236511189868,7.273265416666667,-0.3268883333333333,-6.317117041666666,-0.1242674427419962,0.1738347934986352,0.2171189589480945,0.08415003142820975,2.815147383218945,-0.023963311933953513
1403636587763555584,50.480127,302.65101010429004,7.10982125,-0.5475379583333333,-6.161845083333333,-0.1270599695451872,0.1270599695451872,0.1682497398922533,0.07401203061002802,2.835536561105341,0.020389177886396048
1403636587813555456,38.805247,324.8961989847588,7.10982125,-0.5475379583333333,-6.161845083333333,-0.1270599695451872,0.1270599695451872,0.1682497398922533,0.12292397365320704,2.78693794859031,-0.04859861251503128
1403636587863555584,49.581289,338.7355826577008,6.938204874999999,-0.6456044583333332,-6.03108975,-0.1158898623324234,0.0404916386462684,0.200363798128949,0.05914392191447542,2.781910668798382,-0.005027279791927963
1403636587913555456,49.871445,320.7117298001232,7.044443583333333,-0.7273265416666667,-6.317117041666666,-0.1263618378443894,-0.0502654824574366,0.1382300767579508,0.06883126417722497,2.7641114041679837,-0.01779926463039816
1403636587963555584,49.994707,272.7151727584963,7.224232166666667,-0.809048625,-6.357978083333332,-0.2150245638457014,-0.1521927107739055,0.132645023151569,0.11471245499461448,2.713220251943161,-0.050891152224822545
1403636588013555456,49.868106,257.21181008825494,7.10982125,-0.8744262916666666,-6.161845083333333,-0.2122320370425104,-0.1996656664281513,0.1158898623324234,0.15053160914867222,2.7470180951679337,0.03379784322477253
1403636588063555584,61.66339,291.54057069924943,7.216059958333333,-1.22583125,-6.4805612083333335,-0.1110029404268393,-0.1570796326794896,0.1829105056090057,0.14060516780248625,2.786332858377677,0.039314763209743475
1403636588113555456,38.34939,350.96324183898315,7.216059958333333,-0.7927042083333332,-6.725727458333332,-0.0265290046303138,-0.0970403064108847,0.1005309649148733,0.11166852882355605,2.8207151987318086,0.03438234035413146
1403636588163555584,50.267458,378.6622972196963,7.265093208333333,-1.2094868333333333,-6.42335575,-0.0349065850398865,-0.0418879020478639,0.054454272662223,0.11982428662791458,2.8560515124667356,0.03533631373492696
1403636588213555456,60.540676,445.212577508754,7.2487487916666655,-1.3811032083333332,-6.61948875,0.0404916386462684,0.0726056968829641,0.1179842574348166,0.11137868784308039,2.8897731673656106,0.03372165489887502
1403636588263555584,39.62779,551.2900189010277,7.2487487916666655,-1.3811032083333332,-6.61948875,0.0404916386462684,0.0726056968829641,0.1179842574348166,0.09415446505437704,2.894671245798451,0.004898078432840514
1403636588313555456,49.983025,597.8364319868057,7.077132416666666,-1.0950759166666666,-6.701210833333333,0.0614355896702004,0.0837758040957278,0.0684169066781777,0.10631618164628102,2.860413333717727,-0.03425791208072404
1403636588363555584,50.017357,589.3927631649217,7.175198916666666,-1.3157255416666664,-6.856482791666667,0.0677187749773799,0.0977384381116824,0.1172861257340189,0.12256008609914189,2.823281482386029,-0.03713185133169805
1403636588413555456,49.810648,614.9364159344534,7.10982125,-1.2176590416666666,-6.594972124999999,0.0230383461263251,0.075398223686155,0.1130973355292325,0.1666519067887114,2.7169259678602256,-0.1063555145258035
1403636588463555584,61.141014,622.5074856602536,7.534776083333333,-1.438308666666667,-6.815621749999999,-0.0621337213709981,0.0027925268031909,0.0328121899374933,0.22065699431508917,2.549414425649146,-0.16751154221107933
1403636588513555456,38.33723,579.4157890313378,7.534776083333333,-1.438308666666667,-6.815621749999999,-0.0621337213709981,0.0027925268031909,0.0328121899374933,0.2072223649566466,2.38643002271491,-0.16298440293423644
1403636588563555584,50.652981,489.1807320033692,7.232404375,-1.4056198333333334,-6.668522,-0.046774823953448,0.0307177948351002,0.0593411945678072,0.12529357099932412,2.321004312181824,-0.06542571053308599
1403636588613555456,54.361344,396.8798993264992,7.346815291666666,-1.22583125,-6.799277333333333,0.018151424220741,0.0342084533390888,0.0991347015132779,0.16393698067615625,2.2739508250916662,-0.04705348709015755
1403636588663555584,45.543909,377.2199158983914,6.676694208333332,-1.0869037083333333,-6.276256,0.0251327412287183,0.0356047167406843,0.0425860337486616,0.18869000511374903,2.2346825947654514,-0.03926823032621485
1403636588713555456,49.71075,321.53284143731383,7.052615791666666,-0.907115125,-6.390666916666666,0.1019272283164688,-0.0237364778271228,0.0837758040957278,0.20294205769848037,2.2110364291040354,-0.023646165661415974
1403636588763555584,50.035,325.94614316238136,7.085304625,-0.956148375,-6.407011333333333,0.0712094334813686,-0.0460766922526503,0.0013962634015954,0.1985554557416223,2.1828628829962007,-0.028173546107834735
1403636588813555456,50.183773,318.4361377078074,7.207887749999999,-0.956148375,-6.22722275,0.0712094334813686,-0.0411897703470661,0.0195476876223364,0.20877583078414289,2.176357608477771,-0.006505274518429527
1403636588863555584,60.079575,285.3374380638223,7.093476833333334,-0.83356525,-6.791105125,0.0907571211037051,0.0307177948351002,0.0244346095279206,0.17592352401143144,2.1711029930069845,-0.00525461547078665
1403636588913555456,44.086218,310.00023270831446,7.093476833333334,-0.83356525,-6.791105125,0.0907571211037051,0.0307177948351002,0.0244346095279206,0.2177019707038214,2.233270114461478,0.06216712145449366
1403636588963555584,45.877456,291.1858039826407,7.387676333333332,-0.8825985,-6.644005375,0.1123992038284348,0.0607374579694026,0.0132645023151569,0.2069127300985448,2.3033323100766547,0.07006219561517657
1403636589013555456,59.999943,288.0721253878102,7.314126458333333,-0.4739880833333333,-6.415183541666666,0.1068141502220529,0.1207767842380075,0.0020943951023931,0.22790614058727535,2.3941268725776985,0.09079456250104379
1403636589063555584,44.779062,301.7137550161438,7.314126458333333,-0.4739880833333333,-6.415183541666666,0.1068141502220529,0.1207767842380075,0.0020943951023931,0.21187461010192624,2.453706683898986,0.05957981132128731
1403636589113555456,45.055628,305.4602198458944,7.461226208333334,-0.83356525,-6.390666916666666,0.1186823891356144,0.124965574442794,0.0048869219055841,0.18188650499901324,2.4928120551070707,0.03910537120808488
1403636589163555584,50.316811,324.9091698225827,7.256920999999999,-0.73549875,-6.2599115833333325,0.0705113017805709,0.1026253600172665,0.0048869219055841,0.1597977584575833,2.5770455778399,0.08423352273282925
1403636589213555456,55.457592,327.7884300866278,7.2487487916666655,-0.8580818749999999,-6.243567166666667,0.0823795406941323,0.0684169066781777,0.0481710873550434,0.2000557397016699,2.685178031079476,0.10813245323957599
1403636589263555584,44.726133,326.4917644603309,7.314126458333333,-0.5230213333333333,-6.096467416666667,0.057246799465414,-0.0111701072127637,-0.0034906585039886,0.203247239483115,2.7940092288325906,0.10883119775311467
1403636589313555456,49.751282,313.1524774259184,6.742071875,-0.7518431666666666,-5.965712083333332,0.1103048087260416,-0.0460766922526503,-0.0202458193231342,0.1963700020162823,2.9066527302751464,0.11264350144255575
1403636589363555584,50.179005,308.9838426426469,7.657359208333333,-0.2533384583333333,-6.145500666666667,0.0851720674973232,-0.075398223686155,0.0125663706143591,0.14955869120684015,2.985059452266643,0.07840672199149656
1403636589413555456,62.341451,331.04474056898766,7.01175475,-0.4985047083333333,-6.284428208333333,0.0237364778271228,0.0244346095279206,0.0111701072127637,0.14062109869275818,3.053146716353882,0.06808726408723897
1403636589463555584,36.616564,358.3734613222847,7.01175475,-0.4985047083333333,-6.284428208333333,0.0237364778271228,0.0244346095279206,0.0111701072127637,0.1483439825671136,3.1291114850573507,0.0759647687034688
1403636589513555456,50.679445,356.97205278995915,7.3549875,-0.5475379583333333,-6.537766666666666,0.0495673507566389,0.0656243798749867,0.0565486677646162,0.13007413291835174,3.1824158375404856,0.05330435248313492
1403636589563555584,50.033808,368.303984925509,7.093476833333334,-0.3759215833333333,-6.063778583333333,0.0593411945678072,0.0726056968829641,0.0565486677646162,0.12548179656103492,3.247433197964658,0.06501736042417239
1403636589613555456,60.462713,370.2648209594816,7.232404375,-0.2941994999999999,-6.382494708333334,0.0439822971502571,0.0691150383789754,0.0418879020478639,0.10073712486186764,3.26060302555269,0.013169827588031868
1403636589663555584,44.335366,384.4177591600367,7.232404375,-0.2941994999999999,-6.382494708333334,0.0439822971502571,0.0691150383789754,0.0418879020478639,0.07908248674524945,3.2841642052217956,0.02356117966910576
1403636589713555456,45.033693,351.5575954507982,7.305954249999999,-0.4004382083333333,-5.941195458333333,0.0740019602845595,0.0376991118430775,0.0335103216382911,0.08076920000849067,3.33083311318925,0.04666890796745449
1403636589763555584,50.184965,327.1781508146077,7.2487487916666655,0.0326888333333333,-6.194533916666667,0.140324471860344,-0.0209439510239319,0.064926248174189,0.08040331684447447,3.3977171162621826,0.06688400307293252
1403636589813555456,49.802542,331.25544112849866,7.134337875,0.2124774166666666,-6.1209840416666665,0.1514945790731078,-0.0795870138909414,-0.0048869219055841,0.08937305420131356,3.466383131547129,0.06866601528494654
1403636589863555584,50.134182,332.82971180457787,7.542948291666666,0.1879607916666666,-6.22722275,0.1382300767579508,-0.1277581012459849,-0.0013962634015954,0.07190708747018103,3.482987648941121,0.016604517393991713
1403636589913555456,49.715996,342.97242939237685,7.199715541666666,0.0817220833333333,-6.439700166666666,0.1577777643802873,-0.1019272283164688,0.0446804288510548,0.08754133660379806,3.4844002009743527,0.001412552033231762
1403636589963555584,50.276994,354.75423735579113,7.379504124999999,-0.0735498749999999,-6.415183541666666,0.1975712713257581,-0.0335103216382911,0.0551524043630208,0.20208793192522836,3.3651809616662587,-0.11921923930809397
1403636590013555456,49.84951,434.6865691410771,8.204897166666667,0.4494714583333333,-6.880999416666667,0.1514945790731078,0.0628318530717958,0.0502654824574366,0.1737732320469436,3.2702090209603227,-0.09497194070593595
1403636590063555584,50.185919,502.959188643099,7.371331916666667,0.2288218333333333,-6.505077833333333,0.114493598930828,0.1424188669627373,0.0160570291183478,0.19751274964392732,3.1352516036293974,-0.13495741733092537
1403636590113555456,49.853087,564.3401527308923,7.878008833333333,0.2778550833333333,-6.472389,0.1179842574348166,0.1661553447898601,0.0579449311662117,0.19704422664000074,2.967290808531373,-0.1679607950980242
1403636590163555584,49.996137,753.440421401189,7.428537374999999,0.6537766666666667,-6.439700166666666,0.0970403064108847,0.1389282084587486,0.0383972435438752,0.06023738240519288,2.9369473347509185,-0.030343473780454655
1403636590213555456,50.333977,1043.3777235780235,7.616498166666665,0.5965712083333333,-6.456044583333333,0.028623399732707,0.0914552528045028,0.0614355896702004,0.08838022423768202,2.9216499988699107,-0.01529733588100779
1403636590263555584,60.686827,1138.4342258575898,7.485742833333332,0.4739880833333333,-6.268083791666666,-0.0614355896702004,-0.0223402144255274,0.0537561409614253,0.06175138686142068,2.870390004445152,-0.051259994424758926
1403636590313555456,50.271988,876.8206102088677,7.477570624999999,0.5148491249999999,-6.431527958333334,-0.1082104136236484,-0.025830872929516,0.0879645943005142,0.09389571183494305,2.78425234898183,-0.08613765546332175
1403636590363555584,49.32189,659.4345540438189,7.428537374999999,0.465815875,-6.415183541666666,-0.1193805208364121,0.0048869219055841,0.0872664625997164,0.05399140763462741,2.738661290935479,-0.04559105804635122
1403636590413555456,43.031215,520.5018033230878,7.428537374999999,0.465815875,-6.415183541666666,-0.1193805208364121,0.0048869219055841,0.0872664625997164,0.10077526826937529,2.655735567813017,-0.08292572312246183
1403636590463555584,56.362391,425.7964551472622,7.485742833333332,0.2778550833333333,-6.137328458333333,-0.1354375499547599,0.0809832772925368,0.0851720674973232,0.10307923046626342,2.599853915796782,-0.05588165201623507
1403636590513555456,39.931774,403.4597579769244,7.485742833333332,0.2778550833333333,-6.137328458333333,-0.1354375499547599,0.0809832772925368,0.0851720674973232,0.19633632972746368,2.4432464793935282,-0.1566074364032537
1403636590563555584,59.326649,396.29427367494026,7.338643083333332,0.0980665,-5.93302325,-0.1235693110411985,0.0809832772925368,0.1130973355292325,0.13647241735880308,2.3805431760331155,-0.06270330336041274
1403636590613555456,40.327549,390.7587933510095,7.338643083333332,0.0980665,-5.93302325,-0.1235693110411985,0.0809832772925368,0.1130973355292325,0.16856008542596332,2.2756511328042137,-0.10489204322890178
1403636590663555584,50.459384,394.8338992069879,7.485742833333332,-0.1144109166666666,-6.022917541666666,-0.1242674427419962,0.0446804288510548,0.1054178868204575,0.11524772402577771,2.228504829616606,-0.0471463031876076
1403636590713555456,59.844494,371.5855217263114,7.469398416666666,-0.3023717083333333,-5.916678833333333,-0.0781907504893459,-0.046774823953448,0.1696460032938488,0.11247874353551969,2.1514935338414496,-0.07701129577515653
1403636590763555584,40.24911,410.6351594261783,7.469398416666666,-0.3023717083333333,-5.916678833333333,-0.0781907504893459,-0.046774823953448,0.1696460032938488,0.1430970299271169,2.0760870805584872,-0.07540645328296236
1403636590813555456,49.581051,400.776525385584,7.338643083333332,0.0081722083333333,-5.867645583333333,-0.0335103216382911,-0.1019272283164688,0.1598721594826805,0.1350756432452909,2.0102807152780517,-0.06580636528043549
1403636590863555584,60.407876,388.8183998998678,7.444881791666666,-0.1144109166666666,-6.300772625,-0.0677187749773799,-0.0656243798749867,0.1284562329467826,0.13474136543348464,1.946426803553642,-0.06385391172440968
1403636590913555456,39.844513,373.2618203413382,7.444881791666666,-0.1144109166666666,-6.300772625,-0.0677187749773799,-0.0656243798749867,0.1284562329467826,0.12703039865114443,1.8787540683591144,-0.06767273519452766
1403636590963555584,60.682774,385.10462356268056,7.50208725,-0.7927042083333332,-6.349805875,0.0146607657167523,0.0404916386462684,0.1207767842380075,0.15288054944727195,1.7909743862593344,-0.08777968209978004
1403636591013555456,44.991732,381.0322344256846,7.50208725,-0.7927042083333332,-6.349805875,0.0146607657167523,0.0404916386462684,0.1207767842380075,0.18703975834891826,1.6950925062669364,-0.09588187999239794
1403636591063555584,44.406652,390.7887358619771,7.363159708333333,-0.6047434166666666,-6.357978083333332,0.0356047167406843,0.0523598775598298,0.0851720674973232,0.1670695883776601,1.6406412535565358,-0.05445125271040063
1403636591113555456,50.297499,388.62695387359486,7.305954249999999,-0.8172208333333333,-6.333461458333334,0.0390953752446729,0.0376991118430775,0.114493598930828,0.11922538654037182,1.6224711431932899,-0.018170110363245895
1403636591163555584,49.976826,380.07692119671503,7.444881791666666,-0.8825985,-6.390666916666666,-0.0062831853071795,0.0146607657167523,0.1591740277818828,0.12685463848706421,1.6038758626237322,-0.018595280569557726
1403636591213555456,60.904741,373.6535792082765,7.117993458333333,-1.1522813749999998,-6.268083791666666,-0.0446804288510548,-0.0370009801422797,0.124965574442794,0.12537837115007402,1.585177800234842,-0.018698062388890158
1403636591263555584,49.630403,372.7962789912769,6.962721499999999,-1.4464808749999998,-6.292600416666667,-0.0733038285837618,-0.0404916386462684,0.1137954672300302,0.10945972722217832,1.562698857949981,-0.022478942284861025
1403636591313555456,45.909643,371.579935919556,6.962721499999999,-1.4464808749999998,-6.292600416666667,-0.0733038285837618,-0.0404916386462684,0.1137954672300302,0.08897107906764094,1.5353566040152768,-0.02734225393470413
1403636591363555584,43.767691,388.4021559534647,7.044443583333333,-1.454653083333333,-6.357978083333332,-0.0970403064108847,-0.0279252680319092,0.1263618378443894,0.1063195190529422,1.5091176111985487,-0.026238992816728146
1403636591413555456,49.766779,428.5037171369153,6.913688249999999,-1.5772362083333331,-6.112811833333333,-0.0774926187885482,0.018151424220741,0.143116998663535,0.12935248263689184,1.4762600884419663,-0.03285752275658238
1403636591463555584,54.45528,468.9460846393648,7.469398416666666,-0.8907707083333333,-6.235394958333333,-0.0342084533390888,0.0195476876223364,0.1319468914507713,0.14611342415494993,1.483715597149557,0.007455508707590708
1403636591513555456,48.606158,363.6558114726716,7.322298666666667,-0.9234595416666666,-6.382494708333334,-0.1494001839707146,0.0984365698124801,0.0970403064108847,0.1528898188376181,1.4838428596392725,0.00012726248971550724
1403636591563555584,46.821356,311.4723210588889,7.395848541666666,-0.8580818749999999,-6.3089448333333324,-0.247138622082397,0.2136283004441059,0.1577777643802873,0.1872516008926455,1.4868158214918852,0.0029729618526126433
1403636591613555456,60.528993,310.56946360292443,7.256920999999999,-0.9970094166666666,-6.5704555,-0.2275909344600605,0.4118977034706618,0.1347394182539622,0.20555435960206764,1.521997878377689,0.03518205688580389
1403636591663555584,39.577961,371.237352970358,7.256920999999999,-0.9970094166666666,-6.5704555,-0.2275909344600605,0.4118977034706618,0.1347394182539622,0.2180472594438768,1.5985650188768321,0.07656714049914304
1403636591713555456,60.506582,353.63345023789986,8.115002875,-0.4249548333333333,-6.153672874999999,-0.2268928027592628,0.4523893421169302,0.0767944870877505,0.22252997415573342,1.7039692072272776,0.10540418835044552
1403636591763555584,42.525053,313.1460236561149,8.115002875,-0.4249548333333333,-6.153672874999999,-0.2268928027592628,0.4523893421169302,0.0767944870877505,0.22046099739302943,1.8477798461714323,0.1438106389441547
1403636591813555456,61.172486,309.127409267507,8.18855275,0.04903325,-5.483551791666667,-0.1815142422074102,0.3518583772020568,0.1396263401595463,0.1910177657240785,1.9812397537810993,0.13345990760966697
1403636591863555584,36.091089,362.8029241112304,8.18855275,0.04903325,-5.483551791666667,-0.1815142422074102,0.3518583772020568,0.1396263401595463,0.21381450679106628,2.1571391894641803,0.17589943568308097
1403636591913555456,50.513267,497.6777204829859,7.657359208333333,-0.44129925,-5.426346333333333,-0.1605702911834783,0.2017600615305445,0.2017600615305445,0.17547524014108073,2.309361130753784,0.15222194128960354
1403636591963555584,49.760342,518.5077211801575,8.556302125,0.367749375,-4.985047083333333,-0.140324471860344,-0.0244346095279206,0.247138622082397,0.16992791066068608,2.465448700055294,0.15608756930151024
1403636592013555456,49.945593,390.1762021274815,8.098658458333333,0.2941994999999999,-4.674503166666667,-0.1870992958137921,-0.1445132620651305,0.2052507200345331,0.1401105285470793,2.598077126119121,0.13262842606382685
1403636592063555584,53.434849,411.1286566140007,8.450063416666666,0.1552719583333333,-4.870636166666666,-0.210835773640915,-0.1179842574348166,0.2834414705238791,0.10854459029830858,2.7057334642622175,0.10765633814309661
1403636592113555456,57.081699,432.52583823069,8.106830666666665,-0.4739880833333333,-5.222041125,-0.1815142422074102,-0.15079644737231,0.2261946710584651,0.0906007522402426,2.7962392977013577,0.0905058334391402
1403636592163555584,38.825751,438.93969916436606,8.106830666666665,-0.4739880833333333,-5.222041125,-0.1815142422074102,-0.15079644737231,0.2261946710584651,0.0718979973099195,2.853460460696977,0.05722116299561941
1403636592213555456,50.681829,481.9101554643731,8.343824708333333,-0.5720545833333333,-5.516240625,-0.132645023151569,-0.1759291886010284,0.1500983156715123,0.042244225657072025,2.896728976956655,0.04326851625967798
1403636592263555584,49.870253,586.4826961433407,7.992419749999999,-0.93163175,-5.712373625,-0.0551524043630208,-0.1570796326794896,0.114493598930828,0.032903661964971916,2.8876641799234837,-0.009064797033171423
1403636592313555456,49.940347,524.2244759242296,7.9433865,-1.1604535833333331,-5.442690750000001,0.0132645023151569,-0.1305506280491758,0.1207767842380075,0.08569679548292052,2.83411937510103,-0.05354480482245361
1403636592363555584,49.610138,451.9098552968455,7.853492208333332,-0.9479761666666666,-5.990228708333333,0.0984365698124801,-0.124965574442794,0.1165879940332212,0.11432151663856277,2.7999726894819625,-0.03414668561906753
1403636592413555456,50.153017,352.1137832724033,7.9433865,-1.397447625,-5.720545833333333,0.1877974275145898,-0.0788888821901436,0.0788888821901436,0.09613726464890024,2.808900540510561,0.00892785102859861
1403636592463555584,49.998522,314.3435507999204,7.722736874999999,-1.5036863333333332,-6.137328458333333,0.2171189589480945,0.018151424220741,-0.028623399732707,0.11307729708625301,2.7279834048524827,-0.08091713565807845
1403636592513555456,59.738159,247.4758333951023,7.232404375,-1.52003075,-5.990228708333333,0.3204424506661589,0.2087413785385218,-0.1005309649148733,0.12171015334031837,2.629649497552085,-0.0983339073003977
1403636592563555584,40.047646,232.8880559242577,7.232404375,-1.52003075,-5.990228708333333,0.3204424506661589,0.2087413785385218,-0.1005309649148733,0.03712233106575984,2.620089191384232,-0.009560306167852861
1403636592613555456,59.966326,242.54819918149215,7.559292708333333,-1.4464808749999998,-6.014745333333333,0.3197443189653611,0.1514945790731078,-0.1731366617978375,0.06541686798491418,2.573897213231079,-0.04619197815315301
1403636592663555584,44.421672,287.3150678537343,7.559292708333333,-1.4464808749999998,-6.014745333333333,0.3197443189653611,0.1514945790731078,-0.1731366617978375,0.04619080761870022,2.568799796354911,-0.005097416876167937
1403636592713555456,45.410395,310.2819641415987,7.117993458333333,-1.3075533333333331,-6.096467416666667,0.3406882699892931,0.0837758040957278,-0.171740398396242,0.015082574526891062,2.5664665116304866,-0.0023332847244246224
1403636592763555584,49.968004,280.7809597592738,7.673703624999999,-1.7325081666666666,-6.447872374999999,0.4705407663376713,0.0223402144255274,-0.1500983156715123,0.033208920502903326,2.585328829621652,0.018862317991165334
1403636592813555456,49.744129,249.82038550981733,6.635833166666666,-1.6589582916666663,-6.42335575,0.4935791124639964,-0.0300196631343024,-0.1473057888683213,0.086530717771624,2.511535547861874,-0.07379328175977795
1403636592863555584,61.14626,208.03481229179707,6.954549291666666,-1.454653083333333,-7.0689602083333325,0.5110324049839398,-0.1193805208364121,-0.1912880860185785,0.15623433055418398,2.3907125805087666,-0.12082296735310738
1403636592913555456,38.606167,216.35212888266452,6.954549291666666,-1.454653083333333,-7.0689602083333325,0.5110324049839398,-0.1193805208364121,-0.1912880860185785,0.20075746720113619,2.233243836983757,-0.15746874352500972
1403636592963555584,55.092573,205.4157807747295,6.782932916666666,-1.6017528333333333,-6.880999416666667,0.5459389900238263,-0.1158898623324234,-0.1312487597499735,0.25580056812760654,2.039876349863167,-0.19336748712058993
1403636593013555456,45.029402,185.44077501318392,7.134337875,-1.5608917916666667,-7.142510083333334,0.5703735995517468,-0.1305506280491758,-0.1452113937659282,0.3621469012763685,1.797209936810907,-0.24266641305226
1403636593063555584,49.79372,207.5254706307892,7.044443583333333,-0.9479761666666666,-6.962721499999999,0.4600687908257052,-0.0984365698124801,-0.189891822616983,0.231946932662899,1.6367506383577195,-0.1604592984531874
1403636593113555456,53.860426,188.1184424501612,6.782932916666666,-1.5363751666666667,-7.322298666666667,0.5305800926062761,-0.0767944870877505,-0.1689478715930511,0.26994919266683404,1.436309133482859,-0.20044150487486045
1403636593163555584,45.978307,208.64721614652103,7.281437625,-0.4821602916666666,-6.848310583333333,0.4461061568097506,-0.0321140582366956,-0.0907571211037051,0.18481006314812376,1.341857173868912,-0.09445195961394703
1403636593213555456,49.565793,191.2528074071901,7.019926958333333,-0.8662540833333333,-6.897343833333333,0.5124286683855351,-0.0090757121103705,0.0781907504893459,0.1758315409277198,1.2766396022206656,-0.06521757164824638
1403636593263555584,51.104068,221.34038638295527,7.019926958333333,0.0326888333333333,-6.684866416666666,0.4014257279586957,-0.0328121899374933,0.0356047167406843,0.1368740772610505,1.2540329099406324,-0.022606692280033203
1403636593313555456,49.819231,250.67105255146916,7.191543333333333,0.171616375,-6.5704555,0.2918190509334519,-0.0823795406941323,0.057246799465414,0.16154454979960228,1.237192619410609,-0.01684029053002334
1403636593363555584,50.295353,301.35237041451325,6.774760708333333,0.1062387083333333,-6.456044583333333,0.1228711793404008,-0.0886627260013119,-0.0195476876223364,0.12683010273174208,1.2154199153537428,-0.021772704056866266
1403636593413555456,49.800158,389.0410181630198,7.273265416666667,0.73549875,-6.439700166666666,0.0642281164733913,-0.0593411945678072,0.0760963553869527,0.0521682094069313,1.1775670218794814,-0.03785289347426146
1403636593463555584,61.267137,449.24622114361216,7.395848541666666,0.4985047083333333,-6.014745333333333,-0.1815142422074102,-0.0411897703470661,0.1577777643802873,0.05210107600441031,1.1378810154644192,-0.03968600641506215
1403636593513555456,38.478136,441.36200028548006,7.395848541666666,0.4985047083333333,-6.014745333333333,-0.1815142422074102,-0.0411897703470661,0.1577777643802873,0.04347660128924043,1.1059959228905685,-0.03188509257385075
1403636593563555584,50.281048,440.17644152291547,7.387676333333332,0.3759215833333333,-6.039261958333333,-0.1117010721276371,-0.0614355896702004,0.268082573106329,0.009976104944611012,1.1028375601210294,-0.0031583627695390692
1403636593613555456,49.930573,381.9249423371964,7.583809333333333,0.1797885833333333,-6.088295208333333,-0.2359685148696333,-0.1172861257340189,0.3106686068549906,0.10292099955225818,1.1008352010224711,-0.0020023590985582818
1403636593663555584,49.710512,372.14918225892177,7.40402075,0.4249548333333333,-6.3089448333333324,-0.260403124397554,-0.1165879940332212,0.3651228795172137,0.16631766731063818,1.1249031404417085,0.02406793941923735
1403636593713555456,50.274372,331.1807945939226,7.992419749999999,0.3105439166666667,-6.006573125,-0.411199571769864,-0.1117010721276371,0.4146902302738527,0.2094108379667997,1.1983471511906736,0.07344401074896512
1403636593763555584,54.886341,294.5075544702082,7.338643083333332,0.2615106666666666,-6.456044583333333,-0.5019566928735693,-0.0376991118430775,0.4544837372193234,0.1962644396537944,1.3217397961902928,0.12339264499961922
1403636593813555456,59.088945,267.6037485784481,7.984247541666667,-0.2860272916666666,-6.137328458333333,-0.6695083010650248,0.1919862177193762,0.5082398781807488,0.13195164883204435,1.3808263572159865,0.05908656102569365
1403636593863555584,41.407109,226.46490368544283,7.984247541666667,-0.2860272916666666,-6.137328458333333,-0.6695083010650248,0.1919862177193762,0.5082398781807488,0.17234142622893076,1.5046755753252687,0.12384921810928229
1403636593913555456,44.565677,205.83554428880373,8.270274833333334,-0.2778550833333333,-5.728718041666665,-0.7037167544041136,0.2750638901143063,0.5445427266222308,0.16852257565064724,1.6161406129197833,0.11146503759451454
1403636593963555584,60.720444,191.3511404851589,8.3356525,-0.6701210833333332,-5.083113583333333,-0.7504915783575618,0.2925171826342496,0.468446371235278,0.1845658924793654,1.7364750973737106,0.12033448445392736
1403636594013555456,50.81892,176.58772688646587,8.523613291666665,-0.9643205833333331,-5.099458,-0.7225663103256523,0.2122320370425104,0.4279547325890095,0.19715131567035654,1.8554447587519352,0.11896966137822451
1403636594063555584,49.10636,185.08447228968907,8.351996916666666,-0.8662540833333333,-4.527403416666666,-0.6590363255530588,0.1361356816555577,0.4796164784480418,0.24745742326656525,2.029563912741823,0.17411915398988786
1403636594113555456,39.304256,196.80202328972592,8.351996916666666,-0.8662540833333333,-4.527403416666666,-0.6590363255530588,0.1361356816555577,0.4796164784480418,0.3157742806684005,2.281940874232476,0.2523769614906528
1403636594163555584,55.151701,206.89279059303456,8.38468575,-0.93163175,-4.56009225,-0.578053048260522,0.0390953752446729,0.3916518841475275,0.20145676173297591,2.4379042410157115,0.15596336678323564
1403636594213555456,54.970741,205.89404523147311,8.433719,-1.1359369583333332,-4.8216029166666665,-0.4419173666049642,0.0139626340159546,0.2415535684760151,0.18829773152228405,2.5616476574920357,0.12374341647632425
1403636594263555584,40.046931,207.7954219296404,8.433719,-1.1359369583333332,-4.8216029166666665,-0.4419173666049642,0.0139626340159546,0.2415535684760151,0.17697778641173884,2.658351372319868,0.09670371482783224
1403636594313555456,56.422949,201.16465698437904,8.556302125,-1.2176590416666666,-4.960530458333333,-0.3630284844148205,0.0376991118430775,0.1354375499547599,0.1431489134851397,2.6136731558972484,-0.0446782164226196
1403636594363555584,43.691158,197.76315076582503,8.433719,-1.2176590416666666,-5.140319041666666,-0.3406882699892931,0.0747000919853573,0.0977384381116824,0.24899234191098643,2.5817423884534665,-0.03193076744378187
1403636594413555456,59.598446,220.10497558295955,8.139519499999999,-1.348414375,-5.532585041666667,-0.1556833692778942,0.2254965393576673,-0.0335103216382911,0.2990457167114807,2.6308100578895006,0.049067669436034134
1403636594463555584,44.032335,263.79010061525474,8.139519499999999,-1.348414375,-5.532585041666667,-0.1556833692778942,0.2254965393576673,-0.0335103216382911,0.22420396706317383,2.742417122943339,0.11160706505383855
1403636594513555456,56.316853,308.21968063956984,7.093476833333334,-2.10842975,-6.071950791666666,0.0390953752446729,0.257610597594363,0.1396263401595463,0.2455906568462809,2.9516811457713654,0.20926402282802625
1403636594563555584,49.508571,250.39087415308472,7.338643083333332,-2.533384583333333,-6.464216791666666,0.0530580092606276,0.1996656664281513,0.0991347015132779,0.3375076584355835,3.2529059226451116,0.30122477687374616
1403636594613555456,44.365883,249.95608592235095,7.338643083333332,-2.533384583333333,-6.464216791666666,0.0530580092606276,0.1996656664281513,0.0991347015132779,0.2886544602619455,3.4800859395150785,0.22718001686996692
1403636594663555584,46.364308,258.5129118832001,6.9300326666666665,-2.7131731666666665,-6.505077833333333,0.1089085453244461,0.1556833692778942,0.1466076571675237,0.18329506410449087,3.638865755730996,0.15877981621591752
1403636594713555456,49.619674,263.0704045752447,6.979065916666666,-2.941995,-6.398839124999999,0.1584758960810851,0.1089085453244461,-0.007679448708775,0.1023089550438029,3.7217349075012987,0.08286915177030263
1403636594763555584,56.064844,257.88201075481606,6.9300326666666665,-2.8357562916666668,-6.42335575,0.278554548618295,0.0823795406941323,-0.0984365698124801,0.14865902473716305,3.7307017599038597,0.00896685240256101
1403636594813555456,54.547787,248.5218452889172,7.1588545,-2.909306166666666,-6.742071875,0.4447098934081551,0.0942477796076938,-0.2282890661608583,0.12303554044963236,3.7631112097072843,0.03240944980342464
1403636594863555584,39.211035,233.95213571531863,7.1588545,-2.909306166666666,-6.742071875,0.4447098934081551,0.0942477796076938,-0.2282890661608583,0.10308032720238296,3.8567463863403164,0.09363517663303211
1403636594913555456,60.126781,230.80763050155133,6.880999416666667,-2.0757409166666667,-6.807449541666666,0.6290166624187563,0.0698131700797731,-0.3895574890451343,0.1342628389363282,4.000421737050766,0.14367535071045
1403636594963555584,50.426007,216.3205564612128,7.085304625,-1.5608917916666667,-6.954549291666666,0.7819075048934596,0.0439822971502571,-0.2562143341927675,0.08950698931151405,4.0952242077667815,0.09480247071601511
1403636595013555456,38.958072,201.9848297746271,7.085304625,-1.5608917916666667,-6.954549291666666,0.7819075048934596,0.0439822971502571,-0.2562143341927675,0.03610994058120258,4.1539592457870995,0.05873503802031799
1403636595063555584,50.434113,183.840707922274,6.962721499999999,-1.1604535833333331,-6.32528925,0.7665486074759096,-0.0530580092606276,-0.3846705671395502,0.18472004674049092,4.068922975183663,-0.08503627060343621
1403636595113555456,49.934625,181.2862434067848,7.50208725,-0.4821602916666666,-6.5704555,0.7302457590344275,-0.1019272283164688,-0.2820452071222836,0.33905409550658444,4.098260674231099,0.029337699047435883
1403636595163555584,50.139905,173.6963139232434,7.273265416666667,-0.220649625,-6.684866416666666,0.718377520120866,-0.1165879940332212,-0.2492330171847902,0.28183656928462586,4.13925112089338,0.040990446662281244
1403636595213555456,60.733318,173.9687536760396,7.003582541666666,0.8008764166666666,-6.684866416666666,0.6346017160251382,-0.1117010721276371,-0.1591740277818828,0.3051550922656726,4.231842605945428,0.09259148505204795
1403636595263555584,39.551735,181.0800057055714,7.003582541666666,0.8008764166666666,-6.684866416666666,0.6346017160251382,-0.1117010721276371,-0.1591740277818828,0.239158063700994,4.390748237280909,0.15890563133548063
1403636595313555456,60.536861,194.3392408582208,7.428537374999999,1.6017528333333333,-6.586799916666666,0.3637266161156182,-0.0740019602845595,-0.104021623418862,0.21191305218386372,4.588874463161558,0.19812622588064865
1403636595363555584,42.762995,239.5373666763288,7.428537374999999,1.6017528333333333,-6.586799916666666,0.3637266161156182,-0.0740019602845595,-0.104021623418862,0.20058883271485858,4.788950603197922,0.20007614003636398
1403636595413555456,46.34285,286.7909731330295,7.771770125,1.5363751666666667,-6.627660958333332,0.2981022362406315,-0.0495673507566389,-0.0118682389135614,0.12867475904125236,4.920331408694351,0.1313808054964296
1403636595463555584,50.365448,394.3050133317576,7.518431666666666,1.9449855833333327,-6.292600416666667,0.1424188669627373,-0.0551524043630208,0.0139626340159546,0.07594290202121315,4.899948596499428,-0.02038281219492344
1403636595513555456,49.885988,458.5612438015516,7.567464916666665,1.5854084166666664,-6.357978083333332,0.1033234917180643,-0.0726056968829641,0.0851720674973232,0.08710461054603696,4.980187269472131,0.08023867297270293
1403636595563555584,50.306559,506.15060809030535,7.837147791666666,1.6344416666666666,-6.219050541666666,0.0495673507566389,-0.0907571211037051,0.0013962634015954,0.10014502270678166,5.061512531023349,0.08132526155121855
1403636595613555456,49.680471,496.8529559920143,7.436709583333332,1.454653083333333,-6.047434166666666,-0.0851720674973232,-0.0781907504893459,0.0872664625997164,0.10841413640806886,4.977883581571463,-0.08362894945188604
1403636595663555584,49.998283,436.7459588701947,7.927042083333333,1.103248125,-6.047434166666666,-0.1773254520026238,-0.0565486677646162,0.1096066770252439,0.09185344756767705,4.888436052843278,-0.08944752872818551
1403636595713555456,49.290896,327.5545240809941,7.567464916666665,0.9398039583333332,-5.646995958333333,-0.335801348083709,-0.007679448708775,0.179419847105017,0.16427445565335966,4.733634786049347,-0.15480126679393091
1403636595763555584,50.236225,267.8181350992062,7.886181041666666,0.5230213333333333,-5.93302325,-0.4440117617073574,0.007679448708775,0.1242674427419962,0.19857088545002996,4.507200953378987,-0.22643383267035944
1403636595813555456,50.402641,225.7104199513165,7.869836625,0.122583125,-5.524412833333333,-0.6171484235051949,0.0579449311662117,0.249931148885588,0.08576364418679379,4.4734040867603895,-0.03379686661859793
1403636595863555584,59.607029,235.68365097033623,7.673703624999999,-0.7518431666666666,-5.93302325,-0.6387905062299246,0.0216420827247296,0.374896723328382,0.14964287624370615,4.578167795756022,0.10476370899563214
1403636595913555456,39.56604,227.231445066522,7.673703624999999,-0.7518431666666666,-5.93302325,-0.6387905062299246,0.0216420827247296,0.374896723328382,0.13228472270398522,4.436734412508247,-0.141433383247775
1403636595963555584,50.777674,236.71069252061363,7.673703624999999,-1.5282029583333332,-6.3743225,-0.5612978874413763,-0.0209439510239319,0.3560471674068432,0.03619370443415847,4.444666278009605,0.007931865501358715
1403636596013555456,54.737806,234.9561388662736,7.518431666666666,-1.91229675,-6.333461458333334,-0.611563369898813,-0.0677187749773799,0.3378957431861022,0.012259648572088947,4.4123733297279495,-0.03229294828165585
1403636596063555584,58.709145,247.4881048196164,7.779942333333333,-3.138128,-6.333461458333334,-0.4342379178961891,-0.0600393262686049,0.3637266161156182,0.09074390815071177,4.321873894036887,-0.09049943569106222
1403636596113555456,39.410829,264.3136151163572,7.779942333333333,-3.138128,-6.333461458333334,-0.4342379178961891,-0.0600393262686049,0.3637266161156182,0.1410745511403311,4.198714612234928,-0.1231592818019589
1403636596163555584,57.468892,326.52229260680014,7.608325958333333,-3.587599458333333,-6.668522,-0.1521927107739055,0.0558505360638185,0.2869321290278678,0.17429937323074218,4.091311339029358,-0.10740327320557075
1403636596213555456,50.831079,463.3731841895498,8.172208333333334,-2.50069575,-6.513250041666667,-0.0684169066781777,0.0677187749773799,0.2338741197672401,0.19658950414894663,3.9942633538987584,-0.0970479851305992
1403636596263555584,42.962313,471.0946685202415,8.172208333333334,-2.50069575,-6.513250041666667,-0.0684169066781777,0.0677187749773799,0.2338741197672401,0.05085490311378418,3.9705145662906305,-0.02374878760812793
1403636596313555456,57.508945,405.5436329377495,7.706392458333333,-1.5363751666666667,-6.529594458333333,-0.0404916386462684,0.1019272283164688,0.1047197551196597,0.21118859473025406,4.102723365956927,0.13220879966629662
1403636596363555584,49.242497,364.1367602940621,7.583809333333333,-0.83356525,-6.063778583333333,-0.0328121899374933,0.1354375499547599,0.0132645023151569,0.1516503580109529,4.238044616205261,0.1353212502483343
1403636596413555456,42.453766,329.4515319073291,7.583809333333333,-0.83356525,-6.063778583333333,-0.0328121899374933,0.1354375499547599,0.0132645023151569,0.044507764475666865,4.250507536238519,0.012462920033257774
1403636596463555584,47.01066,305.1869418319457,7.690048041666667,-0.3759215833333333,-5.238385541666666,0.0349065850398865,0.1480039205691191,0.0013962634015954,0.04243353245770121,4.2625202074941955,0.012012671255676288
1403636596513555456,49.942016,312.2548451663173,8.605335375,0.0408610416666666,-5.066769166666667,0.0397935069454707,0.1200786525372098,-0.0691150383789754,0.047869074524237276,4.248895607604659,-0.013624599889536348
1403636596563555584,60.211182,357.8007807413276,8.7279185,0.44129925,-4.543747833333333,-0.0167551608191455,0.0041887902047863,0.0195476876223364,0.40485177793528154,4.620558471872476,0.37166286426781703
1403636596613555456,50.617933,411.1805374626043,7.886181041666666,0.809048625,-4.184170666666667,0.0195476876223364,-0.0342084533390888,0.0474729556542457,0.14558937214347242,4.762811093033965,0.1422526211614885
1403636596663555584,50.154448,433.40594400670216,9.112012291666666,1.12776475,-3.947176625,0.0272271363311115,-0.0195476876223364,0.0383972435438752,0.11826037123204164,4.879008865100344,0.11619777206637938
1403636596713555456,42.150259,474.99472741523016,9.112012291666666,1.12776475,-3.947176625,0.0272271363311115,-0.0195476876223364,0.0383972435438752,0.08498529862233832,4.9605015940732535,0.08149272897290949
1403636596763555584,47.017097,571.9745859444505,8.662540833333333,1.1114203333333332,-3.857282333333333,0.0300196631343024,0.054454272662223,-0.0481710873550434,0.062061941938916565,5.01489997474788,0.05439838067462688
1403636596813555456,50.027609,538.2607163673586,9.112012291666666,1.0869037083333333,-3.7673880416666665,0.0062831853071795,0.1521927107739055,0.036302848441482,0.06979236573226769,5.067947969640578,0.0530479948926974
1403636596863555584,49.96562,473.1290245428854,9.07115125,0.8499096666666667,-3.8164212916666655,-0.0321140582366956,0.1528908424747032,-0.0816814089933346,0.07017630059239982,5.10540928516941,0.03746131552883192
1403636596913555456,60.92,434.64041510746256,8.940395916666665,0.5883989999999999,-3.9880376666666666,-0.0698131700797731,-0.0104719755119659,-0.0879645943005142,0.12231248815907284,5.19299122729227,0.08758194212285986
1403636596963555584,49.068451,477.4977158064791,8.409202375,0.4331270416666666,-4.3721314583333335,-0.0516617458590321,-0.1130973355292325,0.1068141502220529,0.13799687354220092,5.293440527089108,0.10044929979683825
1403636597013555456,39.782286,429.2161703236553,8.409202375,0.4331270416666666,-4.3721314583333335,-0.0516617458590321,-0.1130973355292325,0.1068141502220529,0.16624470037566738,5.441798823495823,0.14835829640671516
1403636597063555584,50.292492,422.7918182736843,8.490924458333334,0.5883989999999999,-4.8216029166666665,0.0104719755119659,-0.2247984076568696,-0.0083775804095727,0.16665196325886622,5.592109389685775,0.15031056618995198
1403636597113555456,49.505234,364.5043300787804,8.523613291666665,0.1062387083333333,-5.311935416666666,0.1473057888683213,-0.208043246837724,0.1110029404268393,0.08879102734377677,5.677457032107895,0.08534764242212045
1403636597163555584,60.843706,377.57382998715406,8.458235625,-0.1389275416666666,-6.022917541666666,0.21851522234969,-0.0670206432765822,-0.046774823953448,0.10560644960705613,5.771317360649006,0.09386032854111015
1403636597213555456,50.402164,311.6179762079413,7.828975583333331,-0.4494714583333333,-6.145500666666667,0.2687807048071267,0.0202458193231342,-0.1200786525372098,0.06763447340308977,5.815247994947099,0.04393063429809363
1403636597263555584,49.793005,282.4758184586658,7.9433865,-1.046042666666667,-6.03108975,0.2415535684760151,0.1019272283164688,-0.1179842574348166,0.0801982934881273,5.757180645650766,-0.058067349296333504
1403636597313555456,42.454481,248.9835952465678,7.9433865,-1.046042666666667,-6.03108975,0.2415535684760151,0.1019272283164688,-0.1179842574348166,0.09823313090279212,5.674712257488861,-0.08246838816190483
1403636597363555584,57.192564,259.2754003847229,7.273265416666667,-0.9152873333333332,-6.42335575,0.2624975194999471,0.0998328332140756,-0.1731366617978375,0.16327943036971043,5.522974584123525,-0.15173767336533572
1403636597413555456,39.315939,274.5622899489189,7.273265416666667,-0.9152873333333332,-6.42335575,0.2624975194999471,0.0998328332140756,-0.1731366617978375,0.19375986641535176,5.346033252481378,-0.17694133164214687
1403636597463555584,63.430786,311.2762957848404,6.407011333333333,-1.6099250416666664,-7.003582541666666,0.3588396942100341,0.1172861257340189,-0.1494001839707146,0.19220313063425784,5.166498441966221,-0.17953481051515752
1403636597513555456,36.47089,318.95962145637526,6.407011333333333,-1.6099250416666664,-7.003582541666666,0.3588396942100341,0.1172861257340189,-0.1494001839707146,0.16981629786412086,5.007449935255769,-0.15904850671045168
1403636597563555584,50.146103,356.7365727990724,6.537766666666666,-1.0950759166666666,-7.363159708333333,0.4146902302738527,0.143116998663535,-0.1459095254667259,0.2223404654539983,4.796149211382563,-0.2113007238732063
1403636597613555456,50.012589,362.54417413465467,6.153672874999999,-1.52003075,-7.50208725,0.5012585611727715,0.1968731396249603,-0.0237364778271228,0.16100512393712899,4.655589344525173,-0.14055986685738997
1403636597663555584,50.001859,356.7610706554339,6.341633666666666,-1.3075533333333331,-7.5511205,0.4642575810304917,0.2010619298297467,-0.0474729556542457,0.14902792634290105,4.517284518574502,-0.13830482595067117
1403636597713555456,49.864293,321.1797823962904,6.513250041666667,-1.0950759166666666,-7.493915041666666,0.4328416544945937,0.2031563249321399,-0.0404916386462684,0.10681634892725156,4.422100122226387,-0.09518439634811493
1403636597763555584,53.77531,311.8357688781007,6.774760708333333,-0.7600153749999999,-7.436709583333332,0.3246312408709453,0.1884955592153876,-0.0565486677646162,0.15371752692011378,4.284601511596319,-0.1374986106300673
1403636597813555456,46.345234,319.8103963731833,6.7502440833333335,-0.3105439166666667,-7.183371125,0.2597049926967562,0.179419847105017,-0.0397935069454707,0.14127571508750783,4.166152016833231,-0.1184494947630883
1403636597863555584,60.730457,345.7785576715561,7.10982125,0.0326888333333333,-6.586799916666666,0.1500983156715123,0.0537561409614253,-0.1068141502220529,0.10294076089449214,4.1736387452896375,0.007486728456406411
1403636597913555456,50.288439,367.748118012678,7.461226208333334,0.2288218333333333,-6.357978083333332,0.0488692190558412,-0.0188495559215387,-0.1026253600172665,0.09959193548430578,4.161964167002717,-0.011674578286920756
1403636597963555584,50.040007,370.0774046907224,7.591981541666666,0.122583125,-5.875817791666666,0.0712094334813686,-0.0998328332140756,-0.0397935069454707,0.10944224361508037,4.160096235207038,-0.001867931795678679
1403636598013555456,38.882971,333.57075809697307,7.591981541666666,0.122583125,-5.875817791666666,0.0712094334813686,-0.0998328332140756,-0.0397935069454707,0.12167035471102076,4.197716464948342,0.037620229741303746
1403636598063555584,50.073385,317.717259621314,7.444881791666666,0.3595771666666666,-5.712373625,-0.0132645023151569,-0.1452113937659282,0.0907571211037051,0.1192897422629801,4.2296692111846,0.0319527462362581
1403636598113555456,49.85547,270.30458114010776,7.878008833333333,0.4739880833333333,-5.4998962083333325,0.0342084533390888,-0.2436479635784084,0.0900589894029074,0.20738334149760373,4.347853113762943,0.11818390257834288
1403636598163555584,60.699225,243.133500903588,8.106830666666665,0.4004382083333333,-4.837947333333333,-0.0740019602845595,-0.374896723328382,0.1082104136236484,0.10750303458606206,4.411789456093777,0.0639363423308339
1403636598213555456,50.31085,221.2567847717894,8.164036124999999,0.6292600416666666,-4.543747833333333,-0.1291543646475804,-0.3609340893124273,0.0202458193231342,0.11603965430527446,4.487211239032462,0.07542178293868496
1403636598263555584,39.03532,226.6635407961228,8.164036124999999,0.6292600416666666,-4.543747833333333,-0.1291543646475804,-0.3609340893124273,0.0202458193231342,0.08692330743497449,4.565547558011383,0.07833631897892168
1403636598313555456,71.746111,274.6141319439225,8.5317855,0.4331270416666666,-4.478370166666666,-0.1961750079241626,-0.1368338133563554,0.0272271363311115,0.11200810189395966,4.632444315809474,0.06689675779809079
1403636598363555584,42.971373,367.3427858071734,8.817812791666666,0.5066769166666666,-4.682675375,-0.1668534764906579,-0.0397935069454707,0.0921533845053006,0.10433702483487092,4.6825017667149345,0.05005745090546032
1403636598413555456,46.146154,454.01542977957007,8.768779541666666,0.465815875,-4.600953291666666,-0.0893608577021096,0.0488692190558412,0.0244346095279206,0.11791253883017844,4.762249639601681,0.07974787288674623
1403636598463555584,49.500943,522.590927490116,9.210078791666666,0.122583125,-5.066769166666667,0.0020943951023931,0.1675516081914556,0.0558505360638185,0.12078647289909021,4.871008165820829,0.10875852621914817
1403636598513555456,43.201446,556.5070761802992,9.210078791666666,0.122583125,-5.066769166666667,0.0020943951023931,0.1675516081914556,0.0558505360638185,0.10403989472892373,4.976046402974691,0.10503823715386229
1403636598563555584,46.839714,393.3212741098768,8.311135875,0.2369940416666666,-4.927841624999999,0.0956440430092892,0.2701769682087222,0.0321140582366956,0.08738567934421658,5.060603011734957,0.08455660876026627
1403636598613555456,49.716473,325.1334613919664,8.5317855,-0.0653776666666666,-5.352796458333333,0.1389282084587486,0.325329372571743,0.0453785605518525,0.12995945537276893,5.16528120403133,0.10467819229637243
1403636598663555584,53.675651,286.94591473454074,7.714564666666666,0.0898942916666666,-5.107630208333333,0.1731366617978375,0.3707079331235955,0.0272271363311115,0.10695282149460192,5.2391511283927175,0.07386992436138762
1403636598713555456,46.278715,285.7327042843932,7.649186999999999,-0.4985047083333333,-5.426346333333333,0.2687807048071267,0.4202752838802345,0.0684169066781777,0.13436685875305404,5.337710663098965,0.09855953470624712
1403636598763555584,60.556651,270.2424648447125,7.60015375,-0.2043052083333333,-5.483551791666667,0.2247984076568696,0.4879940588576146,0.0886627260013119,0.16105572821648872,5.451020863563218,0.11331020046425344
1403636598813555456,49.752712,293.2348199552151,7.461226208333334,-0.44129925,-5.271074375,0.104021623418862,0.5249950389998943,0.1151917306316257,0.09417155735339822,5.525460700582271,0.0744398370190531
1403636598863555584,39.525032,284.0942667915771,7.461226208333334,-0.44129925,-5.271074375,0.104021623418862,0.5249950389998943,0.1151917306316257,0.045010110687271246,5.54662234074179,0.02116164015951849
1403636598913555456,50.242185,343.32529097151485,8.123175083333333,-0.1797885833333333,-5.238385541666666,0.0425860337486616,0.4293509959906051,0.0816814089933346,0.061590857303656335,5.601524144682506,0.054901803940716754
1403636598963555584,49.975157,365.4356777120744,8.025108583333333,-0.93163175,-5.4998962083333325,-0.0328121899374933,0.3804817769347638,0.0530580092606276,0.08241903493509273,5.676996414746696,0.07547227006418922
1403636599013555456,49.774647,419.1328639879253,9.185562166666664,-0.5066769166666666,-5.303763208333334,0.0265290046303138,0.3050835532486088,-0.0411897703470661,0.08106627769151731,5.760335644406566,0.08333922965987028
1403636599063555584,50.306559,354.923517676728,8.956740333333332,-0.8253930416666666,-5.516240625,0.1319468914507713,0.403520123061089,0.2380629099720265,0.07751768715154436,5.82737075480093,0.0670351103943645
1403636599113555456,53.071499,303.76073126987905,9.504278291666663,-0.5883989999999999,-5.009563708333333,0.1514945790731078,0.4593706591249075,0.0998328332140756,0.05977594528643991,5.853031080474609,0.025660325673678486
1403636599163555584,46.813249,233.82334217075947,9.447072833333332,-0.269682875,-4.519231208333333,0.1382300767579508,0.5696754678509492,0.1033234917180643,0.04901776854250557,5.865642644992651,0.012611564518041796
1403636599213555456,49.870253,200.04458639620464,9.340834125,-0.6292600416666666,-3.87362675,-0.0390953752446729,0.6897541203881591,0.046774823953448,0.05111221057789325,5.878745939274015,0.013103294281364697
1403636599263555584,61.008215,226.9869227081494,9.177389958333332,-0.4576436666666666,-3.342433208333333,-0.0293215314335047,0.5326744877086693,0.1375319450571531,0.04777469427495549,5.901135506103216,0.022389566829200902
1403636599313555456,38.008928,264.82422136980534,9.177389958333332,-0.4576436666666666,-3.342433208333333,-0.0293215314335047,0.5326744877086693,0.1375319450571531,0.032508384361945794,5.929797570316884,0.028662064213667904
1403636599363555584,50.90332,432.70267836642535,9.005773583333333,-0.44129925,-3.211677875,-0.0851720674973232,0.3469714552964727,0.046774823953448,0.03629248325699995,5.962506090119386,0.03270851980250189
1403636599413555456,60.609818,519.5070992632527,9.471589458333332,-0.5557101666666666,-3.18716125,-0.1836086373098034,0.0551524043630208,0.028623399732707,0.030602636497806722,5.984493912841569,0.021987822722183026
1403636599463555584,49.751758,480.24034016924,9.349006333333334,-0.122583125,-3.2035056666666666,-0.1877974275145898,-0.0740019602845595,0.171740398396242,0.020020777781372505,6.001010430169953,0.016516517328383884
1403636599513555456,39.056301,403.78639350903,9.349006333333334,-0.122583125,-3.2035056666666666,-0.1877974275145898,-0.0740019602845595,0.171740398396242,0.06812923405503776,6.0610162193940225,0.06000578922406952
1403636599563555584,60.958386,412.8304202680509,9.381695166666669,-0.1552719583333333,-3.18716125,-0.0865683308989187,-0.1137954672300302,0.1200786525372098,0.04953694566339156,6.108697275306054,0.04768105591203131
1403636599613555456,39.252996,412.30244176279496,9.381695166666669,-0.1552719583333333,-3.18716125,-0.0865683308989187,-0.1137954672300302,0.1200786525372098,0.024189033983204912,6.1077919334641155,-0.0009053418419382453
1403636599663555584,50.443888,441.8025319535437,9.1201845,-0.4821602916666666,-3.603943875,-0.0802851455917391,-0.0607374579694026,0.0677187749773799,0.028992339986322654,6.085545478640478,-0.022246454823637407
1403636599713555456,49.966097,213.9336787982045,16.589582916666664,0.2778550833333333,-6.464216791666666,0.0223402144255274,0.2303834612632515,0.2590068609959585,0.05997473025047504,6.11518787806549,0.029642399425012123
1403636599763555584,49.657583,283.84883685945744,10.370532375,-1.250347875,-2.631451083333333,0.0307177948351002,0.4705407663376713,0.0439822971502571,0.042070956367892015,6.144924753478344,0.02973687541285397
1403636599813555456,50.443649,286.8470716265856,9.675894666666666,-0.5148491249999999,-2.476179125,-0.028623399732707,0.3623303527140228,0.0802851455917391,0.05065237921351982,6.191685379883723,0.046760626405379035
1403636599863555584,59.617043,480.7781277774819,9.863855458333331,-0.6456044583333332,-1.871435708333333,-0.018151424220741,0.0747000919853573,0.1549852375770964,0.05093744588213268,6.23542618420826,0.04374080432453642
1403636599913555456,40.411234,554.3803558847799,9.863855458333331,-0.6456044583333332,-1.871435708333333,-0.018151424220741,0.0747000919853573,0.1549852375770964,0.04040714354203446,6.273199568624912,0.0377733844166519
1403636599963555584,49.958706,542.9173089357307,9.210078791666666,-0.392266,-2.574245625,-0.0509636141582344,-0.0712094334813686,0.1305506280491758,0.01973788972370251,6.286876623018644,0.013677054393732568
1403636600013555456,50.06051,599.7734979585748,8.703401874999999,-0.0572054583333333,-2.705000958333333,-0.0104719755119659,-0.0160570291183478,0.1263618378443894,0.016866930072163517,6.3017346622534385,0.01485803923479434
1403636600063555584,50.058365,573.3407488680882,9.210078791666666,-0.4086104166666666,-2.459834708333333,0.0460766922526503,0.0614355896702004,0.2115339053417127,0.02180310717342703,6.299867975347823,-0.0018666869056156443
1403636600113555456,47.590733,605.2497718337867,6.733899666666666,-0.2124774166666666,-1.4056198333333334,0.0272271363311115,0.1312487597499735,0.2673844414055313,0.021949127189649247,6.292252626788154,-0.007615348559668611
1403636600163555584,50.414562,626.3275233840001,8.687057458333333,-1.4709975,-2.0021910416666664,-0.0160570291183478,0.0991347015132779,0.0802851455917391,0.01771381021868863,6.285269064813963,-0.006983561974191588
1403636600213555456,50.014496,639.3751915448433,9.087495666666666,-0.3350605416666666,-2.459834708333333,0.0349065850398865,0.0565486677646162,0.1494001839707146,0.027295571267954604,6.295357423275573,0.01008835846161027
1403636600263555584,49.40033,643.0924187081391,9.65955025,-0.5066769166666666,-2.819411875,0.0146607657167523,0.0223402144255274,0.0907571211037051,0.02416209760467884,6.307287994551188,0.01193057127561481
1403636600313555456,50.449848,640.5432707296096,9.398039583333333,-0.4903325,-2.459834708333333,0.0013962634015954,0.0132645023151569,0.0907571211037051,0.01951803694895986,6.316899548979869,0.009611554428681224
1403636600363555584,62.081814,635.5850970206319,9.46341725,-0.269682875,-2.6477955,0.0048869219055841,0.0174532925199432,0.0809832772925368,0.019238787545707008,6.311820586913211,-0.0050789620666575885
1403636600413555456,37.840128,644.4471793582645,9.46341725,-0.269682875,-2.6477955,0.0048869219055841,0.0174532925199432,0.0809832772925368,0.014504838936033337,6.318731598308765,0.006911011395553501
1403636600463555584,49.636125,645.0360555190776,9.545139333333331,-0.1470997499999999,-2.5415567916666664,0.018151424220741,0.0111701072127637,0.1096066770252439,0.01886702080527999,6.306054127269305,-0.012677471039459931
1403636600513555456,62.753916,639.4736627119592,9.937405333333334,-0.3840937916666667,-2.8357562916666668,-0.0167551608191455,0.025830872929516,0.0474729556542457,0.01109153109429626,6.299415723473893,-0.006638403795411918
1403636600563555584,36.89003,635.7092298658218,9.937405333333334,-0.3840937916666667,-2.8357562916666668,-0.0167551608191455,0.025830872929516,0.0474729556542457,0.00609900257667359,6.295686183692502,-0.0037295397813910114
1403636600613555456,51.766634,637.9074354469567,9.814822208333332,-0.5720545833333333,-2.852100708333333,0.0279252680319092,0.028623399732707,0.122173047639603,0.008362307380936646,6.296147923935287,0.00046174024278489156
1403636600663555584,58.201551,637.4237542361425,9.144701125,-0.171616375,-2.40262925,-0.0083775804095727,0.0104719755119659,0.046774823953448,0.00912461280614149,6.288109698002047,-0.008038225933240106
1403636600713555456,39.357424,640.9540628884121,9.528794916666666,-0.6701210833333332,-2.639623291666666,0.0195476876223364,0.0,0.1186823891356144,0.0031810259735520568,6.2896401421379995,0.0015304441359527132
1403636600763555584,49.825907,640.0238588416693,9.7085835,-0.1470997499999999,-2.7131731666666665,-0.0013962634015954,0.0328121899374933,0.0684169066781777,0.0130458247217124,6.280576706399145,-0.009063435738854153
1403636600813555456,50.802469,646.1945871433257,9.177389958333332,-0.7028099166666667,-2.508867958333333,0.0027925268031909,0.0195476876223364,0.0851720674973232,0.006103260982025804,6.274902887286291,-0.005673819112854694
1403636600863555584,50.263882,642.9933418653533,9.398039583333333,-0.2778550833333333,-2.4680069166666665,-0.0069813170079773,0.0132645023151569,0.0684169066781777,0.007046358190337046,6.273252727507485,-0.001650159778805893
1403636600913555456,49.619913,646.4423952470124,9.389867375,-0.7109821249999999,-2.6886565416666666,-0.0020943951023931,0.0244346095279206,0.0872664625997164,0.00832480316655963,6.272064704288037,-0.0011880232194476648
1403636600963555584,61.562538,644.1762213389577,9.406211791666664,-0.7927042083333332,-2.5660734166666663,-0.0034906585039886,0.0125663706143591,0.0677187749773799,0.007070735982467549,6.268311286538071,-0.0037534177499658483
1403636601013555456,46.193361,647.1653261697677,9.406211791666664,-0.7927042083333332,-2.5660734166666663,-0.0034906585039886,0.0125663706143591,0.0677187749773799,0.006357322705827829,6.262717063460784,-0.00559422307728763
1403636601063555584,42.207957,645.6689253695521,9.455245041666666,-0.3840937916666667,-2.6151066666666667,-0.0034906585039886,0.0188495559215387,0.0879645943005142,0.00177593981363566,6.26354102303545,0.0008239595746664108
1403636601113555456,50.299406,647.3219609081799,9.389867375,-0.661948875,-2.6151066666666667,-0.0090757121103705,0.0202458193231342,0.0684169066781777,0.010715372110666761,6.2562518736482815,-0.007289149387168514
1403636601163555584,50.006151,644.7754352680599,9.406211791666664,-0.3595771666666666,-2.6151066666666667,-0.0006981317007977,0.0244346095279206,0.0914552528045028,0.002082848349111984,6.25434781040499,-0.0019040632432911764
1403636601213555456,57.218075,648.1278188374439,9.357178541666666,-0.6456044583333332,-2.525212375,-0.007679448708775,0.0216420827247296,0.0663225115757845,0.010036282360440747,6.252738554364552,-0.0016092560404379341
1403636601263555584,53.921461,647.1112577408137,9.324489708333331,-0.5802267916666666,-2.525212375,-0.0090757121103705,0.0216420827247296,0.0628318530717958,0.003970069308190827,6.250588218120188,-0.002150336244364226
1403636601313555456,39.286136,647.8730740336337,9.324489708333331,-0.5802267916666666,-2.525212375,-0.0090757121103705,0.0216420827247296,0.0628318530717958,0.007879046733624655,6.247070776700622,-0.003517441419566225
1403636601363555584,50.305844,646.053478360667,9.536967125,-0.5230213333333333,-2.606934458333333,0.0,0.0216420827247296,0.1033234917180643,0.011659549119256825,6.239250075434445,-0.007820701266177288
1403636601413555456,60.129642,646.415717462068,9.308145291666667,-0.5557101666666666,-2.549729,-0.0069813170079773,0.0251327412287183,0.0621337213709981,0.012306164459314673,6.232779629115774,-0.00647044631867022
1403636601463555584,39.1891,646.1873849659072,9.438900625,-0.44129925,-2.549729,0.0006981317007977,0.0209439510239319,0.0956440430092892,0.015265008741297229,6.223046928897125,-0.009732700218649804
1403636601513555456,50.279618,644.9033335587652,9.553311541666666,-0.5720545833333333,-2.680484333333333,-0.0062831853071795,0.0223402144255274,0.0684169066781777,0.014515393669081183,6.211930142756645,-0.011116786140479284
1403636601563555584,60.543298,645.6622667112283,9.357178541666666,-0.5311935416666667,-2.508867958333333,0.0048869219055841,0.0230383461263251,0.1005309649148733,0.015132536854125769,6.202000580419951,-0.009929562336694175
1403636601613555456,39.236308,646.7195873485492,9.299973083333333,-0.416782625,-2.476179125,-0.0069813170079773,0.0167551608191455,0.0663225115757845,0.008484177394015597,6.195070881140427,-0.0069296992795244705
1403636601663555584,58.534383,645.1666465044343,9.414383999999998,-0.563882375,-2.705000958333333,-0.0020943951023931,0.0342084533390888,0.0893608577021096,0.006485703154882613,6.189175760884465,-0.005895120255961395
1403636601713555456,41.567803,644.3012121051456,9.332661916666666,-0.4739880833333333,-2.459834708333333,-0.0006981317007977,0.0237364778271228,0.0760963553869527,0.004090987365122032,6.18594913870449,-0.0032266221799757133
1403636601763555584,50.30179,645.2917818103821,9.373522958333332,-0.6047434166666666,-2.680484333333333,-0.0027925268031909,0.0216420827247296,0.0809832772925368,0.004518638173274863,6.1891548980999485,0.0032057593954588626
1403636601813555456,49.595356,646.0217292920263,9.471589458333332,-0.4576436666666666,-2.4843513333333336,-0.0020943951023931,0.0244346095279206,0.08307767239493,0.012408938224739248,6.188236222632253,-0.0009186754676955289
1403636601863555584,50.023317,646.8871149051884,9.438900625,-0.5475379583333333,-2.655967708333333,-0.0041887902047863,0.0209439510239319,0.0781907504893459,0.01136440648951403,6.1861852696186626,-0.002050953013590373
1403636601913555456,57.887316,646.2981760603934,9.438900625,-0.4576436666666666,-2.533384583333333,-0.0062831853071795,0.0174532925199432,0.0788888821901436,0.00914665088283142,6.179259010650133,-0.006926258968529275
1403636601963555584,41.847468,645.1818637512998,9.430728416666666,-0.5720545833333333,-2.6477955,0.0006981317007977,0.0153588974175501,0.0795870138909414,0.007185374631910784,6.175379183294356,-0.003879827355777188
1403636602013555456,60.51898,644.6045463316485,9.357178541666666,-0.5720545833333333,-2.435318083333333,-0.0041887902047863,0.0146607657167523,0.0795870138909414,0.005382243018570326,6.170485956893614,-0.004893226400741746
1403636602063555584,46.687126,645.2931439143515,9.357178541666666,-0.5720545833333333,-2.435318083333333,-0.0041887902047863,0.0146607657167523,0.0795870138909414,0.012013484401874374,6.168132639091198,-0.0023533178024166546
1403636602113555456,42.627573,646.1450543024697,9.414383999999998,-0.3840937916666667,-2.6151066666666667,-0.0055850536063818,0.0202458193231342,0.0802851455917391,0.006172502747793873,6.164431805692117,-0.003700833399080672
1403636602163555584,60.985803,645.3015810670166,9.357178541666666,-0.5965712083333333,-2.533384583333333,-0.0006981317007977,0.0230383461263251,0.0914552528045028,0.005661068440254556,6.159455200507655,-0.0049766051844617465
1403636602213555456,46.486378,645.9392573970566,9.308145291666667,-0.4004382083333333,-2.655967708333333,-0.0013962634015954,0.0230383461263251,0.0823795406941323,0.009377007035077276,6.151968041370103,-0.007487159137552268
1403636602263555584,42.367697,645.1407008088432,9.46341725,-0.6782932916666666,-2.50069575,-0.0034906585039886,0.0167551608191455,0.0670206432765822,0.0067521368886043825,6.146369806099786,-0.005598235270316998
1403636602313555456,50.233125,645.9817989065505,9.389867375,-0.5066769166666666,-2.623278875,0.0,0.0153588974175501,0.0942477796076938,0.00317346433059183,6.145742685416378,-0.0006271206834078669
1403636602363555584,49.657107,646.1289143504133,9.430728416666666,-0.5557101666666666,-2.50069575,-0.0090757121103705,0.0223402144255274,0.0698131700797731,0.004526502887337751,6.147605059519852,0.001862374103473563
1403636602413555456,50.024986,646.5180372964007,9.414383999999998,-0.4821602916666666,-2.631451083333333,0.0006981317007977,0.0160570291183478,0.0914552528045028,0.006575727336414209,6.149250449699242,0.0016453901793900272
1403636602463555584,60.103178,645.7016210500865,9.406211791666664,-0.53936575,-2.582417833333333,-0.0034906585039886,0.0160570291183478,0.08307767239493,0.005875854302483838,6.150290815803646,0.0010403661044042778
1403636602513555456,40.019989,647.2818103688318,9.406211791666664,-0.53936575,-2.582417833333333,-0.0034906585039886,0.0160570291183478,0.08307767239493,0.004245091191730098,6.153828812818706,0.0035379970150604123
1403636602563555584,50.145388,646.4357787536327,9.373522958333332,-0.5311935416666667,-2.5170401666666664,-0.0020943951023931,0.0223402144255274,0.0809832772925368,0.007496302421724442,6.1517622894152035,-0.0020665234035028845
1403636602613555456,60.03356,647.1498015115906,9.430728416666666,-0.5311935416666667,-2.574245625,-0.0062831853071795,0.0216420827247296,0.0795870138909414,0.004136511507392127,6.151614327112777,-0.0001479623024263077
1403636602663555584,39.648056,646.6222898084345,9.430728416666666,-0.5311935416666667,-2.574245625,-0.0062831853071795,0.0216420827247296,0.0795870138909414,0.004210971624033669,6.150111534428696,-0.0015027926840813777
1403636602713555456,50.343275,647.1956330408775,9.479761666666668,-0.5557101666666666,-2.606934458333333,0.0,0.0195476876223364,0.0886627260013119,0.003482640271679205,6.148420487477841,-0.0016910469508548687
1403636602763555584,49.574852,646.6404065359543,9.406211791666664,-0.4739880833333333,-2.606934458333333,-0.0118682389135614,0.0153588974175501,0.075398223686155,0.004132761895426751,6.14749608083082,-0.0009244066470213141
1403636602813555456,49.985885,646.9083665534233,9.422556208333331,-0.5230213333333333,-2.50069575,0.0,0.018151424220741,0.0802851455917391,0.006353006121622543,6.148426273881492,0.0009301930506726563
1403636602863555584,50.236464,647.5051093574333,9.414383999999998,-0.4494714583333333,-2.582417833333333,-0.0041887902047863,0.0195476876223364,0.0767944870877505,0.009315343990109403,6.151326032382576,0.0028997585010834825
1403636602913555456,61.421394,646.8840862310129,9.414383999999998,-0.4903325,-2.549729,-0.0027925268031909,0.0230383461263251,0.075398223686155,0.005411744392501402,6.153241182181669,0.001915149799093463
1403636602963555584,48.9254,646.8840603418648,9.438900625,-0.6047434166666666,-2.549729,-0.0048869219055841,0.0202458193231342,0.0816814089933346,0.003437612274258216,6.151278886785678,-0.0019622953959910205
1403636603013555456,47.16897,647.3584654840021,9.438900625,-0.6047434166666666,-2.549729,-0.0048869219055841,0.0202458193231342,0.0816814089933346,0.004455203547728637,6.14865334188837,-0.002625544897307819
1403636603063555584,42.748213,648.0829519471115,9.430728416666666,-0.4331270416666666,-2.631451083333333,-0.0013962634015954,0.0216420827247296,0.0781907504893459,0.007008613344239094,6.147146430957711,-0.0015069109306597994
1403636603113555456,49.880505,646.7008756337268,9.373522958333332,-0.5475379583333333,-2.574245625,-0.0062831853071795,0.0216420827247296,0.0760963553869527,0.008136380047952283,6.141582557378496,-0.005563873579214729
1403636603163555584,57.489395,646.3193832116937,9.389867375,-0.5066769166666666,-2.5905900416666663,-0.0034906585039886,0.0125663706143591,0.0823795406941323,0.0051735507140526936,6.142340213438526,0.0007576560600304205
1403636603213555456,42.14406,647.7034156247786,9.414383999999998,-0.563882375,-2.525212375,-0.0027925268031909,0.0195476876223364,0.0816814089933346,0.00580193119002326,6.142517671775297,0.0001774583367710747
1403636603263555584,57.75404,647.4674920610934,9.422556208333331,-0.5230213333333333,-2.606934458333333,-0.0013962634015954,0.0223402144255274,0.08307767239493,0.002048544114105535,6.143515023335095,0.0009973515597971883
1403636603313555456,42.405605,647.412846515188,9.381695166666669,-0.5475379583333333,-2.549729,-0.0069813170079773,0.0223402144255274,0.0781907504893459,0.004104567829331888,6.1401180945274225,-0.0033969288076720616
1403636603363555584,50.433636,646.360193502874,9.496106083333332,-0.5230213333333333,-2.582417833333333,-0.0041887902047863,0.0251327412287183,0.0837758040957278,0.005628125592356064,6.135032275271288,-0.005085819256134272
1403636603413555456,56.91123,647.4191263357551,9.414383999999998,-0.5720545833333333,-2.59876225,-0.0041887902047863,0.0202458193231342,0.0733038285837618,0.007875997269820263,6.127265262111649,-0.0077670131596390135
1403636603463555584,50.207376,647.901343285395,9.479761666666668,-0.5148491249999999,-2.639623291666666,-0.0041887902047863,0.0209439510239319,0.0809832772925368,0.005545319083252244,6.122014321898856,-0.005250940212793154
1403636603513555456,42.442084,648.3431887700569,9.430728416666666,-0.4985047083333333,-2.5660734166666663,-0.0048869219055841,0.0195476876223364,0.0795870138909414,0.004548473029561825,6.119803386918615,-0.002210934980241497
1403636603563555584,49.850225,647.8443036009248,9.430728416666666,-0.5311935416666667,-2.606934458333333,-0.0006981317007977,0.0188495559215387,0.08307767239493,0.006246945082255303,6.116729672060705,-0.0030737148579094153
1403636603613555456,57.628632,648.3576150061787,9.455245041666666,-0.5148491249999999,-2.606934458333333,-0.0013962634015954,0.0202458193231342,0.0767944870877505,0.005005427301548971,6.117196182232507,0.0004665101718019926
1403636603663555584,42.773008,648.5740043222692,9.357178541666666,-0.563882375,-2.582417833333333,-0.0027925268031909,0.0202458193231342,0.0816814089933346,0.006380648444903687,6.115859448923397,-0.0013367333091105493
1403636603713555456,57.231426,648.3018455992047,9.479761666666668,-0.5475379583333333,-2.5905900416666663,-0.0027925268031909,0.0195476876223364,0.075398223686155,0.0023498988369058576,6.118056929707323,0.002197480783926231
1403636603763555584,42.372942,647.1069555674808,9.242767625,-0.5883989999999999,-2.4434902916666665,-0.0020943951023931,0.0153588974175501,0.0823795406941323,0.00191448658830911,6.118119205939909,6.227623258592274e-05
1403636603813555456,49.684525,646.5047895026372,9.381695166666669,-0.563882375,-2.574245625,-0.0027925268031909,0.0062831853071795,0.0760963553869527,0.007069949241084179,6.123049371797363,0.004930165857453872
1403636603863555584,50.714492,646.915242894617,9.414383999999998,-0.5883989999999999,-2.623278875,-0.0055850536063818,0.0272271363311115,0.0802851455917391,0.003286816999949313,6.125191533429995,0.0021421616326326998
1403636603913555456,57.51896,647.8217553874799,9.487933875,-0.4004382083333333,-2.4516625,-0.0013962634015954,0.0118682389135614,0.0851720674973232,0.003447962064608916,6.123832571040742,-0.0013589623892533709
1403636603963555584,42.278289,646.0147232555237,9.357178541666666,-0.6047434166666666,-2.7213453750000003,-0.0013962634015954,0.0139626340159546,0.0740019602845595,0.0018467307436990884,6.12298771088957,-0.0008448601511723552
1403636604013555456,49.980164,647.1636109646097,9.479761666666668,-0.4331270416666666,-2.4925235416666665,-0.0020943951023931,0.0272271363311115,0.0816814089933346,0.003886179123363876,6.122843338662197,-0.00014437222737218036
1403636604063555584,50.147772,644.8140258628731,9.259112041666668,-0.5475379583333333,-2.557901208333333,-0.0041887902047863,0.0132645023151569,0.0767944870877505,0.004997639340166152,6.124227325343014,0.00138398668081674
1403636604113555456,59.194803,645.6421814164398,9.496106083333332,-0.5475379583333333,-2.557901208333333,-0.0041887902047863,0.0209439510239319,0.0670206432765822,0.008502536932787816,6.122648307746048,-0.0015790175969661036
1403636604163555584,47.910452,644.531764043291,9.496106083333332,-0.5475379583333333,-2.557901208333333,-0.0041887902047863,0.0209439510239319,0.0670206432765822,0.0016855798296997514,6.121158251325645,-0.0014900564204030076
1403636604213555456,49.839973,645.6840221202675,9.438900625,-0.5066769166666666,-2.582417833333333,-0.0006981317007977,0.0188495559215387,0.0900589894029074,0.0030406806443746518,6.119014110251845,-0.002144141073800121
1403636604263555584,42.968273,644.9224437639061,9.340834125,-0.4576436666666666,-2.574245625,-0.0055850536063818,0.0188495559215387,0.0705113017805709,0.005385734587973917,6.115910952953385,-0.003103157298459891
1403636604313555456,56.37312,645.978029556347,9.389867375,-0.53936575,-2.606934458333333,-0.0034906585039886,0.0188495559215387,0.085870199198121,0.00331713761763602,6.113969540174496,-0.001941412778888818
1403636604363555584,43.461323,645.2598010343859,9.389867375,-0.5230213333333333,-2.533384583333333,-0.0090757121103705,0.0223402144255274,0.0733038285837618,0.003070878011568004,6.112214791086585,-0.0017547490879108452
1403636604413555456,49.451351,645.6055902098688,9.422556208333331,-0.53936575,-2.582417833333333,0.0013962634015954,0.0167551608191455,0.085870199198121,0.0028750312489565118,6.109611222129724,-0.002603568956861757
1403636604463555584,57.684898,644.5654520789998,9.373522958333332,-0.563882375,-2.525212375,-0.0048869219055841,0.0209439510239319,0.0795870138909414,0.0022745061379189834,6.10938991654241,-0.0002213055873134806
1403636604513555456,49.339771,644.440172924623,9.471589458333332,-0.5720545833333333,-2.655967708333333,-0.0020943951023931,0.0188495559215387,0.0837758040957278,0.001558990992281854,6.108216063170776,-0.001173853371634337
1403636604563555584,53.771496,644.3643649630385,9.479761666666668,-0.5148491249999999,-2.59876225,-0.0034906585039886,0.0188495559215387,0.0809832772925368,0.0050588726514195406,6.104367295559405,-0.0038487676113705405
1403636604613555456,39.871693,644.7173402133016,9.479761666666668,-0.5148491249999999,-2.59876225,-0.0034906585039886,0.0188495559215387,0.0809832772925368,0.008575798761953503,6.099885486540522,-0.004481809018883176
1403636604663555584,49.974203,644.3691784113215,9.349006333333334,-0.4821602916666666,-2.549729,-0.0041887902047863,0.0167551608191455,0.0802851455917391,0.004227847579835348,6.097115057249994,-0.002770429290528398
1403636604713555456,49.765587,644.8044713375438,9.381695166666669,-0.5557101666666666,-2.6151066666666667,-0.0034906585039886,0.0174532925199432,0.0774926187885482,0.004025083868263576,6.095750112455653,-0.0013649447943411275
1403636604763555584,50.274372,644.1043239039175,9.422556208333331,-0.53936575,-2.59876225,-0.0020943951023931,0.0216420827247296,0.0760963553869527,0.003682156369451856,6.093938646398726,-0.0018114660569263918
1403636604813555456,57.40118,645.0813377917702,9.414383999999998,-0.5965712083333333,-2.574245625,-0.0006981317007977,0.0244346095279206,0.0816814089933346,0.004665746022121544,6.094784489148725,0.0008458427499986598
1403636604863555584,53.574324,643.6379015002237,9.389867375,-0.5066769166666666,-2.606934458333333,-0.0041887902047863,0.0153588974175501,0.0781907504893459,0.006401097578843126,6.094963901783591,0.00017941263486598302
1403636604913555456,38.919687,644.1418664885337,9.389867375,-0.5066769166666666,-2.606934458333333,-0.0041887902047863,0.0153588974175501,0.0781907504893459,0.004538329983250234,6.097126227019077,0.0021623252354858735
1403636604963555584,57.340861,644.5451388515496,9.430728416666666,-0.4821602916666666,-2.6151066666666667,-0.0020943951023931,0.0195476876223364,0.0760963553869527,0.004717104792238625,6.101540305116414,0.004414078097337182
1403636605013555456,49.426555,643.0539667082297,9.373522958333332,-0.4985047083333333,-2.5905900416666663,-0.0027925268031909,0.0244346095279206,0.0802851455917391,0.005168458649370887,6.10631413899738,0.004773833880966194
1403636605063555584,50.302029,643.9009284525688,9.414383999999998,-0.4821602916666666,-2.525212375,-0.0027925268031909,0.0202458193231342,0.0837758040957278,0.006580029506574091,6.108190321302623,0.0018761823052431126
1403636605113555456,42.938947,643.5980611290544,9.406211791666664,-0.6047434166666666,-2.606934458333333,-0.0027925268031909,0.0223402144255274,0.0788888821901436,0.004697001401113859,6.106579393730943,-0.001610927571680243
1403636605163555584,62.935591,644.2453807085755,9.46341725,-0.5802267916666666,-2.5905900416666663,-0.0041887902047863,0.0160570291183478,0.0851720674973232,0.0034984197391943308,6.10333681762601,-0.003242576104932837
1403636605213555456,37.598133,642.4261253309428,9.46341725,-0.5802267916666666,-2.5905900416666663,-0.0041887902047863,0.0160570291183478,0.0851720674973232,0.0063592940546883915,6.099624988064173,-0.003711829561837021
1403636605263555584,57.082177,643.2148099747884,9.520622708333333,-0.4494714583333333,-2.631451083333333,0.0,0.0153588974175501,0.0837758040957278,0.004980939381786289,6.095137850886558,-0.004487137177615175
1403636605313555456,42.45305,642.804482407254,9.26728425,-0.5311935416666667,-2.557901208333333,-0.0041887902047863,0.0244346095279206,0.0747000919853573,0.00460938948637484,6.093879660469378,-0.001258190417179783
1403636605363555584,57.163954,644.2739064754318,9.471589458333332,-0.5148491249999999,-2.5905900416666663,-0.0013962634015954,0.0230383461263251,0.0816814089933346,0.009548431993958655,6.0898472011373395,-0.004032459332038663
1403636605413555456,50.127983,643.8741147405185,9.414383999999998,-0.563882375,-2.5660734166666663,-0.0020943951023931,0.0237364778271228,0.0747000919853573,0.0042344044758278205,6.088979301623314,-0.0008678995140254386
1403636605463555584,53.87187,643.714579291577,9.520622708333333,-0.4494714583333333,-2.606934458333333,-0.0020943951023931,0.0209439510239319,0.0781907504893459,0.0036313614805921473,6.087740711624982,-0.0012385899983318183
1403636605513555456,38.665533,643.9428334761186,9.520622708333333,-0.4494714583333333,-2.606934458333333,-0.0020943951023931,0.0209439510239319,0.0781907504893459,0.003640455112660843,6.087565683010293,-0.00017502861468887687
1403636605563555584,49.958468,643.9949148040504,9.398039583333333,-0.5311935416666667,-2.574245625,-0.0034906585039886,0.0188495559215387,0.0837758040957278,0.003759238212906138,6.086438781263421,-0.0011269017468720222
1403636605613555456,50.166845,643.7767113034637,9.455245041666666,-0.5475379583333333,-2.5905900416666663,-0.0048869219055841,0.0202458193231342,0.0767944870877505,0.005255975171724416,6.0869963312099316,0.0005575499465102496
1403636605663555584,57.497501,642.9890969617612,9.414383999999998,-0.4903325,-2.5415567916666664,-0.0013962634015954,0.0209439510239319,0.0816814089933346,0.00445784118587097,6.090735860385083,0.0037395291751511905
1403636605713555456,41.973591,631.0734537966415,9.357178541666666,-0.5066769166666666,-2.5660734166666663,-0.0048869219055841,0.0251327412287183,0.0747000919853573,0.0033798398557875076,6.093987063081251,0.003251202696167965
1403636605763555584,50.338745,630.5202022791758,9.520622708333333,-0.5475379583333333,-2.639623291666666,-0.0013962634015954,0.0237364778271228,0.08307767239493,0.005068266141435357,6.093377613988121,-0.0006094490931296548
1403636605813555456,50.31085,630.799772179502,9.349006333333334,-0.5311935416666667,-2.525212375,-0.0055850536063818,0.0244346095279206,0.0795870138909414,0.004155244858793859,6.092692734222496,-0.000684879765625368
1403636605863555584,49.718619,630.630856471793,9.545139333333331,-0.5883989999999999,-2.623278875,-0.0062831853071795,0.0188495559215387,0.0823795406941323,0.0053650573602718795,6.092866976033414,0.00017424181091829638
1403636605913555456,50.308466,631.071789334337,9.504278291666663,-0.4985047083333333,-2.557901208333333,-0.0013962634015954,0.0216420827247296,0.0823795406941323,0.00202241212857212,6.094654681414249,0.0017877053808348364
1403636605963555584,49.762487,630.8576903215535,9.357178541666666,-0.53936575,-2.557901208333333,-0.0020943951023931,0.0195476876223364,0.0837758040957278,0.0009801592675906727,6.093850269795286,-0.0008044116189624972
1403636606013555456,50.921202,631.9333041801049,9.389867375,-0.5475379583333333,-2.582417833333333,-0.0048869219055841,0.0202458193231342,0.075398223686155,0.002922649652794521,6.094675218070518,0.0008249482752313853
1403636606063555584,49.206734,632.0651290883885,9.357178541666666,-0.5557101666666666,-2.5660734166666663,-0.0034906585039886,0.0237364778271228,0.08307767239493,0.005610269266891848,6.097106534891184,0.0024313168206662183
1403636606113555456,51.013231,631.429999754613,9.447072833333332,-0.4985047083333333,-2.631451083333333,-0.0055850536063818,0.0237364778271228,0.0726056968829641,0.0018291776686845066,6.097894010729865,0.0007874758386812175
1403636606163555584,50.030947,631.1375629379268,9.422556208333331,-0.6047434166666666,-2.5660734166666663,-0.0027925268031909,0.0223402144255274,0.0816814089933346,0.004946263984254486,6.100835384882828,0.0029413741529626947
1403636606213555456,50.05908,631.697555441687,9.455245041666666,-0.4739880833333333,-2.606934458333333,-0.0006981317007977,0.0223402144255274,0.0774926187885482,0.006349085902172336,6.10360588103367,0.0027704961508421277
1403636606263555584,49.325227,630.664798553215,9.455245041666666,-0.5311935416666667,-2.5905900416666663,-0.0055850536063818,0.0202458193231342,0.0781907504893459,0.004716110657039287,6.10316932172121,-0.00043655931246000534
1403636606313555456,50.219536,631.7654580839675,9.406211791666664,-0.5311935416666667,-2.574245625,-0.0062831853071795,0.0209439510239319,0.0795870138909414,0.007304550697334269,6.100639468844034,-0.0025298528771759976
1403636606363555584,62.800408,630.2166995329285,9.398039583333333,-0.5557101666666666,-2.582417833333333,-0.0020943951023931,0.0237364778271228,0.075398223686155,0.005396310210319713,6.098771082206637,-0.0018683866373967462
1403636606413555456,46.655178,631.0028390277669,9.398039583333333,-0.5557101666666666,-2.582417833333333,-0.0020943951023931,0.0237364778271228,0.075398223686155,0.005217075142644578,6.10355941707603,0.004788334869393118
1403636606463555584,43.924093,631.7615084625347,9.422556208333331,-0.5230213333333333,-2.549729,-0.0013962634015954,0.0202458193231342,0.0802851455917391,0.00389225320794025,6.106793331014822,0.0032339139387920213
1403636606513555456,49.408197,630.7024107248861,9.430728416666666,-0.5148491249999999,-2.549729,-0.0048869219055841,0.0223402144255274,0.0809832772925368,0.00443435086067779,6.1090418408157365,0.002248509800914178
1403636606563555584,50.16613,630.9202563507802,9.406211791666664,-0.5311935416666667,-2.557901208333333,-0.007679448708775,0.0230383461263251,0.08307767239493,0.0033660404427760236,6.1071101402194925,-0.0019317005962440348
1403636606613555456,49.993992,631.3813882886302,9.447072833333332,-0.563882375,-2.5905900416666663,-0.0027925268031909,0.0202458193231342,0.0788888821901436,0.005242703402482942,6.1027068825491115,-0.004403257670380967
1403636606663555584,49.705983,630.7717408852985,9.422556208333331,-0.5148491249999999,-2.549729,-0.0034906585039886,0.0188495559215387,0.0816814089933346,0.0031558736137938764,6.101132039895201,-0.0015748426539108351
1403636606713555456,50.632238,630.8181892452275,9.504278291666663,-0.5475379583333333,-2.6151066666666667,-0.0041887902047863,0.018151424220741,0.0767944870877505,0.006227251656339029,6.0996210471305305,-0.0015109927646701493
1403636606763555584,51.714897,630.3422650531159,9.389867375,-0.5148491249999999,-2.606934458333333,-0.0048869219055841,0.0167551608191455,0.0816814089933346,0.010173515762728517,6.095525293862122,-0.0040957532684089415
1403636606813555456,47.887087,631.5863881817698,9.520622708333333,-0.5475379583333333,-2.623278875,0.0006981317007977,0.0174532925199432,0.0774926187885482,0.003236654589185659,6.096936272359567,0.0014109784974456474
1403636606863555584,49.761772,631.4892573900339,9.357178541666666,-0.5475379583333333,-2.525212375,0.0,0.0146607657167523,0.0788888821901436,0.0025145726290181627,6.096933489469024,-2.7828905428961548e-06
1403636606913555456,52.88291,630.8807047943259,9.389867375,-0.4739880833333333,-2.582417833333333,-0.0055850536063818,0.018151424220741,0.0802851455917391,0.004313631813627685,6.096064354120768,-0.000869135348255945
1403636606963555584,47.313928,631.117087956422,9.357178541666666,-0.53936575,-2.5415567916666664,-0.0020943951023931,0.0188495559215387,0.0809832772925368,0.00240457712687122,6.095855251018258,-0.00020910310251043285
1403636607013555456,49.907446,631.0360608264436,9.324489708333331,-0.4576436666666666,-2.557901208333333,-0.0034906585039886,0.0265290046303138,0.0795870138909414,0.00737815260884175,6.091612492860932,-0.004242758157325888
1403636607063555584,50.061942,630.4245484158268,9.398039583333333,-0.4821602916666666,-2.582417833333333,0.0006981317007977,0.0174532925199432,0.0802851455917391,0.009406606456298504,6.089302464853244,-0.002310028007688203
1403636607113555456,60.884475,631.1754463011141,9.447072833333332,-0.5148491249999999,-2.606934458333333,-0.0020943951023931,0.0272271363311115,0.0809832772925368,0.011105466129334956,6.082745644229597,-0.006556820623647042
1403636607163555584,38.968086,631.069479702685,9.447072833333332,-0.5148491249999999,-2.606934458333333,-0.0020943951023931,0.0272271363311115,0.0809832772925368,0.0058043569807912036,6.078083773132446,-0.0046618710971504385
1403636607213555456,49.782992,630.5774230441189,9.430728416666666,-0.4985047083333333,-2.5415567916666664,0.0,0.0195476876223364,0.0788888821901436,0.008039842803964588,6.070147736316638,-0.007936036815808123
1403636607263555584,49.943209,629.553388507191,9.36535075,-0.53936575,-2.557901208333333,-0.0020943951023931,0.0216420827247296,0.0788888821901436,0.007168511995679051,6.0637197288954905,-0.006428007421147797
1403636607313555456,60.582161,631.0719366896167,9.381695166666669,-0.5148491249999999,-2.574245625,-0.0020943951023931,0.0216420827247296,0.0788888821901436,0.008163838763711767,6.058440647224379,-0.005279081671111463
1403636607363555584,41.246175,630.4896467477278,9.381695166666669,-0.5148491249999999,-2.574245625,-0.0020943951023931,0.0216420827247296,0.0788888821901436,0.01344986644695934,6.051365850790049,-0.007074796434330288
1403636607413555456,58.665753,630.6918886048442,9.406211791666664,-0.4739880833333333,-2.525212375,-0.0013962634015954,0.0223402144255274,0.0823795406941323,0.006229544720442065,6.048350965818452,-0.003014884971596743
1403636607463555584,39.681434,630.9617542930239,9.406211791666664,-0.4739880833333333,-2.525212375,-0.0013962634015954,0.0223402144255274,0.0823795406941323,0.012234583446594114,6.047594023972747,-0.0007569418457054056
1403636607513555456,51.362992,630.4806449914774,9.438900625,-0.465815875,-2.59876225,-0.0027925268031909,0.0202458193231342,0.0781907504893459,0.008218676351383127,6.04277216081011,-0.00482186316263622
1403636607563555584,54.184198,631.605259976026,9.398039583333333,-0.5148491249999999,-2.582417833333333,-0.0069813170079773,0.0230383461263251,0.0823795406941323,0.005886463166573151,6.037163029959344,-0.0056091308507664195
1403636607613555456,40.314674,631.2472539058264,9.398039583333333,-0.5148491249999999,-2.582417833333333,-0.0069813170079773,0.0230383461263251,0.0823795406941323,0.005535031993016714,6.033215927398485,-0.0039471025608586174
1403636607663555584,50.535679,630.6660009984747,9.438900625,-0.563882375,-2.59876225,-0.0048869219055841,0.0188495559215387,0.0760963553869527,0.0011061048809838318,6.033585521396188,0.0003695939977026441
1403636607713555456,50.350666,632.7329964047804,9.373522958333332,-0.5720545833333333,-2.50069575,-0.0034906585039886,0.0188495559215387,0.0816814089933346,0.003004645312101254,6.035922565767525,0.0023370443713366384
1403636607763555584,50.048352,630.6782303612747,9.455245041666666,-0.5557101666666666,-2.549729,-0.0013962634015954,0.0223402144255274,0.0760963553869527,0.0019839219999679782,6.037551394587217,0.001628828819692174
1403636607813555456,49.932718,631.4880658604533,9.455245041666666,-0.563882375,-2.623278875,-0.0027925268031909,0.0216420827247296,0.0767944870877505,0.0032482489320427403,6.038398363758867,0.0008469691716506134
1403636607863555584,50.205707,631.6851546205461,9.455245041666666,-0.5230213333333333,-2.5905900416666663,-0.0055850536063818,0.0195476876223364,0.0809832772925368,0.005172746879252371,6.041402412150131,0.0030040483912632254
1403636607913555456,57.131768,632.036297957681,9.430728416666666,-0.5148491249999999,-2.59876225,-0.0055850536063818,0.0195476876223364,0.0795870138909414,0.005685925310985139,6.045812283527088,0.004409871376957142
1403636607963555584,42.467355,630.3691387700837,9.414383999999998,-0.5557101666666666,-2.557901208333333,-0.0048869219055841,0.0174532925199432,0.0726056968829641,0.006747186403029194,6.049752969075412,0.003940685548323941
1403636608013555456,50.279379,630.7853867150166,9.520622708333333,-0.5557101666666666,-2.606934458333333,-0.0020943951023931,0.0216420827247296,0.0851720674973232,0.005169654268169695,6.054529581201211,0.004776612125799495
1403636608063555584,49.370051,629.8854065988282,9.389867375,-0.53936575,-2.582417833333333,-0.0041887902047863,0.0202458193231342,0.0788888821901436,0.006406439800676222,6.056607402422463,0.0020778212212517744
1403636608113555456,50.363302,631.5836279574097,9.398039583333333,-0.53936575,-2.606934458333333,-0.0055850536063818,0.0195476876223364,0.0781907504893459,0.004811471073963301,6.0582785348666315,0.0016711324441684994
1403636608163555584,62.106848,630.8758150339,9.438900625,-0.4903325,-2.5905900416666663,-0.0013962634015954,0.0230383461263251,0.0823795406941323,0.0034492480310523662,6.060443400914369,0.002164866047737135
1403636608213555456,37.859201,631.5882049192988,9.438900625,-0.4903325,-2.5905900416666663,-0.0013962634015954,0.0230383461263251,0.0823795406941323,0.003714934411486094,6.064100708186896,0.0036573072725269995
1403636608263555584,50.130606,631.5871290246837,9.406211791666664,-0.5557101666666666,-2.574245625,-0.0006981317007977,0.0216420827247296,0.0760963553869527,0.0043913743321386325,6.068357035201058,0.004256327014162231
1403636608313555456,59.75008,630.6577279927876,9.36535075,-0.5148491249999999,-2.557901208333333,-0.0020943951023931,0.0209439510239319,0.0802851455917391,0.002838002917775674,6.069707232705933,0.0013501975048750836
1403636608363555584,40.251017,631.2090435669135,9.36535075,-0.5148491249999999,-2.557901208333333,-0.0020943951023931,0.0209439510239319,0.0802851455917391,0.004591595703439979,6.067705536541301,-0.002001696164631639
1403636608413555456,49.796819,631.1049032057823,9.438900625,-0.5720545833333333,-2.606934458333333,-0.0013962634015954,0.0216420827247296,0.0823795406941323,0.0024637470583463187,6.065956513475544,-0.0017490230657575268
1403636608463555584,60.271263,629.8485692751511,9.381695166666669,-0.5311935416666667,-2.5660734166666663,-0.0062831853071795,0.018151424220741,0.0781907504893459,0.003431893958832124,6.065575949541604,-0.0003805639339393707
1403636608513555456,39.730072,631.01546496017,9.381695166666669,-0.5311935416666667,-2.5660734166666663,-0.0062831853071795,0.018151424220741,0.0781907504893459,0.006499520848869227,6.06569426239614,0.00011831285453567375
