stamp,img_delta,blur,lin_acc.x,lin_acc.y,lin_acc.z,ang_vel.x,ang_vel.y,ang_vel.z,rpe,ate,drift
1403638128995097088,50.141811,250.31315681426423,8.858673833333333,-0.024516625,-4.037070916666667,0.0111701072127637,0.0160570291183478,0.0872664625997164,0.42043931250037764,0.4204393125003695,0.4204393125003695
1403638129045096960,49.827338,243.20966666453447,9.790305583333332,-0.196133,-4.077931958333333,0.0174532925199432,0.0160570291183478,0.0886627260013119,1.0594809848529947,0.8694239349660312,0.44898462246566173
1403638129095097088,49.727916,241.48450729714725,9.259112041666668,-0.4004382083333333,-4.045243125,-0.0432841654494593,0.0118682389135614,-0.0837758040957278,1.38386909897428,2.12659357313343,1.2571696381673987
1403638129145096960,50.069809,206.05251895334092,9.128356708333332,0.367749375,-4.159654041666666,-0.0383972435438752,0.0328121899374933,-0.0097738438111682,0.9175811745821683,2.9416869807843873,0.8150934076509575
1403638129195097088,59.771538,133.5925591675299,9.455245041666666,0.563882375,-4.037070916666667,0.1340412865531645,0.2310815929640492,0.3811799086355615,0.8399796105037544,3.7682603360449707,0.8265733552605834
1403638129245096960,40.363312,98.40734748074745,9.455245041666666,0.563882375,-4.037070916666667,0.1340412865531645,0.2310815929640492,0.3811799086355615,1.9252227404912607,5.68605421643268,1.9177938803877095
1403638129295097088,49.99423,102.19063483229826,9.9047165,-0.0081722083333333,-4.306753791666666,0.1626646862858715,0.4118977034706618,0.6995279641993272,2.3025905916626797,7.9471728376032935,2.2611186211706134
1403638129345096960,60.246706,100.99920646486731,8.850501625,-1.2340034583333332,-3.162644625,0.1487020522699168,0.3846705671395502,0.8105309046261666,1.9264826085128295,9.367198927587603,1.4200260899843098
1403638129395097088,39.4485,152.65260786466467,8.850501625,-1.2340034583333332,-3.162644625,0.1487020522699168,0.3846705671395502,0.8105309046261666,1.4508910142262226,10.8196809468667,1.4524820192790973
1403638129445096960,50.168276,297.531084944057,8.499096666666667,-1.4628252916666666,-2.950167208333333,0.0139626340159546,-0.0048869219055841,0.3623303527140228,1.153197216077841,11.047046949684402,0.22736600281770158
1403638129495097088,60.204029,136.51711808330086,9.259112041666668,-1.438308666666667,-3.563082833333333,-0.0321140582366956,-0.4719370297392667,-0.4335397861953914,1.8925960651433549,9.82667437052117,-1.2203725791632323
1403638129545096960,39.762497,151.39393580567042,9.259112041666668,-1.438308666666667,-3.563082833333333,-0.0321140582366956,-0.4719370297392667,-0.4335397861953914,1.3994578355095126,8.51927709416908,-1.3073972763520896
1403638129595097088,50.143957,195.73816900192372,9.536967125,-0.4249548333333333,-3.906315583333333,-0.0411897703470661,-0.3776892501315729,-0.5473352534254218,0.6881186625592994,8.004419184439339,-0.5148579097297414
1403638129645096960,49.937725,232.89873629934047,9.733100125,-0.612915625,-4.192342875,-0.0642281164733913,-0.1982694030265558,-0.4335397861953914,1.2411034570113697,7.0094795379493995,-0.9949396464899394
1403638129695097088,50.047636,154.57733396813452,9.250939833333334,-0.0081722083333333,-4.151481833333333,-0.0760963553869527,0.0565486677646162,-0.1654572130890624,0.33517291623094264,7.164006453896725,0.1545269159473257
1403638129745096960,49.851894,154.8120370159895,9.275456458333332,-0.318716125,-3.947176625,0.0062831853071795,0.2143264321449036,0.1103048087260416,0.37676793304715533,7.392803198720685,0.22879674482395984
1403638129795097088,50.124169,221.41844177924568,9.324489708333331,-0.6210878333333334,-3.881798958333333,0.0474729556542457,0.0370009801422797,0.1487020522699168,0.4129285822175946,7.798985476876472,0.40618227815578667
1403638129845096960,59.631109,197.88660139247435,9.782133375,-0.5066769166666666,-4.290409374999999,0.0523598775598298,-0.249931148885588,-0.0621337213709981,0.5657286323023039,8.354252450067861,0.5552669731913893
1403638129895097088,40.061951,178.56585376145262,9.782133375,-0.5066769166666666,-4.290409374999999,0.0523598775598298,-0.249931148885588,-0.0621337213709981,0.6225543044462521,8.978167290155225,0.6239148400873642
1403638129945096960,49.98374,162.7236040770634,10.1008495,-0.122583125,-4.56009225,0.028623399732707,-0.1130973355292325,-0.0886627260013119,0.5265668234681531,9.48298568848,0.5048183983247743
1403638129995097088,50.765037,110.04814299574656,9.953749749999998,-0.2941994999999999,-4.347614833333333,0.0481710873550434,0.1703441349946465,0.0907571211037051,0.2427735719717572,9.587945466296281,0.10495977781628163
1403638130045096960,49.624443,93.40248287365364,9.741272333333333,0.0326888333333333,-4.339442625,0.0705113017805709,0.3686135380212024,0.3064798166502042,0.539382760892082,9.851568809120995,0.26362334282471345
1403638130095097088,49.625874,109.5704717974214,9.210078791666666,-0.7028099166666667,-3.930832208333333,0.0809832772925368,0.3378957431861022,0.3309144261781249,0.4139447360060299,10.170956443226766,0.3193876341057713
1403638130145096960,50.323009,177.87261540513592,8.785123958333333,-0.7681875833333334,-3.6284605,0.1117010721276371,0.1926843494201739,0.200363798128949,0.344728750750743,10.488635244716562,0.3176788014897962
1403638130195097088,50.186396,216.78627260482807,9.16921775,-0.7600153749999999,-3.669321541666666,0.1158898623324234,0.0188495559215387,0.0090757121103705,0.4007370950526655,10.894248091709592,0.40561284699303
1403638130245096960,59.463978,201.6807769337605,9.479761666666668,-0.024516625,-3.8654545416666655,0.1263618378443894,0.1926843494201739,0.1661553447898601,0.25183939660784127,11.11243353498064,0.21818544327104838
1403638130295097088,39.84189,153.8403147155445,9.479761666666668,-0.024516625,-3.8654545416666655,0.1263618378443894,0.1926843494201739,0.1661553447898601,0.42153152709563646,11.482484544841466,0.3700510098608252
1403638130345096960,50.684929,147.11747943015308,9.136528916666666,-0.7681875833333334,-3.571255041666667,0.0788888821901436,0.2932153143350474,0.3853686988403479,0.5484997122586818,11.955312137412106,0.4728275925706402
1403638130395097088,49.655676,302.58336672902874,8.77695175,-0.4739880833333333,-3.4731885416666666,0.1207767842380075,0.2527236756887789,0.364424747816416,0.5357214263829697,12.454169119348736,0.49885698193662975
1403638130445096960,59.91745,335.3425773842339,8.817812791666666,-0.7109821249999999,-3.4813607499999994,0.1082104136236484,-0.0335103216382911,-0.0921533845053006,0.35977021057159353,12.777413401209353,0.3232442818606174
1403638130495097088,49.53289,384.05646410712063,8.891362666666666,-0.9724927916666666,-3.546738416666667,0.0027925268031909,-0.1019272283164688,-0.21851522234969,0.4441173786893824,13.207541563441518,0.4301281622321653
1403638130545096960,40.352345,462.4861496905044,8.891362666666666,-0.9724927916666666,-3.546738416666667,0.0027925268031909,-0.1019272283164688,-0.21851522234969,0.4771538467502547,13.659022356737067,0.45148079329554847
1403638130595097088,59.632539,340.83552234377777,8.981256958333333,-0.3350605416666666,-3.571255041666667,-0.0146607657167523,0.2171189589480945,0.064926248174189,0.6491622326172336,14.309994701763953,0.6509723450268865
1403638130645096960,40.715456,270.1360158209597,8.981256958333333,-0.3350605416666666,-3.571255041666667,-0.0146607657167523,0.2171189589480945,0.064926248174189,0.9572777721601943,15.26756316154424,0.9575684597802869
1403638130695097088,49.982071,315.7954478655984,9.144701125,-0.73549875,-3.260711125,-0.0020943951023931,0.2820452071222836,0.265290046303138,0.4972984459301054,15.763490793053098,0.49592763150885766
1403638130745096960,50.008774,368.44707460622845,8.793296166666666,-0.8253930416666666,-2.852100708333333,0.1110029404268393,0.3371976114853044,0.5229006438975011,0.8198032111133032,16.427586119619843,0.6640953265667449
1403638130795097088,50.208569,497.5754890978074,8.760607333333333,-0.7109821249999999,-2.8847895416666667,0.1647590813882647,0.1773254520026238,0.5068436147791533,0.9931600321554968,17.180951215708777,0.7533650960889346
1403638130845096960,64.294576,1228.597950490845,7.812631166666666,-1.005181625,-2.778550833333333,0.0984365698124801,0.0795870138909414,0.1480039205691191,0.5071086345046445,17.650656095031536,0.46970487932275873
1403638130895097088,35.849571,1042.368546869713,7.812631166666666,-1.005181625,-2.778550833333333,0.0984365698124801,0.0795870138909414,0.1480039205691191,0.4035977422549124,18.04350942393235,0.3928533289008129
1403638130945096960,57.27768,577.8571249712156,8.204897166666667,-0.7927042083333332,-2.6477955,-0.0593411945678072,0.2597049926967562,0.1361356816555577,0.5632916082325289,18.39108462656824,0.34757520263589115
1403638130995097088,44.451713,589.3531258836758,7.412192958333333,-0.83356525,-2.1411185833333333,-0.1284562329467826,0.4586725274241098,0.1577777643802873,0.4988924144998001,18.64953985711455,0.2584552305463106
1403638131045096960,48.541546,811.5993042082367,7.559292708333333,-1.4301364583333334,-1.6834749166666665,-0.0726056968829641,0.3965388060531116,0.1968731396249603,0.3572765701547413,18.98300139440377,0.3334615372892209
1403638131095097088,49.896241,1172.5257257891176,7.436709583333332,-1.1522813749999998,-1.7161637499999998,-0.1005309649148733,0.1696460032938488,0.0202458193231342,0.3488079982724746,19.29627900335383,0.3132776089500595
1403638131145096960,50.165176,711.9683867011648,7.918869874999999,-1.3647587916666666,-1.8060580416666667,-0.0251327412287183,-0.124965574442794,-0.0677187749773799,0.2975664275662479,19.49586401588838,0.1995850125345484
1403638131195097088,49.683094,601.0907108317359,8.629852,-1.495514125,-2.231012875,-0.0349065850398865,-0.3351032163829112,-0.2464404903815993,0.4304828403344214,19.501918565714337,0.006054549825957878
1403638131245096960,50.241947,596.6653425379096,8.719746291666667,-0.980665,-2.59876225,-0.075398223686155,-0.418879020478639,-0.35395277230445,1.3377821930165674,20.557586192956524,1.0556676272421868
1403638131295097088,49.573898,575.2819232041655,8.948568125,-0.6701210833333332,-2.9011339583333333,-0.0111701072127637,-0.3211405823669566,-0.2094395102393195,0.6308720599971644,20.836846407201097,0.27926021424457304
1403638131345096960,60.289145,856.218063922938,8.842329416666665,-0.7191543333333333,-3.260711125,-0.0523598775598298,0.028623399732707,0.0942477796076938,0.437254391669586,20.613955426561795,-0.22289098063930268
1403638131395097088,40.057898,959.9498554523196,8.842329416666665,-0.7191543333333333,-3.260711125,-0.0523598775598298,0.028623399732707,0.0942477796076938,0.7717737120992268,20.07481414191107,-0.5391412846507251
1403638131445096960,49.962282,658.6880199578851,9.26728425,-0.6864655000000001,-3.2361945,-0.0328121899374933,0.0726056968829641,0.1228711793404008,0.766886517985925,19.73086213030571,-0.34395201160536004
1403638131495097088,49.925327,525.2422066786806,8.548129916666667,-0.3105439166666667,-3.064578125,-0.1333431548523667,0.0195476876223364,-0.1514945790731078,0.32453417962703496,19.67365122429794,-0.0572109060077679
1403638131545096960,50.080299,475.9399196698551,8.580818749999999,-1.12776475,-2.852100708333333,-0.0335103216382911,-0.0872664625997164,0.0195476876223364,0.628649251985804,19.521921617067626,-0.15172960723031537
1403638131595097088,59.776783,283.6935879763585,9.275456458333332,-0.63743225,-2.974683833333333,0.0083775804095727,-0.0914552528045028,-0.0397935069454707,0.41473020744960726,19.595450758223347,0.07352914115572062
1403638131645096960,39.88123,411.8155446564698,9.275456458333332,-0.63743225,-2.974683833333333,0.0083775804095727,-0.0914552528045028,-0.0397935069454707,0.7030763265827874,19.35269828985593,-0.24275246836741715
1403638131695097088,50.405741,327.9625664770817,9.013945791666666,-0.0898942916666666,-3.342433208333333,-0.036302848441482,0.0251327412287183,-0.0209439510239319,0.38333625476769745,19.22287405132909,-0.12982423852684022
1403638131745096960,49.716711,295.88647353655494,9.381695166666669,-0.809048625,-3.015544875,-0.0244346095279206,0.0041887902047863,0.0118682389135614,0.3674019013837127,19.209853058793673,-0.013020992535416553
1403638131795097088,49.948454,232.41511967949268,9.357178541666666,-0.0817220833333333,-3.538566208333333,-0.0865683308989187,-0.007679448708775,-0.1417207352619395,0.49159255454395534,19.47773347847645,0.26788041968277554
1403638131845096960,50.17662,264.1828301754816,9.210078791666666,-0.661948875,-3.2443667083333327,-0.1312487597499735,-0.0879645943005142,-0.1696460032938488,0.5340506669473909,19.97469181827444,0.49695833979799175
1403638131895097088,50.020933,204.7894595757047,9.520622708333333,0.2615106666666666,-3.710182583333333,-0.0914552528045028,0.0006981317007977,-0.0356047167406843,0.31802467155927755,20.255128989025184,0.28043717075074426
1403638131945096960,50.620794,220.0081355792352,10.648387458333334,-1.0133538333333332,-3.4650163333333333,-0.0691150383789754,0.0167551608191455,-0.0118682389135614,0.4559701028429352,20.660861020408785,0.40573203138360014
1403638131995097088,50.089837,181.5919020932652,10.828176041666667,0.2778550833333333,-3.751043625,-0.0293215314335047,-0.1026253600172665,-0.1514945790731078,0.4436482172241571,21.05986236200178,0.39900134159299583
1403638132045096960,49.654483,163.69232030139875,11.048825666666666,-0.4739880833333333,-3.857282333333333,0.0418879020478639,-0.1480039205691191,-0.2750638901143063,0.5045441179897796,21.54765025541613,0.4877878934143496
1403638132095097088,50.203562,207.39567151897543,11.661741291666669,0.2860272916666666,-4.2168595,0.0279252680319092,-0.2541199390903744,-0.2876302607286655,0.4871964054303565,22.018483635822587,0.4708333804064573
1403638132145096960,60.238838,290.9341971762014,11.841529875,0.7109821249999999,-4.8216029166666665,0.054454272662223,0.064926248174189,0.0397935069454707,0.4284473141664162,22.380362152942933,0.3618785171203456
1403638132195097088,39.238692,169.17144001221794,11.841529875,0.7109821249999999,-4.8216029166666665,0.054454272662223,0.064926248174189,0.0397935069454707,0.5728780065513439,22.8523270290336,0.4719648760906665
1403638132245096960,60.85515,115.37817191223786,10.811831625,-0.2941994999999999,-4.020726499999999,0.1284562329467826,0.3707079331235955,0.3804817769347638,0.33681832580529397,23.082288368573707,0.22996133954010745
1403638132295097088,38.890362,121.0364444697092,10.811831625,-0.2941994999999999,-4.020726499999999,0.1284562329467826,0.3707079331235955,0.3804817769347638,0.2703353866279743,23.31023977525642,0.2279514066827133
1403638132345096960,50.15707,191.5705183182465,10.051816249999998,0.465815875,-3.669321541666666,0.064926248174189,0.2974041045398337,0.2241002759560719,0.5742629570973892,23.60202218020876,0.29178240495233965
1403638132395097088,49.547911,175.5031263591305,9.782133375,-0.8744262916666666,-3.0809225416666663,0.2164208272472968,0.1026253600172665,0.3818780403363593,0.47697804489442136,23.791912322186242,0.18989014197748233
1403638132445096960,50.593376,136.40003399545532,9.643205833333331,0.5557101666666666,-3.366949833333333,0.179419847105017,0.2066469834361286,0.3700098014227978,0.4281869862918209,23.800266364973556,0.008354042787313887
1403638132495097088,59.904337,157.14145358019096,8.932223708333334,-0.1634441666666666,-2.672312125,0.1549852375770964,0.5249950389998943,0.5473352534254218,0.5366272580905381,23.58865618063674,-0.21161018433681633
1403638132545096960,41.134119,155.11898118020977,8.932223708333334,-0.1634441666666666,-2.672312125,0.1549852375770964,0.5249950389998943,0.5473352534254218,0.5446580237681199,23.553085322138315,-0.03557085849842423
1403638132595097088,49.720525,208.36796297147723,8.466407833333333,-1.569064,-1.9286411666666663,0.1319468914507713,0.4852015320544235,0.4838052686528281,0.5892471836580666,23.38955034285281,-0.16353497928550453
1403638132645096960,49.8209,770.789916131844,7.673703624999999,-1.3565865833333333,-1.838746875,0.0760963553869527,0.2338741197672401,0.3197443189653611,1.1460704246765017,22.436701998878974,-0.9528483439738373
1403638132695097088,49.362183,504.64173005947896,7.273265416666667,-1.1114203333333332,-2.0593965,0.0481710873550434,-0.1340412865531645,0.1514945790731078,0.6957766402666464,22.461839023275704,0.025137024396730823
1403638132745096960,60.828209,723.3195920660719,7.837147791666666,-0.7028099166666667,-2.680484333333333,-0.0342084533390888,-0.1110029404268393,0.1480039205691191,0.35634516280682405,22.29750202310197,-0.16433700017373454
1403638132795097088,39.199352,1203.5948632421685,7.837147791666666,-0.7028099166666667,-2.680484333333333,-0.0342084533390888,-0.1110029404268393,0.1480039205691191,0.6686034089326924,21.770621364189736,-0.5268806589122335
1403638132845096960,60.390711,658.0050352592846,7.714564666666666,-0.809048625,-1.9695022083333331,-0.0307177948351002,0.333008821280518,0.3211405823669566,1.1020387727167136,21.150736138308254,-0.6198852258814824
1403638132895097088,39.323807,671.559145290332,7.714564666666666,-0.809048625,-1.9695022083333331,-0.0307177948351002,0.333008821280518,0.3211405823669566,1.2815619538165104,20.657590014282043,-0.49314612402621094
1403638132945096960,50.115823,804.6171170539602,7.84532,-0.0817220833333333,-2.0512242916666668,0.0837758040957278,0.3099704751541929,0.2715732316103177,0.19437580203390878,20.545108430631366,-0.11248158365067695
1403638132995097088,49.052477,1070.4366101764672,7.820803375,-0.784532,-1.32389775,0.1179842574348166,0.1745329251994329,0.0872664625997164,0.40755076112421057,20.695089193855956,0.14998076322459042
1403638133045096960,50.991297,856.8035987254581,8.580818749999999,0.3268883333333333,-2.214668458333333,0.1012290966156711,-0.0781907504893459,-0.1933824811209717,0.6166320154079044,20.684439842271722,-0.010649351584234523
1403638133095097088,49.926758,861.782888836496,9.038462416666666,-0.4004382083333333,-1.91229675,-0.0251327412287183,-0.1926843494201739,-0.3302162944773272,0.5487142062010845,20.379995181910665,-0.30444466036105666
1403638133145096960,49.958467,959.8443271049704,9.226423208333332,0.269682875,-2.4680069166666665,-0.0656243798749867,-0.1850049007113989,-0.0977384381116824,0.34039093977687435,20.132740464274494,-0.2472547176361708
1403638133195097088,57.195187,934.88712864922,9.667722458333332,0.1307553333333333,-2.680484333333333,-0.2436479635784084,-0.0579449311662117,-0.0607374579694026,0.4555726541762786,19.68555735029195,-0.4471831139825433
1403638133245096960,44.882536,667.8407971763044,9.259112041666668,-0.3514049583333333,-2.6477955,-0.2988003679414292,0.0006981317007977,0.1019272283164688,2.016132462836081,21.135162531575094,1.4496051812831432
1403638133295097088,48.068523,549.5530030321033,9.136528916666666,0.5965712083333333,-2.754034208333333,-0.4335397861953914,0.0125663706143591,0.0027925268031909,0.8712243515632931,21.753522217616855,0.6183596860417602
1403638133345096960,49.755097,489.9570354606536,9.07115125,-0.0817220833333333,-2.803067458333333,-0.3693116697220001,-0.1487020522699168,-0.0097738438111682,1.0674657827790848,22.166959835831136,0.4134376182142816
1403638133395097088,50.287485,465.0433214390455,9.741272333333333,-0.3023717083333333,-3.2443667083333327,-0.364424747816416,-0.1584758960810851,-0.0083775804095727,1.0029526487503424,22.380834845665674,0.21387500983453833
1403638133445096960,60.152054,593.768912736808,9.283628666666663,-0.318716125,-3.5957716666666664,-0.4649557127312894,-0.0139626340159546,0.1556833692778942,0.9202789164910905,22.493905834310464,0.1130709886447896
1403638133495097088,39.576053,588.8976891998358,9.283628666666663,-0.318716125,-3.5957716666666664,-0.4649557127312894,-0.0139626340159546,0.1556833692778942,0.41244697595338015,22.373744795644598,-0.12016103866586647
1403638133545096960,49.779892,457.5077003676943,9.536967125,-0.7763597916666666,-3.0400615,-0.5194099853935125,0.0090757121103705,0.2771582852166995,0.6247819176894549,22.22458975899295,-0.1491550366516492
1403638133595097088,50.031901,375.97354849150753,8.858673833333333,-0.1879607916666666,-3.4977051666666665,-0.3043854215478111,-0.0795870138909414,0.411199571769864,0.30834598792678636,21.981096048408236,-0.24349371058471192
1403638133645096960,59.654951,440.2460321073165,9.16921775,-0.6210878333333334,-3.530394,-0.228987197861656,-0.1179842574348166,0.3281218993749339,0.5098074926520789,21.614529767799855,-0.3665662806083816
1403638133695097088,40.312767,398.086628930141,9.16921775,-0.6210878333333334,-3.530394,-0.228987197861656,-0.1179842574348166,0.3281218993749339,0.5379369001999691,21.185197943831955,-0.4293318239678996
1403638133745096960,50.02737,420.1575944109807,9.005773583333333,-1.6916471249999998,-2.950167208333333,-0.3762929867299774,-0.0984365698124801,0.1864011641129944,0.35720424651334015,20.872559532862258,-0.31263841096969713
1403638133795097088,59.45015,444.698244142791,9.283628666666663,-1.7488525833333333,-2.631451083333333,-0.4349360495969869,-0.0551524043630208,-0.036302848441482,0.5257150106539562,20.40932282282139,-0.4632367100408672
1403638133845096960,50.515413,282.706051436889,9.716755708333332,-2.2555295,-2.4925235416666665,-0.2960078411382383,-0.0788888821901436,0.0481710873550434,0.07688225347204757,20.413764818987215,0.004441996165823525
1403638133895097088,49.604416,345.1495298117473,10.362360166666663,-3.072750333333333,-2.557901208333333,-0.2534218073895766,-0.0013962634015954,0.0942477796076938,0.16653509293198732,20.261490760022795,-0.15227405896441937
1403638133945096960,50.101996,481.0074360818145,10.223432625,-2.803067458333333,-2.353596,-0.1270599695451872,0.0781907504893459,0.1026253600172665,0.3672437090624583,19.94214285723079,-0.3193479027920034
1403638133995097088,50.311327,525.3053294442553,9.438900625,-2.631451083333333,-2.655967708333333,-0.0404916386462684,0.028623399732707,0.0146607657167523,0.9237564968112045,19.541506000020938,-0.40063685720985376
1403638134045096960,39.769172,506.1871662882722,9.438900625,-2.631451083333333,-2.655967708333333,-0.0404916386462684,0.028623399732707,0.0146607657167523,1.3432596772408403,19.33910819702424,-0.20239780299669619
1403638134095097088,60.994148,429.9879118626924,10.092677291666664,-1.4791697083333333,-2.8439285,0.064926248174189,-0.1089085453244461,-0.1549852375770964,0.38366801415695995,19.549993019367424,0.21088482234318207
1403638134145096960,39.076329,511.7150821764192,10.092677291666664,-1.4791697083333333,-2.8439285,0.064926248174189,-0.1089085453244461,-0.1549852375770964,0.4428618671969056,19.549105963970074,-0.0008870553973494566
1403638134195097088,50.245523,349.04479056587866,9.937405333333334,-1.3075533333333331,-3.2770555416666665,-0.0097738438111682,0.0600393262686049,-0.0251327412287183,0.4043276532752899,19.470614594144998,-0.07849136982507687
1403638134245096960,49.821377,234.41776607898916,9.9047165,-1.2176590416666666,-3.18716125,-0.0167551608191455,0.346273323595675,0.2729694950119131,0.4758907796444999,19.25405140465655,-0.216563189488447
1403638134295097088,50.032616,576.6145107837126,9.226423208333332,-1.348414375,-2.827584083333333,-0.025830872929516,0.3008947630438224,0.2834414705238791,1.3073302354215133,18.964681672132542,-0.2893697325240083
1403638134345096960,49.98517,651.1970449456247,8.752435125,-1.372931,-3.0564059166666664,0.0474729556542457,0.0230383461263251,0.2813470754214859,1.031553242252387,19.30480856584371,0.3401268937111688
1403638134395097088,50.207138,631.3709111974351,9.16921775,-0.8907707083333333,-3.2035056666666666,0.1123992038284348,-0.0984365698124801,0.2436479635784084,0.6773491659262478,19.535806044728528,0.2309974788848166
1403638134445096960,49.636126,1231.2842584471357,9.422556208333331,-0.6864655000000001,-3.587599458333333,0.0851720674973232,-0.1319468914507713,0.1933824811209717,1.1717247490598095,18.926861167089786,-0.6089448776387414
1403638134495097088,50.089359,1154.9428242350766,8.956740333333332,-0.8989429166666666,-4.0125542916666666,0.0593411945678072,0.025830872929516,0.21851522234969,1.0147344789038615,18.443452170697878,-0.4834089963919084
1403638134545096960,49.949169,1094.7721537896578,8.87501825,-0.8008764166666666,-3.898143375,0.0509636141582344,0.0439822971502571,0.2869321290278678,1.2144335861491133,18.214283165352928,-0.22916900534495
1403638134595097088,50.073385,1175.39927692757,9.005773583333333,-1.4056198333333334,-3.9144877916666654,0.1494001839707146,0.0740019602845595,0.2904227875318564,1.2626261776119452,17.667833451836067,-0.5464497135168607
1403638134645096960,50.306082,1101.8334438354177,9.005773583333333,-1.046042666666667,-4.184170666666667,0.0733038285837618,-0.0579449311662117,0.161268422884276,0.6889452240530877,18.089920131450185,0.42208667961411805
1403638134695097088,62.093735,1007.5052269523868,8.956740333333332,-0.6537766666666667,-3.612116083333333,0.1256637061435917,-0.2066469834361286,0.064926248174189,0.3372444622793317,18.225768205173765,0.13584807372357943
1403638134745096960,49.606323,864.2640279901927,9.65955025,-1.1114203333333332,-3.661149333333333,0.0272271363311115,-0.2590068609959585,-0.0558505360638185,0.19866687841589464,18.233600674576376,0.007832469402611508
1403638134795097088,38.461208,1038.914985414552,9.65955025,-1.1114203333333332,-3.661149333333333,0.0272271363311115,-0.2590068609959585,-0.0558505360638185,0.12172632862245171,18.172782125779037,-0.06081854879733939
1403638134845096960,60.54163,1345.029129779947,9.16921775,-0.5230213333333333,-3.7837324583333327,-0.0090757121103705,0.0097738438111682,-0.0048869219055841,0.15993889815201912,18.22565716352484,0.052875037745803155
1403638134895097088,39.077282,831.4209503503779,9.16921775,-0.5230213333333333,-3.7837324583333327,-0.0090757121103705,0.0097738438111682,-0.0048869219055841,0.28143773326293,17.97291987075456,-0.2527372927702807
1403638134945096960,61.122894,768.0327958015154,8.033280791666666,-0.5311935416666667,-3.4731885416666666,-0.0153588974175501,0.189891822616983,0.1214749159388053,0.14687833412369386,18.01059243471636,0.0376725639618023
1403638134995097088,49.215556,1018.6527086258146,8.899534874999999,0.0653776666666666,-3.219850083333333,-0.007679448708775,0.0013962634015954,-0.0691150383789754,2.3036586899445335,15.894135533994536,-2.1164569007218255
1403638135045096960,39.824724,1016.0965224383606,8.899534874999999,0.0653776666666666,-3.219850083333333,-0.007679448708775,0.0013962634015954,-0.0691150383789754,1.0903723500417934,15.54509498953933,-0.3490405444552067
1403638135095097088,59.845924,986.6140685566592,8.564474333333333,0.5311935416666667,-3.612116083333333,0.08307767239493,-0.1305506280491758,-0.0963421747100869,0.7539743637589558,15.163656541386233,-0.38143844815309613
1403638135145096960,40.200234,1085.523526207712,8.564474333333333,0.5311935416666667,-3.612116083333333,0.08307767239493,-0.1305506280491758,-0.0963421747100869,0.5537229477532873,14.884477051158692,-0.2791794902275413
1403638135195097088,50.129413,775.1931523196564,8.638024208333333,0.8172208333333333,-3.881798958333333,0.0160570291183478,-0.093549647906896,-0.057246799465414,0.4684602295207048,14.605269398570126,-0.27920765258856584
1403638135245096960,49.802065,756.0515816382562,8.67888525,0.956148375,-3.906315583333333,-0.0244346095279206,-0.0970403064108847,0.0013962634015954,0.6048539975925188,14.462607366670833,-0.1426620318992935
1403638135295097088,50.211668,884.6191061217318,9.259112041666668,1.1441091666666665,-3.538566208333333,-0.0370009801422797,0.0390953752446729,0.0006981317007977,1.0388908977799791,14.094731077022264,-0.367876289648569
1403638135345096960,49.637556,599.2105875057835,9.1201845,0.367749375,-4.028898708333333,-0.0537561409614253,0.1179842574348166,0.0956440430092892,0.5396449431757548,13.85216511691882,-0.2425659601034429
1403638135395097088,50.202847,575.8939288936945,9.218251,0.416782625,-3.8245935,-0.0984365698124801,0.0726056968829641,0.08307767239493,0.2332575932595939,13.83238970549853,-0.019775411420290823
1403638135445096960,54.128885,437.2644287307085,8.77695175,0.661948875,-3.92266,-0.182212373908208,-0.0125663706143591,-0.0293215314335047,0.09598453561999232,13.819989365998827,-0.01240033949970254
1403638135495097088,47.656775,311.1054687118626,9.398039583333333,-0.0081722083333333,-3.3260887916666664,-0.1647590813882647,-0.0642281164733913,-0.0795870138909414,0.6466269514132628,13.68836509900759,-0.13162426699123664
1403638135545096960,48.298597,258.41080488596486,9.855683249999998,0.53936575,-3.92266,-0.0740019602845595,-0.1815142422074102,0.0432841654494593,0.5735140871415112,13.58073497128702,-0.10763012772057046
1403638135595097088,50.101042,336.976896649375,9.765788958333331,0.7763597916666666,-3.955348833333333,-0.2087413785385218,-0.122173047639603,-0.0760963553869527,0.6674654929818976,13.516799023018672,-0.06393594826834814
1403638135645096960,59.580564,357.95315384223505,8.458235625,0.0408610416666666,-3.963521041666666,-0.2122320370425104,0.2087413785385218,0.2904227875318564,1.016247798691432,13.42088857328708,-0.09591044973159235
1403638135695097088,39.911986,375.30346013258105,8.458235625,0.0408610416666666,-3.963521041666666,-0.2122320370425104,0.2087413785385218,0.2904227875318564,0.698511492371686,13.405006477563287,-0.015882095723792844
1403638135745096960,50.06814,432.5243128634112,8.548129916666667,-0.6701210833333332,-3.92266,-0.1368338133563554,0.208043246837724,0.3881612256435388,0.6298127662158622,13.42672845542319,0.021721977859902708
1403638135795097088,60.010671,430.266015208697,9.430728416666666,-0.73549875,-3.947176625,-0.0788888821901436,-0.0747000919853573,0.0097738438111682,0.536683295200342,13.538529896556192,0.11180144113300194
1403638135845096960,39.831162,345.80857485089865,9.430728416666666,-0.73549875,-3.947176625,-0.0788888821901436,-0.0747000919853573,0.0097738438111682,0.5708023027191299,13.681252275067795,0.1427223785116034
1403638135895097088,59.790849,233.35584318534112,10.329671333333332,-0.1797885833333333,-4.347614833333333,-0.1242674427419962,-0.2492330171847902,-0.1801179788058148,0.5622068760557134,13.818624587077109,0.13737231200931355
1403638135945096960,40.190459,271.50096678063454,10.329671333333332,-0.1797885833333333,-4.347614833333333,-0.1242674427419962,-0.2492330171847902,-0.1801179788058148,0.6705784691924734,13.890482083190808,0.07185749611369907
1403638135995097088,59.894561,373.21687648975234,10.133538333333334,0.93163175,-3.849110125,-0.21851522234969,0.1382300767579508,-0.007679448708775,0.6101357307002663,13.858590097011106,-0.03189198617970135
1403638136045096960,49.78633,281.98203879961227,8.817812791666666,0.63743225,-3.6448049166666654,-0.2164208272472968,0.3581415625092364,0.1619665545850737,0.9695824994553374,13.904315774376835,0.045725677365728856
1403638136095097088,40.362358,272.81071354121696,8.817812791666666,0.63743225,-3.6448049166666654,-0.2164208272472968,0.3581415625092364,0.1619665545850737,0.781866055589316,14.12342011012295,0.2191043357461151
1403638136145096960,50.198555,283.3856855241737,8.28661925,0.6782932916666666,-3.5957716666666664,-0.15079644737231,0.3483677186980682,0.372104196525191,0.8764380508608329,14.353942717819338,0.230522607696388
1403638136195097088,61.746836,380.399855311927,7.967903124999999,0.1552719583333333,-3.08909475,-0.0865683308989187,0.1270599695451872,0.2324778563656447,0.6372847837836498,14.60469289879395,0.2507501809746113
1403638136245096960,38.039922,486.2130955277575,7.967903124999999,0.1552719583333333,-3.08909475,-0.0865683308989187,0.1270599695451872,0.2324778563656447,0.9380459332713362,14.912289475129622,0.3075965763356727
1403638136295097088,59.527636,473.12238950195285,8.556302125,-0.980665,-3.211677875,-0.2275909344600605,-0.0251327412287183,-0.0537561409614253,0.8325124164551421,15.242078305730052,0.32978883060042996
1403638136345096960,50.124645,417.675964607794,8.964912541666667,-1.8224024583333327,-3.064578125,-0.132645023151569,-0.0551524043630208,0.0041887902047863,0.7532318777887769,15.599412741627782,0.3573344358977302
1403638136395097088,40.140152,437.6693348764688,8.964912541666667,-1.8224024583333327,-3.064578125,-0.132645023151569,-0.0551524043630208,0.0041887902047863,0.45381025051885704,15.8545163569434,0.2551036153156172
1403638136445096960,59.795141,467.52034429482336,10.084505083333331,-2.6477955,-3.4486719166666666,-0.1284562329467826,-0.036302848441482,0.0628318530717958,0.4118569494093804,16.115444120707615,0.2609277637642151
1403638136495097088,40.175438,476.76995085603096,10.084505083333331,-2.6477955,-3.4486719166666666,-0.1284562329467826,-0.036302848441482,0.0628318530717958,0.520102182334598,16.38260533286968,0.26716121216206545
1403638136545096960,50.199747,414.4842420594678,10.54214875,-2.3699404166666667,-3.751043625,-0.0977384381116824,-0.1047197551196597,0.289026524130261,0.4570443331778743,16.564871447826253,0.18226611495657252
1403638136595097088,50.13609,408.2565271123116,10.084505083333331,-2.165635208333333,-3.587599458333333,-0.0034906585039886,-0.0027925268031909,0.3323106895797203,0.5082322904326394,16.735269944828694,0.17039849700244147
1403638136645096960,49.932479,326.812882306431,9.56148375,-2.181979625,-3.489532958333333,0.1647590813882647,0.0530580092606276,0.307177948351002,0.30974084116646106,16.818239828094814,0.08296988326612009
1403638136695097088,50.00949,378.9396646471064,9.259112041666668,-2.0512242916666668,-3.726527,0.2157226955464991,0.0502654824574366,0.2387610416728242,0.3067902273417826,16.953551095189674,0.13531126709485974
1403638136745096960,59.592247,384.8910436751687,9.234595416666666,-2.018535458333333,-3.293399958333333,0.3679154063204046,0.0509636141582344,0.2157226955464991,0.2886583319471979,17.12451414286992,0.17096304768024595
1403638136795097088,40.455102,259.07879609641725,9.234595416666666,-2.018535458333333,-3.293399958333333,0.3679154063204046,0.0509636141582344,0.2157226955464991,0.12950124158642304,17.062419179314315,-0.062094963555605176
1403638136845096960,59.63111,245.2471448882754,7.967903124999999,-1.2094868333333333,-2.7131731666666665,0.4049163864626844,0.2611012560983517,0.4593706591249075,0.1781557147121987,16.99894413186851,-0.0634750474458059
1403638136895097088,49.918651,196.55703084714372,7.256920999999999,-1.005181625,-2.778550833333333,0.3385938748868999,0.3783873818323706,0.4426154983057619,0.4321600928478769,17.0124792354302,0.013535103561689965
1403638136945096960,40.157795,260.4909747721768,7.256920999999999,-1.005181625,-2.778550833333333,0.3385938748868999,0.3783873818323706,0.4426154983057619,0.3122153792611074,17.21888722871406,0.20640799328386095
1403638136995097088,50.081253,422.7673273308261,7.60015375,-0.7028099166666667,-2.4680069166666665,0.2513274122871834,0.2729694950119131,0.325329372571743,0.2451938767941292,17.35829166075512,0.13940443204106145
1403638137045096960,49.789429,536.6736781977768,7.240576583333333,-0.8417374583333332,-2.557901208333333,0.2429498318776106,0.1033234917180643,0.1989675347273535,0.3359506703175809,17.49802200352272,0.13973034276759932
1403638137095097088,50.30632,469.68397582694666,7.967903124999999,-0.2369940416666666,-2.8847895416666667,0.1270599695451872,-0.0670206432765822,-0.0321140582366956,0.4955276114199573,17.69185392402133,0.1938319204986101
1403638137145096960,49.855232,285.6415911326368,8.18855275,-0.7273265416666667,-2.8602729166666667,0.057246799465414,-0.1598721594826805,-0.1745329251994329,0.22186288865454754,17.841628777032717,0.1497748530113867
1403638137195097088,59.356928,225.53339674940852,8.940395916666665,-0.4004382083333333,-3.317916583333333,0.0712094334813686,-0.3113667385557884,-0.2345722514680378,0.23281209771166222,17.944652532705025,0.10302375567230726
1403638137245096960,40.644169,217.4397382860637,8.940395916666665,-0.4004382083333333,-3.317916583333333,0.0712094334813686,-0.3113667385557884,-0.2345722514680378,0.15072125224905827,17.81320713908581,-0.13144539361921304
1403638137295097088,50.184965,220.8419987283713,9.022118,-0.367749375,-3.546738416666667,0.0670206432765822,-0.2017600615305445,-0.189891822616983,0.4394925785304248,17.822485460244543,0.009278321158731728
1403638137345096960,59.532404,202.42719685005883,9.373522958333332,0.24516625,-3.8082490833333327,-0.0139626340159546,-0.1347394182539622,-0.1082104136236484,0.23142553795275825,17.838182821049706,0.01569736080516293
1403638137395097088,49.806833,179.41159571256068,9.594172583333334,-0.7518431666666666,-3.603943875,-0.0914552528045028,-0.2101376419401172,-0.153588974175501,0.17838384617469594,17.85651606894305,0.018333247893345117
1403638137445096960,40.314913,137.3639546485365,9.594172583333334,-0.7518431666666666,-3.603943875,-0.0914552528045028,-0.2101376419401172,-0.153588974175501,0.1361908365786505,17.844850851010648,-0.011665217932403493
1403638137495097088,50.291539,128.08741297263518,9.5124505,0.0898942916666666,-3.759215833333333,-0.1137954672300302,-0.2450442269800038,-0.2303834612632515,0.11992858451940527,17.841663234221087,-0.0031876167895603658
1403638137545096960,59.512853,114.66554174827402,9.675894666666666,0.1797885833333333,-4.135137416666667,-0.1905899543177807,-0.2401573050744197,-0.3392920065876977,0.11582803438527814,17.814316015591306,-0.027347218629781622
1403638137595097088,40.450096,119.3469248651716,9.675894666666666,0.1797885833333333,-4.135137416666667,-0.1905899543177807,-0.2401573050744197,-0.3392920065876977,0.24825314187006878,17.825757120563477,0.01144110497217099
1403638137645096960,49.998522,153.58607883397917,9.471589458333332,-0.1879607916666666,-4.46202575,-0.1061160185212552,-0.0712094334813686,-0.0893608577021096,0.22576293933325473,17.740027908978252,-0.08572921158522462
1403638137695097088,49.99423,167.44512342529077,9.586000375,0.5557101666666666,-4.535575625,-0.1703441349946465,0.0439822971502571,0.046774823953448,0.1536959839047349,17.765201283695635,0.025173374717383012
1403638137745096960,54.180384,154.31388722308594,8.989429166666666,0.024516625,-4.3312704166666665,-0.1521927107739055,0.1466076571675237,0.1026253600172665,0.1880325976686467,17.81425170129293,0.049050417597293006
1403638137795097088,58.125734,140.29228179629246,9.177389958333332,-0.1307553333333333,-4.184170666666667,-0.0865683308989187,-0.0851720674973232,0.0125663706143591,0.41496785293675287,17.73240391923666,-0.08184778205626841
1403638137845096960,37.981272,101.57075589466032,9.046634625,-0.2043052083333333,-4.16782625,-0.0879645943005142,-0.104021623418862,-0.0048869219055841,0.15304966906760237,17.721393868191228,-0.011010051045431624
1403638137895097088,49.855709,94.36972194621934,9.218251,-0.0326888333333333,-4.298581583333333,-0.0788888821901436,-0.2373647782712288,-0.1172861257340189,0.35376025576099884,17.73911889391905,0.01772502572782031
1403638137945096960,49.724341,93.97433134215692,9.07115125,0.2043052083333333,-4.519231208333333,-0.08307767239493,-0.3141592653589793,-0.1850049007113989,0.3213851425348551,17.817194758327844,0.07807586440879533
1403638137995097088,50.44651,101.2034962322388,9.447072833333332,0.2778550833333333,-4.388475875,0.0139626340159546,-0.2806489437206881,-0.1054178868204575,0.21690456137621442,17.828911155466745,0.011716397138901158
1403638138045096960,49.564838,150.56516852665172,9.005773583333333,0.4576436666666666,-4.592781083333333,0.0006981317007977,-0.0893608577021096,-0.0733038285837618,0.5206860841845222,17.865722022505587,0.03681086703884162
1403638138095097088,50.249577,124.20585963423288,9.112012291666666,0.3595771666666666,-4.5519200416666665,0.0104719755119659,0.0642281164733913,0.0411897703470661,0.4904283290559734,17.95672081825156,0.0909987957459748
1403638138145096960,49.863338,106.8070721067374,6.586799916666666,1.1522813749999998,-3.685665958333333,-0.0390953752446729,0.2010619298297467,0.3127630019573839,0.370567640010769,18.17714391751788,0.22042309926631987
1403638138195097088,50.044299,204.99464786149431,7.371331916666667,-0.0653776666666666,-3.8245935,-0.0321140582366956,0.265290046303138,0.2597049926967562,0.3348020176442675,18.313457668280954,0.1363137507630725
1403638138245096960,59.448957,124.3908307628632,9.218251,-0.8172208333333333,-4.004382083333333,-0.0209439510239319,0.1710422666954443,0.2729694950119131,0.8104028694746144,18.375786946476033,0.062329278195079496
1403638138295097088,40.248632,181.3684428541764,9.218251,-0.8172208333333333,-4.004382083333333,-0.0209439510239319,0.1710422666954443,0.2729694950119131,0.8828117910321568,18.35616421479991,-0.019622731676122385
1403638138345096960,50.22192,190.4838716329492,7.902525458333333,0.0898942916666666,-3.7837324583333327,-0.0328121899374933,0.2331759880664424,0.0251327412287183,2.483093490418968,17.96890721148027,-0.38725700331963964
1403638138395097088,49.967289,210.21134713262663,10.574837583333332,-0.4004382083333333,-4.543747833333333,0.0209439510239319,0.2213077491528809,0.1584758960810851,1.5058543186229483,17.729118889356315,-0.23978832212395673
1403638138445096960,50.303936,222.9460604223056,9.667722458333332,-0.2043052083333333,-4.257720541666666,-0.0139626340159546,0.0376991118430775,0.046774823953448,2.3125977884980427,17.41652988518086,-0.31258900417545377
1403638138495097088,49.60537,208.66090327566675,8.891362666666666,0.4086104166666666,-4.355787041666666,-0.0104719755119659,0.1186823891356144,0.0488692190558412,1.5389197861947281,16.568169707798358,-0.8483601773825029
1403638138545096960,60.395718,224.38933320922297,8.964912541666667,0.2860272916666666,-3.947176625,-0.0048869219055841,0.0160570291183478,0.0767944870877505,0.9247980002716563,16.53055587074794,-0.03761383705041865
1403638138595097088,49.306869,224.48548810545276,8.997601374999999,-0.2043052083333333,-3.9390044166666662,0.0062831853071795,0.0216420827247296,0.0886627260013119,1.406804280571914,16.434192278555283,-0.096363592192656
1403638138645096960,40.184736,219.21130340570795,8.997601374999999,-0.2043052083333333,-3.9390044166666662,0.0062831853071795,0.0216420827247296,0.0886627260013119,0.9540232299971111,16.716936281556784,0.2827440030015005
1403638138695097088,60.127497,220.64495512950492,9.242767625,-0.0326888333333333,-4.135137416666667,-0.0020943951023931,0.0006981317007977,0.0600393262686049,1.3795985621003628,17.426395220250804,0.70945893869402
1403638138745096960,40.096998,221.2918129884532,9.242767625,-0.0326888333333333,-4.135137416666667,-0.0020943951023931,0.0006981317007977,0.0600393262686049,0.6566791062582045,17.414389306412406,-0.01200591383839722
1403638138795097088,50.137759,221.3867039681315,8.997601374999999,0.4494714583333333,-4.077931958333333,0.0048869219055841,0.007679448708775,0.0747000919853573,0.26437245255164077,17.486248746418877,0.07185944000647027
1403638138845096960,60.092926,221.39228051240815,8.842329416666665,0.6292600416666666,-3.661149333333333,-0.0223402144255274,-0.0230383461263251,0.182212373908208,0.33344474745274344,17.230076639858723,-0.2561721065601539
1403638138895097088,40.100813,218.6511547037315,8.842329416666665,0.6292600416666666,-3.661149333333333,-0.0223402144255274,-0.0230383461263251,0.182212373908208,3.334883879307505,19.01173541869269,1.7816587788339682
1403638138945096960,48.83933,220.9185412732124,8.548129916666667,0.6782932916666666,-3.9390044166666662,-0.0726056968829641,0.0062831853071795,0.0090757121103705,0.7545310563298494,18.63513872852026,-0.37659669017243047
1403638138995097088,51.363707,217.3191366712998,8.605335375,-0.269682875,-4.053415333333333,-0.0376991118430775,0.0376991118430775,0.1466076571675237,1.752469469747156,19.905422504556206,1.2702837760359458
1403638139045096960,49.429655,219.486347534301,9.193734375,0.8744262916666666,-3.8899711666666654,-0.0481710873550434,0.0188495559215387,0.0726056968829641,0.39539292740056586,19.78747112310858,-0.11795138144762518
1403638139095097088,50.481319,215.7132082187155,8.662540833333333,-0.2124774166666666,-3.979865458333333,-0.0376991118430775,0.0125663706143591,0.0788888821901436,0.3677589000107392,20.016078396651587,0.22860727354300536
1403638139145096960,59.781313,220.07407086470377,8.866846041666665,-0.2615106666666666,-3.832765708333333,-0.0425860337486616,0.0188495559215387,0.0488692190558412,0.6478399607556236,20.55597570483797,0.5398973081863829
1403638139195097088,40.305615,218.85560537885968,8.866846041666665,-0.2615106666666666,-3.832765708333333,-0.0425860337486616,0.0188495559215387,0.0488692190558412,0.5288388465424313,20.138632138547997,-0.41734356628997205
1403638139245096960,49.546957,224.7594812886676,8.850501625,0.2860272916666666,-4.045243125,-0.0083775804095727,0.0160570291183478,0.1263618378443894,1.074225543452508,20.979330636056822,0.840698497508825
1403638139295097088,50.161123,224.11050239985516,8.850501625,-0.0572054583333333,-3.97169325,-0.0370009801422797,0.0293215314335047,0.0439822971502571,0.9262529690888661,20.20650079807483,-0.7728298379819911
1403638139345096960,50.25506,225.22289575610836,8.9240515,0.0326888333333333,-3.947176625,-0.007679448708775,0.0174532925199432,0.1151917306316257,0.5731938783251196,20.6088907034153,0.4023899053404705
1403638139395097088,49.960613,224.57286981071772,8.932223708333334,0.24516625,-3.9390044166666662,-0.0237364778271228,0.0244346095279206,0.0593411945678072,0.46188878220832985,20.197962084887774,-0.41092861852752804
1403638139445096960,60.135842,224.4677061683214,9.087495666666666,0.2043052083333333,-3.97169325,-0.0062831853071795,0.0188495559215387,0.0851720674973232,0.2647921092142368,20.303742090160245,0.10578000527247156
1403638139495097088,39.792537,224.2910743623581,9.087495666666666,0.2043052083333333,-3.97169325,-0.0062831853071795,0.0188495559215387,0.0851720674973232,0.1275730589452719,20.226019669477417,-0.07772242068282864
1403638139545096960,49.952746,223.90607573158897,8.891362666666666,-0.2615106666666666,-3.963521041666666,-0.0139626340159546,0.0167551608191455,0.0760963553869527,0.15407184773544472,20.10700532839311,-0.11901434108430564
1403638139595097088,49.895048,225.28397069976015,8.793296166666666,0.1470997499999999,-3.898143375,-0.0069813170079773,0.018151424220741,0.0893608577021096,0.22234428181694424,20.244689831704783,0.1376845033116716
1403638139645096960,59.54504,224.4593737879237,8.981256958333333,0.1634441666666666,-3.97169325,-0.0027925268031909,0.0216420827247296,0.0865683308989187,0.20399885233787643,20.06687097097923,-0.17781886072555153
1403638139695097088,49.933195,224.4515046478451,9.013945791666666,-0.0081722083333333,-3.963521041666666,-0.0062831853071795,0.0230383461263251,0.0712094334813686,0.178657150024307,20.22641702382745,0.15954605284822065
1403638139745096960,40.049792,224.79293083912,9.013945791666666,-0.0081722083333333,-3.963521041666666,-0.0062831853071795,0.0230383461263251,0.0712094334813686,0.2482014570883882,20.02934421720899,-0.19707280661846127
1403638139795097088,50.425768,225.35242370202528,8.915879291666666,-0.0326888333333333,-4.0125542916666666,-0.0013962634015954,0.0146607657167523,0.0914552528045028,0.18444580853238923,20.185656693130515,0.1563124759215242
1403638139845096960,49.67451,224.8895492737145,8.97308475,0.0817220833333333,-3.947176625,-0.0090757121103705,0.0230383461263251,0.0691150383789754,0.20046586568330244,20.120579361935725,-0.06507733119478942
1403638139895097088,50.105334,225.247802003832,8.891362666666666,-0.122583125,-3.92266,-0.0034906585039886,0.0230383461263251,0.0837758040957278,0.20111772084634144,20.24665727514918,0.12607791321345374
1403638139945096960,59.556961,225.2368961544026,9.038462416666666,0.0572054583333333,-3.9880376666666666,-0.0013962634015954,0.0188495559215387,0.0788888821901436,0.0632315085471899,20.25233853090752,0.005681255758339887
1403638139995097088,59.477806,224.86988803715977,8.97308475,0.04903325,-3.906315583333333,-0.007679448708775,0.0160570291183478,0.0788888821901436,0.0854095354987036,20.201876073243934,-0.050462457663584814
1403638140045096960,32.391787,224.7402554176845,8.97308475,0.04903325,-3.906315583333333,-0.007679448708775,0.0160570291183478,0.0788888821901436,0.13951193497174688,20.232161786599022,0.030285713355088006
1403638140095097088,48.907756,225.1866879804956,8.981256958333333,-0.024516625,-3.947176625,-0.0069813170079773,0.0209439510239319,0.0767944870877505,0.0732109910755733,20.179454529601344,-0.05270725699767809
1403638140145096960,49.693346,224.8125861763234,8.907707083333333,0.1062387083333333,-3.979865458333333,-0.0013962634015954,0.0209439510239319,0.0795870138909414,0.11400508318566657,20.217581566101963,0.03812703650061877
1403638140195097088,50.180912,225.16340276401644,8.842329416666665,0.04903325,-3.8899711666666654,-0.0006981317007977,0.0209439510239319,0.0788888821901436,0.07609715076529233,20.254630147264457,0.03704858116249454
1403638140245096960,49.533368,225.23219139008177,8.891362666666666,0.0408610416666666,-3.979865458333333,-0.0034906585039886,0.0223402144255274,0.0788888821901436,0.1159061963535667,20.344841590384835,0.09021144312037777
1403638140295097088,50.065279,225.1627094179116,8.9240515,0.0817220833333333,-3.9880376666666666,-0.0041887902047863,0.0244346095279206,0.0733038285837618,0.14595058909877037,20.38808997516284,0.04324838477800341
1403638140345096960,50.402879,224.9539901592253,9.013945791666666,0.024516625,-3.8899711666666654,-0.0034906585039886,0.0202458193231342,0.0802851455917391,0.07955489241727688,20.46258433842512,0.07449436326228209
1403638140395097088,50.050497,225.66884632972304,8.948568125,0.0898942916666666,-3.9880376666666666,-0.0055850536063818,0.0146607657167523,0.075398223686155,0.07510071545018147,20.532320990958254,0.06973665253313399
1403638140445096960,49.476862,224.85329845773276,8.940395916666665,0.0,-3.930832208333333,-0.0041887902047863,0.0230383461263251,0.0747000919853573,0.11324033618267007,20.575642466528326,0.043321475570071044
1403638140495097088,59.96418,225.5737064163363,8.981256958333333,0.0980665,-3.947176625,0.0,0.0244346095279206,0.0740019602845595,0.12754446596344782,20.65868051115506,0.08303804462673625
1403638140545096960,50.023079,225.20522270101705,9.005773583333333,0.1307553333333333,-4.020726499999999,-0.0055850536063818,0.0202458193231342,0.0795870138909414,0.10510964468168257,20.690342360285708,0.0316618491306464
1403638140595097088,50.185442,224.7858011169572,9.062979041666669,0.0980665,-3.9880376666666666,0.0,0.0209439510239319,0.0809832772925368,0.07123190910925042,20.73400611244103,0.04366375215532159
1403638140645096960,49.897909,225.2509187898511,8.915879291666666,0.0653776666666666,-3.92266,-0.0006981317007977,0.0195476876223364,0.0795870138909414,0.1108240414413099,20.77229267150448,0.03828655906345091
1403638140695097088,40.37261,225.15342397444692,8.915879291666666,0.0653776666666666,-3.92266,-0.0006981317007977,0.0195476876223364,0.0795870138909414,0.17308168764076362,20.76307692209422,-0.009215749410259377
1403638140745096960,59.942723,224.75301496632477,8.77695175,0.0572054583333333,-3.930832208333333,-0.0020943951023931,0.0195476876223364,0.0760963553869527,0.0482503277398072,20.78493321527619,0.021856293181969022
1403638140795097088,39.607763,225.39353380025085,8.77695175,0.0572054583333333,-3.930832208333333,-0.0020943951023931,0.0195476876223364,0.0760963553869527,0.08570074678853541,20.81678225034515,0.03184903506895864
1403638140845096960,50.32897,224.9651196137327,9.022118,0.04903325,-4.004382083333333,-0.0027925268031909,0.0237364778271228,0.0774926187885482,0.1246851134760906,20.83356583563425,0.016783585289100955
1403638140895097088,59.710503,225.2105412643384,8.981256958333333,0.0735498749999999,-3.996209875,-0.0020943951023931,0.0174532925199432,0.0747000919853573,0.03661933228428003,20.868445781510523,0.03487994587627341
1403638140945096960,39.96253,225.61659350515163,8.981256958333333,0.0735498749999999,-3.996209875,-0.0020943951023931,0.0174532925199432,0.0747000919853573,0.05110379933862931,20.904939367319923,0.03649358580939932
1403638140995097088,50.557852,225.26040360444927,8.9240515,0.0408610416666666,-3.963521041666666,-0.0062831853071795,0.0153588974175501,0.0767944870877505,0.1288876883020098,20.965000193198794,0.06006082587887107
1403638141045096960,49.876451,224.67632702421207,8.932223708333334,0.0735498749999999,-3.963521041666666,-0.0062831853071795,0.0237364778271228,0.0733038285837618,0.11699773574407378,21.043811648698842,0.07881145550004831
1403638141095097088,50.552607,224.99413122611247,8.907707083333333,0.04903325,-3.92266,0.0013962634015954,0.0195476876223364,0.0809832772925368,0.14201547242731644,21.153624352824092,0.10981270412525035
1403638141145096960,50.05908,225.23528334403144,8.834157208333334,0.0735498749999999,-3.92266,-0.0013962634015954,0.0244346095279206,0.075398223686155,0.23781892360638207,21.146245677252075,-0.0073786755720171016
1403638141195097088,49.876451,225.5980294741014,8.956740333333332,0.0898942916666666,-3.979865458333333,-0.0020943951023931,0.0146607657167523,0.0788888821901436,0.05375477061806945,21.18310245848188,0.036856781229804625
1403638141245096960,49.701214,225.31013912533453,9.038462416666666,0.0653776666666666,-3.996209875,-0.0013962634015954,0.0237364778271228,0.0726056968829641,0.06150934403109221,21.190825645979956,0.007723187498076101
1403638141295097088,59.674263,225.1883181483093,8.932223708333334,0.122583125,-3.97169325,-0.0020943951023931,0.0216420827247296,0.0802851455917391,0.06267926871737509,21.24091852435683,0.05009287837687282
1403638141345096960,40.291786,225.3950596367908,8.932223708333334,0.122583125,-3.97169325,-0.0020943951023931,0.0216420827247296,0.0802851455917391,0.1318014770339271,21.28436453288811,0.04344600853128
1403638141395097088,59.646607,224.95769366481025,8.948568125,0.0817220833333333,-4.020726499999999,-0.0034906585039886,0.0223402144255274,0.0774926187885482,0.11260801594760031,21.387570963432243,0.10320643054413381
1403638141445096960,50.454855,224.99859880521737,8.956740333333332,0.04903325,-3.97169325,-0.0020943951023931,0.0188495559215387,0.0747000919853573,0.07797247895127364,21.45067420574036,0.06310324230811659
1403638141495097088,39.783477,225.40749667368223,8.956740333333332,0.04903325,-3.97169325,-0.0020943951023931,0.0188495559215387,0.0747000919853573,0.0719679219924876,21.46951429400314,0.018840088262781052
1403638141545096960,60.426712,225.1423380361857,8.981256958333333,0.0653776666666666,-3.9880376666666666,-0.0041887902047863,0.0139626340159546,0.0760963553869527,0.05211280958910838,21.514264348966105,0.04475005496296447
1403638141595097088,39.693833,225.17491070335748,8.981256958333333,0.0653776666666666,-3.9880376666666666,-0.0041887902047863,0.0139626340159546,0.0760963553869527,0.04387258051026836,21.542148064121008,0.0278837151549034
1403638141645096960,60.203075,225.29474914188503,8.948568125,0.0,-3.9390044166666662,-0.0034906585039886,0.018151424220741,0.0774926187885482,0.11180495112568874,21.642122625259766,0.09997456113875813
1403638141695097088,39.842844,225.1700672197819,8.948568125,0.0,-3.9390044166666662,-0.0034906585039886,0.018151424220741,0.0774926187885482,0.1270834963910081,21.64008805595748,-0.002034569302285405
1403638141745096960,59.454203,225.35814254389268,8.932223708333334,0.1307553333333333,-3.947176625,-0.0034906585039886,0.0237364778271228,0.0767944870877505,0.0991753694131749,21.726511670876686,0.08642361491920525
1403638141795097088,50.385237,224.31690793128516,8.948568125,0.0735498749999999,-3.947176625,-0.0034906585039886,0.0209439510239319,0.0802851455917391,0.016104652623528396,21.72155705245467,-0.0049546184220155
1403638141845096960,39.105653,225.071195046071,8.948568125,0.0735498749999999,-3.947176625,-0.0034906585039886,0.0209439510239319,0.0802851455917391,0.02834266050451729,21.74954614235906,0.027989089904387754
1403638141895097088,59.965134,224.6373511254268,8.981256958333333,0.0817220833333333,-3.947176625,0.0,0.0195476876223364,0.0802851455917391,0.06502171233288895,21.734797568360452,-0.014748573998605963
1403638141945096960,40.587187,222.45706259123503,8.981256958333333,0.0817220833333333,-3.947176625,0.0,0.0195476876223364,0.0802851455917391,0.22047518780514605,21.92982972748283,0.19503215912237692
1403638141995097088,50.097942,219.52672365656687,9.1201845,1.32389775,-4.4211647083333325,-0.0712094334813686,0.0041887902047863,0.0970403064108847,0.1875356613941279,22.0346917962075,0.10486206872467108
1403638142045096960,49.878598,221.3313086099597,8.736090708333332,0.3350605416666666,-3.857282333333333,-0.0691150383789754,0.0125663706143591,0.0921533845053006,0.21145304623290898,22.17570436806976,0.1410125718622588
1403638142095097088,50.101757,222.97870854096985,8.580818749999999,0.416782625,-3.898143375,-0.0565486677646162,0.0132645023151569,0.0928515162060983,0.1967842646549417,22.337019952972295,0.1613155849025354
1403638142145096960,49.793958,224.95955259046917,8.87501825,0.171616375,-3.881798958333333,-0.046774823953448,0.0265290046303138,0.1054178868204575,0.39625541402047504,22.6899366946398,0.35291674166750653
1403638142195097088,50.217867,218.37081152507693,8.850501625,-1.4219642499999998,-3.726527,0.0390953752446729,0.0209439510239319,0.0474729556542457,0.13258242069201953,22.701621931436105,0.0116852367963034
1403638142245096960,71.389914,209.96946421758167,8.401030166666667,1.9449855833333327,-4.020726499999999,0.2073451151369263,0.0432841654494593,0.0153588974175501,0.33072370693260095,22.508430319672705,-0.1931916117633996
1403638142295097088,39.816856,219.88307694441608,9.030290208333332,3.219850083333333,-4.355787041666666,0.0300196631343024,0.0321140582366956,0.075398223686155,0.4699881365706733,22.13552586748869,-0.3729044521840166
1403638142345096960,38.718462,221.9819744362501,9.030290208333332,3.219850083333333,-4.355787041666666,0.0300196631343024,0.0321140582366956,0.075398223686155,0.17072946657611693,22.22887657493835,0.09335070744966245
1403638142395097088,50.000429,201.7607753583775,7.967903124999999,3.4404997083333333,-4.126965208333333,0.0607374579694026,-0.0027925268031909,0.0844739357965255,0.10026665740502985,22.160503567888384,-0.06837300704996707
1403638142445096960,59.863806,213.47292453206165,8.613507583333332,2.083913125,-3.930832208333333,-0.0342084533390888,0.0607374579694026,0.1103048087260416,0.474772848100084,22.532829181356263,0.3723256134678792
1403638142495097088,40.414333,213.43867947687176,8.613507583333332,2.083913125,-3.930832208333333,-0.0342084533390888,0.0607374579694026,0.1103048087260416,0.4431959602481915,22.85280503294436,0.31997585158809727
1403638142545096960,59.349776,215.2055912859661,8.253930416666666,0.9970094166666666,-3.97169325,-0.1172861257340189,0.0223402144255274,0.1151917306316257,0.3599631923169863,23.166646220567547,0.31384118762318636
1403638142595097088,40.5972,219.67428440842116,8.253930416666666,0.9970094166666666,-3.97169325,-0.1172861257340189,0.0223402144255274,0.1151917306316257,0.5648977691246669,23.624148561055893,0.4575023404883467
1403638142645096960,59.736013,222.22051240831888,8.564474333333333,0.0163444166666666,-4.028898708333333,-0.0844739357965255,-0.0069813170079773,0.0977384381116824,0.2691233242510446,23.848451889267942,0.22430332821204857
1403638142695097088,40.041924,223.24824574992564,8.564474333333333,0.0163444166666666,-4.028898708333333,-0.0844739357965255,-0.0069813170079773,0.0977384381116824,0.34184624106598754,24.105046198892953,0.2565943096250116
1403638142745096960,59.571505,224.236352327108,9.741272333333333,-0.7191543333333333,-4.094276375,0.0048869219055841,0.0349065850398865,0.0656243798749867,0.26801157652448454,24.1498990493387,0.044852850445746384
1403638142795097088,40.80677,225.03824956734752,9.741272333333333,-0.7191543333333333,-4.094276375,0.0048869219055841,0.0349065850398865,0.0656243798749867,0.4234683351856456,23.813740901990776,-0.3361581473479234
1403638142845096960,49.854278,225.6284340185616,8.564474333333333,0.8580818749999999,-3.8082490833333327,0.007679448708775,0.0349065850398865,0.0788888821901436,0.2747981305425795,23.587005185385454,-0.22673571660532232
1403638142895097088,49.95966,225.46963194906635,8.433719,0.4903325,-3.702010375,-0.0069813170079773,-0.0083775804095727,0.0774926187885482,0.15577764219817902,23.462105051611168,-0.1249001337742861
1403638142945096960,49.762726,220.9406291868993,8.490924458333334,1.046042666666667,-3.8164212916666655,0.0,-0.0020943951023931,0.0949459113084915,0.1835796954712458,23.594139564305156,0.1320345126939877
1403638142995097088,50.320625,207.73107607080365,8.311135875,1.184970208333333,-3.652977125,-0.0760963553869527,0.0104719755119659,0.0747000919853573,0.21538150898686723,23.62669818063469,0.03255861632953483
1403638143045096960,49.761772,215.50523301171728,8.539957708333333,-0.4739880833333333,-3.587599458333333,-0.1361356816555577,-0.0293215314335047,0.1117010721276371,0.2659660381377926,23.7329304712532,0.10623229061851092
1403638143095097088,50.143481,213.63876618504608,8.539957708333333,-0.4903325,-3.8164212916666655,-0.1110029404268393,0.0397935069454707,0.1228711793404008,0.18349408408042922,23.64652811921807,-0.08640235203513313
1403638143145096960,49.628257,219.6545450017448,9.635033625,-1.1359369583333332,-4.045243125,-0.1256637061435917,0.0,0.1151917306316257,0.12979360757758682,23.749186679865957,0.10265856064788892
1403638143195097088,50.330162,222.72815578592903,9.700411291666663,-0.4004382083333333,-4.519231208333333,-0.0963421747100869,-0.025830872929516,0.1172861257340189,0.13973472468880005,23.720927907138666,-0.02825877272729116
1403638143245096960,49.662114,223.2339793332831,8.564474333333333,-0.3023717083333333,-3.849110125,-0.0726056968829641,-0.0188495559215387,0.1005309649148733,0.22545259671393317,23.63513453516319,-0.08579337197547687
1403638143295097088,59.808254,224.98820408535735,8.711574083333332,0.392266,-3.8654545416666655,-0.0132645023151569,0.0104719755119659,0.1005309649148733,0.16324368504361497,23.58878944532032,-0.04634508984286967
1403638143345096960,50.192118,223.7736666009129,8.964912541666667,-0.1307553333333333,-3.92266,-0.0376991118430775,-0.0069813170079773,0.0809832772925368,0.10082780968853522,23.618134878558177,0.02934543323785732
1403638143395097088,40.360927,225.2169360600158,8.964912541666667,-0.1307553333333333,-3.92266,-0.0376991118430775,-0.0069813170079773,0.0809832772925368,0.27270477468063686,23.749995056790254,0.13186017823207763
1403638143445096960,49.638271,224.79902930136956,9.144701125,-0.4249548333333333,-4.16782625,-0.0223402144255274,0.0174532925199432,0.0767944870877505,0.08322276061895884,23.818369096121916,0.06837403933166186
1403638143495097088,59.720994,224.7576890444847,9.07115125,-0.4494714583333333,-4.045243125,0.007679448708775,0.0314159265358979,0.0670206432765822,0.15468984888743398,23.889810097930155,0.07144100180823898
1403638143545096960,40.495872,223.8488372954624,9.07115125,-0.4494714583333333,-4.045243125,0.007679448708775,0.0314159265358979,0.0670206432765822,0.10528397513973814,23.968420113687667,0.07861001575751203
1403638143595097088,59.844732,222.74517724994973,9.054806833333332,0.5475379583333333,-3.97169325,0.0251327412287183,0.0083775804095727,0.0747000919853573,0.16629442505473924,23.997661131646712,0.02924101795904477
1403638143645096960,49.694062,224.5647148126261,8.850501625,-0.0408610416666666,-3.996209875,0.0118682389135614,0.0069813170079773,0.0607374579694026,0.16196225901633834,24.057460840669098,0.05979970902238563
1403638143695097088,49.834966,224.7319268497582,8.834157208333334,0.1470997499999999,-3.996209875,0.0132645023151569,0.0279252680319092,0.0865683308989187,0.13583350094472535,24.070753455803967,0.013292615134869123
1403638143745096960,40.392399,225.0915971503837,8.834157208333334,0.1470997499999999,-3.996209875,0.0132645023151569,0.0279252680319092,0.0865683308989187,0.11367304088142677,24.18077747121408,0.11002401541011153
1403638143795097088,49.73197,225.9931900568193,9.259112041666668,0.2941994999999999,-4.208687291666666,0.0139626340159546,0.0202458193231342,0.0740019602845595,0.08138616333635172,24.23690684624487,0.05612937503079252
1403638143845096960,50.360203,225.7916085490698,8.932223708333334,0.0163444166666666,-3.930832208333333,-0.0055850536063818,0.0160570291183478,0.0726056968829641,0.1308593770072115,24.321831363036548,0.08492451679167701
1403638143895097088,59.694528,224.85985511372616,9.079323458333333,0.0735498749999999,-4.0615875416666665,-0.0006981317007977,0.0188495559215387,0.064926248174189,0.11801462073495915,24.431394814022408,0.10956345098585984
1403638143945096960,40.349484,224.91352220713247,9.079323458333333,0.0735498749999999,-4.0615875416666665,-0.0006981317007977,0.0188495559215387,0.064926248174189,0.06435445973520397,24.402127981269015,-0.029266832753393146
1403638143995097088,59.550762,225.6309050525124,9.144701125,0.196133,-4.086104166666667,0.0006981317007977,0.0146607657167523,0.0656243798749867,0.10345548649196074,24.496373091072673,0.09424510980365852
1403638144045096960,40.170431,225.2871191474328,9.144701125,0.196133,-4.086104166666667,0.0006981317007977,0.0146607657167523,0.0656243798749867,0.07397740800221479,24.509295416312888,0.01292232524021486
1403638144095097088,49.934626,224.63010220650972,8.891362666666666,-0.1797885833333333,-3.930832208333333,0.0041887902047863,0.0139626340159546,0.0823795406941323,0.05125038660451789,24.5311947223378,0.0218993060249133
1403638144145096960,50.290346,224.6972370373928,8.97308475,0.04903325,-3.930832208333333,0.0104719755119659,0.028623399732707,0.075398223686155,0.05711280596429498,24.500690919988614,-0.03050380234918748
1403638144195097088,60.918331,225.16951392179192,9.022118,0.318716125,-3.881798958333333,-0.0069813170079773,0.0195476876223364,0.0788888821901436,0.05321357091117926,24.552810655083203,0.052119735094589004
1403638144245096960,38.954735,225.4634741546108,9.022118,0.318716125,-3.881798958333333,-0.0069813170079773,0.0195476876223364,0.0788888821901436,0.06846422165018197,24.59896160361227,0.04615094852906765
1403638144295097088,63.569784,225.63835238111588,8.588990958333333,-0.0081722083333333,-3.7673880416666665,-0.0174532925199432,0.0300196631343024,0.0774926187885482,0.07230449443373241,24.622483177769595,0.02352157415732492
1403638144345096960,48.676014,224.8832682280538,8.997601374999999,-0.1062387083333333,-3.955348833333333,-0.0153588974175501,0.0139626340159546,0.0788888821901436,0.04598809869274172,24.662356739251408,0.0398735614818122
1403638144395097088,38.516045,225.2441327201091,8.997601374999999,-0.1062387083333333,-3.955348833333333,-0.0153588974175501,0.0139626340159546,0.0788888821901436,0.07007210881540274,24.62258012430054,-0.03977661495086693
1403638144445096960,50.279855,225.61481560363976,8.7279185,-0.196133,-3.702010375,-0.0006981317007977,0.0230383461263251,0.075398223686155,0.09309371673216699,24.712968329801445,0.0903882055009042
1403638144495097088,49.551964,224.60897916320368,9.218251,0.1389275416666666,-4.094276375,0.0153588974175501,0.0195476876223364,0.0719075651821663,0.04736391734703963,24.710123621274025,-0.0028447085274194706
1403638144545096960,71.928263,224.46053465580383,8.932223708333334,0.3023717083333333,-4.0125542916666666,-0.0020943951023931,0.0202458193231342,0.075398223686155,0.05037813297830932,24.75547346513655,0.04534984386252461
1403638144595097088,40.486097,225.24075056495207,8.858673833333333,-0.0163444166666666,-3.996209875,-0.0069813170079773,0.0160570291183478,0.08307767239493,0.034096321610398994,24.743598065613668,-0.01187539952288219
1403638144645096960,48.311949,224.5548637172472,8.744262916666667,-0.122583125,-3.8245935,-0.0111701072127637,0.0223402144255274,0.0893608577021096,0.17496257383767277,24.768508536879636,0.02491047126596868
1403638144695097088,39.305687,224.7548852233212,8.744262916666667,-0.122583125,-3.8245935,-0.0111701072127637,0.0223402144255274,0.0893608577021096,0.15475858090215322,24.885620938893176,0.11711240201353945
1403638144745096960,60.646295,223.34914102765677,8.907707083333333,-0.122583125,-3.8245935,0.0006981317007977,0.0251327412287183,0.1061160185212552,0.27265158224714275,24.893537512281828,0.007916573388651926
1403638144795097088,39.563656,224.05715479170613,8.907707083333333,-0.122583125,-3.8245935,0.0006981317007977,0.0251327412287183,0.1061160185212552,0.1549698629796646,25.022859024453897,0.12932151217206922
1403638144845096960,59.889794,224.7392534003837,9.087495666666666,-0.24516625,-4.037070916666667,0.0083775804095727,0.0209439510239319,0.0963421747100869,0.07487528656430406,24.983591440701357,-0.03926758375254025
1403638144895097088,40.032625,224.4487224374432,9.087495666666666,-0.24516625,-4.037070916666667,0.0083775804095727,0.0209439510239319,0.0963421747100869,0.07432608820583667,25.035686375485668,0.05209493478431071
1403638144945096960,49.732685,224.5831030808773,9.177389958333332,0.2615106666666666,-4.126965208333333,0.0139626340159546,0.0328121899374933,0.0900589894029074,0.07744390634501756,24.970849411317104,-0.06483696416856333
1403638144995097088,60.629606,225.82386091728205,9.177389958333332,-0.0980665,-4.053415333333333,0.0041887902047863,0.0418879020478639,0.0928515162060983,0.10085862916105355,24.957312377097633,-0.013537034219471167
1403638145045096960,39.207936,223.716234857895,9.177389958333332,-0.0980665,-4.053415333333333,0.0041887902047863,0.0418879020478639,0.0928515162060983,0.11615020602709959,24.957119733363367,-0.00019264373426608472
1403638145095097088,50.404548,223.82170588370397,9.128356708333332,-0.2043052083333333,-4.135137416666667,-0.0069813170079773,-0.0034906585039886,0.054454272662223,0.04111666054188505,24.957958172150597,0.0008384387872304444
1403638145145096960,60.100079,224.7233589121631,8.87501825,0.0653776666666666,-3.947176625,0.0,0.0132645023151569,0.0740019602845595,0.03846091105317416,24.96309684976096,0.005138677610361242
1403638145195097088,39.811611,225.4294097757557,8.87501825,0.0653776666666666,-3.947176625,0.0,0.0132645023151569,0.0740019602845595,0.08158961253059538,24.99436693323766,0.031270083476702126
1403638145245096960,49.496651,223.67539775678972,9.1201845,-0.1470997499999999,-4.143309625,0.0097738438111682,0.0265290046303138,0.1054178868204575,0.06822750197178913,25.010316680278393,0.015949747040732376
1403638145295097088,59.490442,224.83269453903037,8.97308475,-0.0898942916666666,-4.0125542916666666,-0.0062831853071795,0.0202458193231342,0.0642281164733913,0.03327475843554085,25.02895919460674,0.018642514328345072
1403638145345096960,49.66712,224.09163104934805,9.161045541666669,0.0735498749999999,-4.086104166666667,0.0104719755119659,0.0251327412287183,0.0879645943005142,0.08352210802336113,25.019337802729414,-0.00962139187732447
1403638145395097088,41.099548,224.2931470936689,9.161045541666669,0.0735498749999999,-4.086104166666667,0.0104719755119659,0.0251327412287183,0.0879645943005142,0.11995748227831567,24.95597969579588,-0.06335810693353494
1403638145445096960,59.53908,224.1395868305824,8.817812791666666,0.7191543333333333,-4.135137416666667,-0.0160570291183478,0.0,0.0942477796076938,0.18515477490792215,24.851251714398074,-0.10472798139780437
1403638145495097088,50.019264,224.34633418503637,9.022118,0.4576436666666666,-4.069759749999999,-0.0216420827247296,0.0397935069454707,0.0593411945678072,0.13109498034543648,24.960317233679056,0.10906551928098196
1403638145545096960,40.206194,223.35919254346535,9.022118,0.4576436666666666,-4.069759749999999,-0.0216420827247296,0.0397935069454707,0.0593411945678072,0.2920562376654827,24.849619333001886,-0.11069790067717022
1403638145595097088,49.796343,223.7270457432708,8.67888525,0.3268883333333333,-3.955348833333333,-0.0027925268031909,0.0146607657167523,0.08307767239493,0.11980261126046524,24.893259869215225,0.04364053621333852
1403638145645096960,50.216675,225.02166106527653,8.38468575,0.6292600416666666,-3.685665958333333,-0.007679448708775,0.0055850536063818,0.1082104136236484,0.14698896051342464,25.0064421686672,0.11318229945197444
1403638145695097088,49.984693,224.62862925860887,9.414383999999998,0.3268883333333333,-4.36395925,-0.0223402144255274,0.0404916386462684,0.0949459113084915,0.12965642618431733,25.014013136065,0.007570967397800388
1403638145745096960,60.001612,224.86374214416813,9.112012291666666,-0.4086104166666666,-3.742871416666666,-0.0111701072127637,0.0586430628670094,0.0684169066781777,0.15725015828847885,25.141100028188223,0.12708689212322355
1403638145795097088,40.173769,224.89277281072376,8.5317855,0.6864655000000001,-3.693838166666666,-0.0195476876223364,-0.0055850536063818,0.0600393262686049,0.18272551985495455,25.133154289478064,-0.007945738710159134
1403638145845096960,49.734116,224.7787630336585,9.357178541666666,-0.1307553333333333,-4.225031708333333,-0.0160570291183478,0.0509636141582344,0.0558505360638185,0.13326286639652873,25.234769873187414,0.10161558370934998
1403638145895097088,49.895048,224.90881452920476,9.496106083333332,-0.0980665,-4.404820291666666,0.0020943951023931,0.0146607657167523,0.0558505360638185,0.08247841803763475,25.228824248725534,-0.005945624461880072
1403638145945096960,49.410104,224.16027326133425,8.262102624999999,0.269682875,-3.4977051666666665,0.0041887902047863,0.0062831853071795,0.0809832772925368,0.11289213951482055,25.299124749256976,0.07030050053144166
1403638145995097088,50.451041,224.40595255692725,9.324489708333331,0.1389275416666666,-4.355787041666666,-0.0097738438111682,0.0244346095279206,0.0837758040957278,0.05116060957727822,25.342105133752842,0.042980384495866275
1403638146045096960,49.512386,223.95057771504568,9.136528916666666,0.1634441666666666,-4.2822371666666665,-0.0020943951023931,0.0272271363311115,0.0984365698124801,0.08804287516341963,25.421929911726636,0.07982477797379417
1403638146095097088,50.613165,224.29052943086776,8.687057458333333,0.44129925,-3.996209875,-0.0188495559215387,0.0125663706143591,0.0949459113084915,0.1620650562171922,25.450092599410436,0.028162687683799703
1403638146145096960,49.846172,224.32804895296903,9.07115125,-0.3023717083333333,-4.16782625,-0.0139626340159546,0.0132645023151569,0.0816814089933346,0.026444344391201545,25.433414069161884,-0.016678530248551482
1403638146195097088,50.367832,224.79100112462976,9.504278291666663,-0.367749375,-3.702010375,-0.0083775804095727,0.0041887902047863,0.0788888821901436,0.055819795344625854,25.393213788292897,-0.04020028086898719
1403638146245096960,50.006628,224.80773654998185,8.834157208333334,0.392266,-3.759215833333333,0.0020943951023931,0.0139626340159546,0.1047197551196597,0.1044116803596153,25.46799290133082,0.0747791130379234
1403638146295097088,49.927235,225.33782552006585,8.204897166666667,0.465815875,-3.751043625,0.0062831853071795,0.0565486677646162,0.0788888821901436,0.26947432678493927,25.54736921816338,0.0793763168325583
1403638146345096960,49.851418,224.20349556760152,8.981256958333333,0.0817220833333333,-4.584608875,-0.0097738438111682,0.0335103216382911,0.0502654824574366,0.07838476919063025,25.568251360872257,0.020882142708877893
1403638146395097088,50.314903,221.22872373385317,9.144701125,-0.0980665,-4.511059,-0.0097738438111682,0.0397935069454707,0.0586430628670094,0.08008187604931853,25.5409978385669,-0.027253522305358047
1403638146445096960,59.779167,219.9516570481496,9.504278291666663,0.3023717083333333,-3.587599458333333,0.0083775804095727,-0.0432841654494593,0.0837758040957278,0.17109716122271162,25.657854334303646,0.11685649573674795
1403638146495097088,39.917946,220.6620503236859,9.504278291666663,0.3023717083333333,-3.587599458333333,0.0083775804095727,-0.0432841654494593,0.0837758040957278,0.34210788587546825,25.727027676122766,0.06917334181911983
1403638146545096960,49.894333,219.0092394147568,10.452254458333334,-0.2860272916666666,-4.388475875,0.0097738438111682,0.0621337213709981,0.0928515162060983,0.23239615762258634,25.822563734307728,0.0955360581849618
1403638146595097088,60.423612,223.5984684060589,8.768779541666666,0.7191543333333333,-4.347614833333333,0.0034906585039886,-0.0481710873550434,0.0719075651821663,0.09348442911157877,25.915737558623732,0.09317382431600407
1403638146645096960,40.003062,218.39239892422637,8.768779541666666,0.7191543333333333,-4.347614833333333,0.0034906585039886,-0.0481710873550434,0.0719075651821663,0.42657288771341906,25.957922432426322,0.04218487380259006
1403638146695097088,59.987545,216.50022446394797,9.013945791666666,0.44129925,-3.5222217916666665,-0.0006981317007977,-0.1089085453244461,0.0691150383789754,0.3283338371570199,25.9749529102689,0.01703047784257805
1403638146745096960,40.172815,208.2131450576978,9.013945791666666,0.44129925,-3.5222217916666665,-0.0006981317007977,-0.1089085453244461,0.0691150383789754,0.3868637026621946,26.01141479027301,0.036461880004111435
1403638146795097088,50.013065,215.658472131833,9.095667875,-0.392266,-3.661149333333333,-0.0153588974175501,0.1619665545850737,0.0670206432765822,0.6166105752228709,26.088811764993025,0.07739697472001339
1403638146845096960,54.461003,216.41510778868164,8.9240515,0.661948875,-4.323098208333334,-0.0013962634015954,-0.08307767239493,0.1047197551196597,0.5505294208866968,26.09875699564073,0.009945230647705472
1403638146895097088,57.383299,222.23933930764235,10.632043041666666,-0.809048625,-4.543747833333333,-0.0139626340159546,0.0383972435438752,0.0837758040957278,0.17677352718794498,26.126364222189657,0.02760722654892689
1403638146945096960,37.725687,219.01578779080225,10.632043041666666,-0.809048625,-4.543747833333333,-0.0139626340159546,0.0383972435438752,0.0837758040957278,0.2613264923319636,26.191597181399,0.06523295920934302
1403638146995097088,60.260534,220.73478341314384,8.499096666666667,0.3595771666666666,-3.28522775,0.0321140582366956,0.0383972435438752,0.0656243798749867,0.35605769324099046,26.3157697923616,0.12417261096259935
1403638147045096960,40.00926,219.9674046869692,8.499096666666667,0.3595771666666666,-3.28522775,0.0321140582366956,0.0383972435438752,0.0656243798749867,0.2992504685888757,26.58680951679888,0.27103972443727997
1403638147095097088,60.075283,220.6011933334809,9.5124505,0.0326888333333333,-4.519231208333333,-0.0013962634015954,-0.0537561409614253,0.0900589894029074,0.7140767792184535,27.065016288926792,0.47820677212791196
1403638147145096960,40.034771,219.1919319333579,9.5124505,0.0326888333333333,-4.519231208333333,-0.0013962634015954,-0.0537561409614253,0.0900589894029074,0.7819328522795458,27.797900798446523,0.7328845095197316
1403638147195097088,49.962282,220.66278248004213,7.84532,0.8008764166666666,-4.257720541666666,0.0209439510239319,0.0621337213709981,0.0600393262686049,0.16742429296883038,27.935304483901003,0.13740368545447978
1403638147245096960,49.640179,219.28398983435545,9.773961166666666,0.3759215833333333,-4.020726499999999,0.0125663706143591,0.046774823953448,0.0907571211037051,0.39048784862854574,28.292900505758723,0.3575960218577201
1403638147295097088,49.879789,214.9792576136776,7.878008833333333,0.4821602916666666,-3.5957716666666664,0.0069813170079773,-0.0530580092606276,0.0970403064108847,0.33949027115097463,28.48802575666544,0.19512525090671673
1403638147345096960,49.981118,219.90550464127983,6.946377083333333,0.4086104166666666,-2.8602729166666667,-0.0174532925199432,0.1137954672300302,0.0579449311662117,0.30522747078646706,28.480282860507465,-0.0077428961579748545
1403638147395097088,50.377845,218.9740331196741,9.56148375,0.220649625,-4.453853541666667,0.0160570291183478,0.0314159265358979,0.08307767239493,0.12480468461267835,28.503269876861147,0.02298701635368161
1403638147445096960,59.611082,215.7170844319032,6.603144333333333,0.4903325,-2.0920853333333334,0.0272271363311115,0.0921533845053006,0.0879645943005142,0.6483627734286531,28.29754155635531,-0.20572832050583756
1403638147495097088,40.355206,220.4631480956405,6.603144333333333,0.4903325,-2.0920853333333334,0.0272271363311115,0.0921533845053006,0.0879645943005142,0.8310461813811626,28.03737873881983,-0.26016281753548043
1403638147545096960,60.30798,214.02940716489192,6.03108975,0.0817220833333333,-2.329079375,-0.0013962634015954,-0.0446804288510548,0.1151917306316257,1.1506745073042526,27.783460589135505,-0.25391814968432413
1403638147595097088,39.314031,219.9771365969605,6.03108975,0.0817220833333333,-2.329079375,-0.0013962634015954,-0.0446804288510548,0.1151917306316257,0.8408535590698245,28.071144858903747,0.287684269768242
1403638147645096960,60.325146,220.43337459899803,7.591981541666666,0.416782625,-3.636632708333333,0.0293215314335047,0.0635299847725936,0.046774823953448,0.4575399975329768,27.800211539041758,-0.27093331986198876
1403638147695097088,40.114641,215.2832905121333,7.591981541666666,0.416782625,-3.636632708333333,0.0293215314335047,0.0635299847725936,0.046774823953448,1.3716198598353952,28.529823771154366,0.7296122321126077
1403638147745096960,49.753428,179.38924167043422,8.123175083333333,0.7191543333333333,-3.113611375,0.0153588974175501,0.1103048087260416,0.0425860337486616,2.8619787630618676,29.24544370324921,0.715619932094846
1403638147795097088,63.192606,132.94690548138252,8.77695175,-0.465815875,-2.6641399166666666,-0.1012290966156711,0.1933824811209717,0.0425860337486616,1.5755465046182278,30.20910735633114,0.9636636530819267
1403638147845096960,37.662267,113.43768000013132,8.77695175,-0.465815875,-2.6641399166666666,-0.1012290966156711,0.1933824811209717,0.0425860337486616,0.5822188783599216,30.742263572278727,0.5331562159475887
1403638147895097088,50.242186,104.17379851126778,8.932223708333334,-0.661948875,-3.08909475,-0.0837758040957278,0.3197443189653611,0.0851720674973232,1.0402885412503278,30.11393014074762,-0.6283334315311073
1403638147945096960,49.66402,121.0684934731771,10.967103583333332,-0.907115125,-4.584608875,-0.0642281164733913,0.2268928027592628,0.1270599695451872,2.8615639561588773,30.62286370251516,0.5089335617675417
1403638147995097088,59.9854,129.9223934758539,7.314126458333333,0.4985047083333333,-2.353596,-0.0893608577021096,0.2555162024919699,-0.0202458193231342,4.93226552715655,33.17375049082612,2.5508867883109616
1403638148045096960,39.628744,124.42184596965684,7.314126458333333,0.4985047083333333,-2.353596,-0.0893608577021096,0.2555162024919699,-0.0202458193231342,3.90847069874311,35.68707365077708,2.513323159950957
1403638148095097088,50.221681,140.71914516795312,11.71894675,-0.1470997499999999,-4.2168595,0.0390953752446729,0.1200786525372098,0.1333431548523667,1.4885052974648831,36.52795311164251,0.8408794608654304
1403638148145096960,59.634686,169.51694640679648,10.068160666666666,0.0326888333333333,-3.693838166666666,0.0237364778271228,0.0747000919853573,0.0125663706143591,3.0808828840427287,37.18419800517972,0.656244893537206
1403638148195097088,51.374197,220.1807112935905,12.748645,-0.0653776666666666,-3.6448049166666654,0.0621337213709981,-0.0020943951023931,0.1298524963483781,2.352420695682919,39.14495440564373,1.960756400464014
1403638148245096960,48.323631,158.71887051196043,8.817812791666666,0.8662540833333333,-3.9144877916666654,0.0670206432765822,0.0013962634015954,0.0237364778271228,1.4290822873268891,40.11782358729945,0.9728691816557173
1403638148295097088,39.85858,196.895154582969,8.817812791666666,0.8662540833333333,-3.9144877916666654,0.0670206432765822,0.0013962634015954,0.0237364778271228,1.2127848864170045,40.93134985995147,0.8135262726520196
1403638148345096960,50.50087,226.40212897474223,9.75761675,-0.1144109166666666,-3.2035056666666666,0.0593411945678072,0.0495673507566389,-0.054454272662223,0.8872082885585213,40.815286442170255,-0.11606341778121276
1403638148395097088,50.071239,281.244069903886,8.564474333333333,0.269682875,-3.8245935,0.0565486677646162,-0.025830872929516,0.1082104136236484,0.18447110023223892,40.96713638219233,0.15184994002207475
1403638148445096960,49.737215,301.8237997048933,7.722736874999999,0.3759215833333333,-2.7867230416666664,0.0530580092606276,-0.0146607657167523,0.0425860337486616,0.49027262430179525,41.107846401168366,0.14071001897603708
1403638148495097088,49.790859,310.88014587107625,5.34462425,-1.871435708333333,-3.260711125,-0.0090757121103705,-0.2624975194999471,-0.0090757121103705,2.238327510449752,39.82444903327087,-1.2833973678975
1403638148545096960,60.973168,351.4594812886676,7.567464916666665,0.6782932916666666,-2.623278875,0.0600393262686049,-0.0523598775598298,0.0335103216382911,0.4748188198348372,39.87166460618902,0.047215572918155146
1403638148595097088,38.931369,367.8681236319971,7.567464916666665,0.6782932916666666,-2.623278875,0.0600393262686049,-0.0523598775598298,0.0335103216382911,0.4687008429344315,40.020924090380724,0.14925948419170254
1403638148645096960,50.758362,365.3194212239768,7.240576583333333,0.3514049583333333,-3.268883333333333,0.0153588974175501,-0.0733038285837618,0.0390953752446729,1.1261775914774848,39.57604922153884,-0.444874868841886
1403638148695097088,59.789896,382.40466790335074,8.482752249999999,0.3268883333333333,-3.751043625,0.0307177948351002,-0.1110029404268393,0.064926248174189,1.4112834639754537,38.96690361854043,-0.6091456029984101
1403638148745096960,48.933029,391.4616566267581,10.288810291666666,-0.2533384583333333,-3.930832208333333,0.0656243798749867,-0.0628318530717958,0.0446804288510548,0.5886945951588295,39.416817759809405,0.44991414126897666
1403638148795097088,40.716887,421.32871648368354,10.288810291666666,-0.2533384583333333,-3.930832208333333,0.0656243798749867,-0.0628318530717958,0.0446804288510548,2.9482314789736437,37.854264203462925,-1.5625535563464794
1403638148845096960,59.880257,387.354414443421,10.125366125,0.1307553333333333,-3.751043625,0.0376991118430775,0.0767944870877505,0.1214749159388053,0.8285655883044832,38.56905992221824,0.7147957187553118
1403638148895097088,39.648294,397.9427465256348,10.125366125,0.1307553333333333,-3.751043625,0.0376991118430775,0.0767944870877505,0.1214749159388053,0.4567691561230604,38.97859091594681,0.4095309937285734
1403638148945096960,50.694227,343.9095213316029,11.106031125,-0.171616375,-4.1024485833333335,0.0516617458590321,0.0244346095279206,0.1054178868204575,0.6477082622266542,39.55962043504861,0.5810295191017971
1403638148995097088,49.708844,314.8491481169572,11.62088025,0.3350605416666666,-3.9390044166666662,0.0118682389135614,0.0153588974175501,0.0642281164733913,0.8101626748345329,40.33069076738426,0.771070332335654
1403638149045096960,49.308061,349.23218121743275,11.016136833333332,-0.980665,-3.064578125,0.0223402144255274,0.1019272283164688,0.0265290046303138,0.550851960980318,40.88699578028972,0.5563050129054616
1403638149095097088,49.350739,331.0732293166987,11.114203333333332,-0.6210878333333334,-2.4516625,0.0160570291183478,0.1291543646475804,0.0418879020478639,0.48049484283976474,41.38030339355502,0.49330761326529426
1403638149145096960,72.382927,806.2036605735954,8.907707083333333,0.0572054583333333,-3.996209875,0.0328121899374933,-0.0006981317007977,0.0747000919853573,0.5326353895588029,41.887277752716365,0.5069743591613474
1403638149195097088,40.714502,717.6366927416049,7.820803375,0.4331270416666666,-2.819411875,-0.0314159265358979,0.0970403064108847,0.0495673507566389,0.5859837394423004,42.40874195730837,0.5214642045920073
1403638149245096960,38.412332,689.0811990056351,7.820803375,0.4331270416666666,-2.819411875,-0.0314159265358979,0.0970403064108847,0.0495673507566389,0.516687463740084,42.88646663648605,0.47772467917767614
1403638149295097088,49.699545,1213.644483067125,7.632842583333333,-0.8253930416666666,-3.7673880416666665,0.0614355896702004,-0.0111701072127637,0.1654572130890624,0.684687963868667,43.45460017626385,0.5681335397778042
1403638149345096960,59.997082,1199.3038031855872,8.351996916666666,0.1389275416666666,-2.6477955,-0.0523598775598298,0.0146607657167523,0.0656243798749867,0.6400180325192829,44.01497784305535,0.5603776667914957
1403638149395097088,40.373325,1196.6116464729594,8.351996916666666,0.1389275416666666,-2.6477955,-0.0523598775598298,0.0146607657167523,0.0656243798749867,0.6807712235316064,44.54086924565298,0.5258914025976296
1403638149445096960,59.11994,1259.681834046603,7.060788,0.4494714583333333,-2.655967708333333,-0.018151424220741,0.0125663706143591,0.0237364778271228,0.660448813803976,45.00831103708553,0.4674417914325488
1403638149495097088,50.811053,1147.6690656471435,7.771770125,0.3840937916666667,-3.2280222916666665,-0.0223402144255274,0.0425860337486616,0.0656243798749867,0.5274290373249146,45.39527317318132,0.38696213609579644
1403638149545096960,39.935588,1253.9573375131838,7.771770125,0.3840937916666667,-3.2280222916666665,-0.0223402144255274,0.0425860337486616,0.0656243798749867,0.6280014558433897,45.849220261715125,0.45394708853380195
1403638149595097088,50.475598,1248.202767722642,8.172208333333334,1.054214875,-2.9011339583333333,-0.0125663706143591,0.0418879020478639,-0.0202458193231342,0.6239329366887567,46.39741994899882,0.5481996872836916
1403638149645096960,49.838066,1176.333624636411,9.013945791666666,-0.9888372083333332,-3.342433208333333,0.0558505360638185,-0.0460766922526503,0.0111701072127637,0.6358293072444179,46.83886379047666,0.44144384147784166
1403638149695097088,50.093651,1149.75229616106,8.809640583333332,-0.4494714583333333,-3.293399958333333,0.1354375499547599,0.0733038285837618,0.0446804288510548,0.6774867391620791,47.29216215214848,0.4532983616718198
1403638149745096960,60.120582,1192.5806632517372,9.438900625,0.269682875,-3.898143375,0.1487020522699168,-0.0251327412287183,0.0376991118430775,0.4801433267336941,47.7543448468522,0.46218269470372064
1403638149795097088,39.805174,1081.9467099379783,9.438900625,0.269682875,-3.898143375,0.1487020522699168,-0.0251327412287183,0.0376991118430775,0.4222279413514096,47.92921173802043,0.17486689116822873
1403638149845096960,50.084591,1160.02370195282,7.518431666666666,0.0572054583333333,-3.955348833333333,0.0726056968829641,0.0230383461263251,0.0425860337486616,0.3340013462593267,48.23392982509886,0.3047180870784345
1403638149895097088,49.716711,1174.413571374303,9.438900625,-1.22583125,-2.999200458333333,0.0900589894029074,0.0593411945678072,0.1186823891356144,0.3886179843101488,48.51336998757467,0.27944016247580805
1403638149945096960,59.514761,1110.99868273416,7.869836625,-0.0735498749999999,-3.268883333333333,-0.0055850536063818,-0.0397935069454707,0.0342084533390888,0.3251574825696738,48.78854845310424,0.2751784655295708
1403638149995097088,49.897432,1198.9356257010634,9.308145291666667,-0.0653776666666666,-2.557901208333333,-0.0153588974175501,0.0747000919853573,-0.0593411945678072,0.5022101266874681,49.02937033035904,0.24082187725480253
1403638150045096960,40.401221,1148.3588861639275,9.308145291666667,-0.0653776666666666,-2.557901208333333,-0.0153588974175501,0.0747000919853573,-0.0593411945678072,0.44230820096816653,49.409640729841776,0.38027039948273256
1403638150095097088,59.513807,1127.863631281878,8.441891208333333,-0.3595771666666666,-3.751043625,-0.0418879020478639,0.0390953752446729,-0.1005309649148733,0.3639362274268952,49.62630396635931,0.21666323651753316
1403638150145096960,40.264607,1159.8291290425884,8.441891208333333,-0.3595771666666666,-3.751043625,-0.0418879020478639,0.0390953752446729,-0.1005309649148733,0.44704780556189094,50.02160835519044,0.3953043888311285
1403638150195097088,50.220251,1097.8999780097529,8.77695175,-0.3514049583333333,-3.5222217916666665,-0.057246799465414,-0.0376991118430775,-0.1200786525372098,0.4916758862736801,50.436300821531496,0.4146924663410587
1403638150245096960,49.804687,1041.8850938633498,9.553311541666666,-0.0408610416666666,-2.2555295,-0.0628318530717958,-0.0188495559215387,-0.0705113017805709,0.6744226356832165,50.393893917313825,-0.042406904217671126
1403638150295097088,60.084343,977.172127017625,7.79628675,0.7681875833333334,-3.726527,0.0209439510239319,0.0055850536063818,0.0167551608191455,0.8283141859636599,51.18119477857002,0.7873008612561918
1403638150345096960,39.713144,890.1134499811157,7.79628675,0.7681875833333334,-3.726527,0.0209439510239319,0.0055850536063818,0.0167551608191455,0.5215213731912984,51.49570804346564,0.3145132648956235
1403638150395097088,50.219298,667.2700058229693,8.466407833333333,-0.2778550833333333,-3.8409379166666655,0.0397935069454707,-0.1731366617978375,0.1780235837034216,0.5913382908149246,52.0708573788068,0.575149335341159
1403638150445096960,50.261736,766.9353045688988,10.664731875,-0.1879607916666666,-3.097266958333333,0.2178170906488923,-0.179419847105017,0.2478367537831947,0.5891866782009268,52.64008162661041,0.5692242478036107
1403638150495097088,49.705028,693.6182150089342,11.408402833333332,0.318716125,-4.2822371666666665,0.2059488517353309,-0.1284562329467826,0.2380629099720265,0.5640984345125069,52.987372771084736,0.3472911444743261
1403638150545096960,49.401999,899.8245330024928,8.564474333333333,-0.9234595416666666,-3.0400615,0.2094395102393195,-0.2178170906488923,0.0670206432765822,0.75102641830848,53.73106181456874,0.7436890434840038
1403638150595097088,50.712585,968.9222489418652,8.376513541666666,0.661948875,-3.219850083333333,0.1996656664281513,-0.0265290046303138,0.0474729556542457,0.8237133575783588,54.553905916970514,0.8228441024017741
1403638150645096960,49.83449,990.1486439953632,10.746453958333332,-0.3350605416666666,-4.576436666666666,0.1745329251994329,-0.0195476876223364,0.0844739357965255,0.6972033818612561,55.24303325163886,0.6891273346683491
1403638150695097088,59.594154,1019.5246084720366,9.013945791666666,0.8744262916666666,-3.366949833333333,0.1193805208364121,0.0942477796076938,0.0174532925199432,0.6449428359399985,55.84793178951906,0.6048985378801959
1403638150745096960,40.291787,911.023085432596,9.013945791666666,0.8744262916666666,-3.366949833333333,0.1193805208364121,0.0942477796076938,0.0174532925199432,0.5665195321910095,56.43848521727642,0.5905534277573636
1403638150795097088,50.279855,847.3356515363088,10.484943291666664,-0.0326888333333333,-2.574245625,0.1333431548523667,0.1375319450571531,-0.0342084533390888,0.5548759702948821,56.977769697566636,0.5392844802902133
1403638150845096960,59.278727,795.3523332872337,9.684066875,0.6292600416666666,-4.543747833333333,0.1263618378443894,0.1179842574348166,0.0223402144255274,0.574361238490911,57.50601821944694,0.5282485218803075
1403638150895097088,40.719032,780.4430938765526,9.684066875,0.6292600416666666,-4.543747833333333,0.1263618378443894,0.1179842574348166,0.0223402144255274,0.485603971592822,57.9762885866119,0.4702703671649573
1403638150945096960,49.798966,705.652926634637,8.499096666666667,-0.9970094166666666,-2.043052083333333,0.1500983156715123,0.1598721594826805,-0.0733038285837618,0.440271094374269,58.44140353556997,0.4651149489580675
1403638150995097088,49.996376,671.0944266331142,10.002783,-0.24516625,-3.3506054166666663,0.1947787445225671,0.1850049007113989,0.0418879020478639,0.5499556709009483,58.868157925054696,0.4267543894847279
1403638151045096960,49.742698,817.4901443962365,8.196724958333332,0.8253930416666666,-4.298581583333333,0.21851522234969,0.1172861257340189,-0.0314159265358979,0.5178021906400961,59.36619719922831,0.49803927417361393
1403638151095097088,50.38023,631.0926593035,7.673703624999999,-0.1062387083333333,-2.353596,0.2617993877991494,0.1689478715930511,-0.0879645943005142,0.4614015131633402,59.778829104440334,0.41263190521202375
1403638151145096960,49.497128,576.0247298064643,8.245758208333333,-0.2288218333333333,-2.459834708333333,0.3246312408709453,0.1103048087260416,-0.1738347934986352,0.5733205567267159,60.23366885638465,0.4548397519443128
1403638151195097088,50.570965,585.5118928750258,8.597163166666666,0.2124774166666666,-4.314926,0.364424747816416,-0.0279252680319092,-0.0788888821901436,0.889736350207123,61.07908543142679,0.8454165750421438
1403638151245096960,59.573888,632.6591016809338,11.686257916666666,-0.3595771666666666,-3.955348833333333,0.5096361415823442,0.0230383461263251,-0.0642281164733913,0.8233498405132353,61.83886157646255,0.7597761450357581
1403638151295097088,40.333271,613.7163457685533,11.686257916666666,-0.3595771666666666,-3.955348833333333,0.5096361415823442,0.0230383461263251,-0.0642281164733913,0.6312720923992433,62.35241920119662,0.5135576247340694
1403638151345096960,49.470902,579.0140078444695,8.221241583333333,1.201314625,-2.508867958333333,0.48939032225921,0.0314159265358979,-0.1312487597499735,0.6270853824452044,62.780291311120465,0.4278721099238467
1403638151395097088,59.952021,565.2980040092847,10.427737833333332,-0.1552719583333333,-2.8439285,0.5201081170943103,0.0146607657167523,-0.0530580092606276,0.6580498228920403,63.452422792302286,0.6721314811818218
1403638151445096960,59.99279,523.7216406413862,9.602344791666663,0.0,-3.881798958333333,0.48939032225921,-0.0509636141582344,-0.1179842574348166,0.6240339831681141,64.08938343478783,0.6369606424855476
1403638151495097088,42.062521,584.2684312252385,9.643205833333331,0.2043052083333333,-4.396648083333333,0.4230678106834254,0.0691150383789754,-0.0656243798749867,0.7872065662453078,64.91831234030965,0.8289289055218205
1403638151545096960,48.883915,553.2500810033321,10.803659416666664,-0.024516625,-4.077931958333333,0.3686135380212024,-0.0111701072127637,-0.0174532925199432,0.6502723310432899,65.56795549293852,0.6496431526288688
1403638151595097088,49.49522,611.1768944546145,8.883190458333333,0.612915625,-3.113611375,0.3581415625092364,-0.0090757121103705,-0.0342084533390888,0.6878891883059236,66.25282700006332,0.6848715071247966
1403638151645096960,49.596548,601.1317317992003,11.506469333333332,-0.53936575,-4.56009225,0.2178170906488923,-0.0523598775598298,-0.0558505360638185,0.40567575896726277,66.69147002074857,0.4386430206852481
1403638151695097088,50.005198,585.8722356903502,8.18855275,-0.0326888333333333,-2.974683833333333,0.2227040125544764,-0.0321140582366956,-0.0747000919853573,0.5402381371192043,67.1240434452461,0.43257342449753367
1403638151745096960,40.435314,612.8383577126433,8.18855275,-0.0326888333333333,-2.974683833333333,0.2227040125544764,-0.0321140582366956,-0.0747000919853573,0.42579079354721644,67.4224204705019,0.2983770252558031
1403638151795097088,50.157785,623.3713227669479,9.07115125,-0.2124774166666666,-4.26589275,0.1975712713257581,0.0411897703470661,-0.046774823953448,0.2944766438521587,67.53726188075275,0.11484141025084682
1403638151845096960,59.793234,618.0196894823682,9.553311541666666,-0.2369940416666666,-3.8654545416666655,0.1123992038284348,-0.0006981317007977,-0.0013962634015954,0.4900934931611132,67.97926970714272,0.4420078263899683
1403638151895097088,40.174007,660.7231703022326,9.553311541666666,-0.2369940416666666,-3.8654545416666655,0.1123992038284348,-0.0006981317007977,-0.0013962634015954,0.5569043004034921,68.4664565400248,0.4871868328820739
1403638151945096960,49.549342,712.8219214894954,10.681076291666663,0.8008764166666666,-4.094276375,0.0530580092606276,0.0097738438111682,-0.0041887902047863,0.4348825224278807,68.94586159486022,0.47940505483542495
1403638151995097088,60.503482,706.1009432238689,8.932223708333334,-0.2778550833333333,-3.5222217916666665,0.0481710873550434,-0.064926248174189,0.0425860337486616,0.4625166473506154,69.40521635223256,0.45935475737233844
1403638152045096960,39.719582,678.8219215162046,8.932223708333334,-0.2778550833333333,-3.5222217916666665,0.0481710873550434,-0.064926248174189,0.0425860337486616,0.14881160661214188,69.47586083590808,0.07064448367552245
1403638152095097088,50.414801,701.7593741335162,9.422556208333331,0.0163444166666666,-3.505877375,-0.0167551608191455,0.0216420827247296,0.0432841654494593,0.3693017632122872,69.86756114559395,0.39170030968587355
1403638152145096960,49.306154,485.0270384721711,10.133538333333334,0.1144109166666666,-4.511059,-0.0090757121103705,-0.0188495559215387,0.054454272662223,0.44890102123380793,70.12006383058468,0.2525026849907306
1403638152195097088,61.084032,464.6083718589472,8.319308083333333,0.6537766666666667,-3.8082490833333327,-0.0321140582366956,-0.0174532925199432,-0.0886627260013119,0.4943195945157939,70.44776820668649,0.32770437610180636
1403638152245096960,50.242662,475.9274240332193,9.994610791666668,-0.0081722083333333,-3.023717083333333,-0.0684169066781777,0.0663225115757845,-0.0153588974175501,0.2633585551425874,70.7549610238821,0.3071928171956131
1403638152295097088,38.354159,557.2467538691072,9.994610791666668,-0.0081722083333333,-3.023717083333333,-0.0684169066781777,0.0663225115757845,-0.0153588974175501,0.5714593651136232,71.3418191519468,0.5868581280646907
1403638152345096960,50.534963,532.6364086191917,7.967903124999999,-0.3840937916666667,-2.6641399166666666,-0.0488692190558412,-0.025830872929516,0.0104719755119659,0.5124506210872504,71.86270226116591,0.5208831092191133
1403638152395097088,50.164938,548.6151190731016,8.38468575,0.0408610416666666,-3.563082833333333,-0.0628318530717958,0.057246799465414,0.0244346095279206,0.9395682274687537,72.69588446022135,0.8331821990554431
1403638152445096960,49.892903,483.0160038387999,7.910697666666666,-0.4004382083333333,-2.770378625,-0.0621337213709981,0.0195476876223364,0.0132645023151569,0.4232768074685324,72.99575686802187,0.29987240780052105
1403638152495097088,51.013946,497.0313910040052,9.888372083333332,0.907115125,-4.519231208333333,-0.0432841654494593,-0.0090757121103705,0.0621337213709981,0.3798149603314949,73.357917429306,0.3621605612841279
1403638152545096960,56.434393,499.8759255126291,9.545139333333331,-0.6456044583333332,-3.2525389166666665,0.0055850536063818,-0.007679448708775,0.0984365698124801,0.6626996715896183,73.19108808752847,-0.16682934177752884
1403638152595097088,48.587561,440.5509574945091,7.150682291666666,0.8417374583333332,-3.546738416666667,0.0167551608191455,-0.0851720674973232,0.1696460032938488,0.7841751974703893,73.82727022474536,0.6361821372168919
1403638152645096960,42.407513,397.061504775558,7.150682291666666,0.8417374583333332,-3.546738416666667,0.0167551608191455,-0.0851720674973232,0.1696460032938488,0.6738378742356202,74.54204382701131,0.7147736022659501
1403638152695097088,57.123899,394.83037998328217,11.22861425,0.4494714583333333,-3.211677875,0.0816814089933346,0.0418879020478639,0.1284562329467826,0.7369209037400041,75.29435847497668,0.7523146479653633
1403638152745096960,42.237282,238.73253540155727,11.22861425,0.4494714583333333,-3.211677875,0.0816814089933346,0.0418879020478639,0.1284562329467826,0.5146860480904691,75.0497835724652,-0.24457490251147362
1403638152795097088,57.542324,234.76492044998668,9.872027666666666,0.6292600416666666,-3.3260887916666664,0.2059488517353309,0.104021623418862,0.0397935069454707,0.5639091752641673,75.62794556629184,0.5781619938266402
1403638152845096960,42.932987,208.73058536333627,9.872027666666666,0.6292600416666666,-3.3260887916666664,0.2059488517353309,0.104021623418862,0.0397935069454707,1.1858073698195186,76.876835795918,1.2488902296261557
1403638152895097088,49.492121,248.4863870843208,10.991620208333332,0.0980665,-3.751043625,0.2729694950119131,0.1933824811209717,0.1312487597499735,0.5322785144159344,77.48451054632648,0.6076747504084778
1403638152945096960,50.449371,275.1504038579106,8.997601374999999,-0.0081722083333333,-4.453853541666667,0.2673844414055313,0.1123992038284348,-0.0272271363311115,0.5689254798355093,78.09876011670721,0.6142495703807356
1403638152995097088,49.481869,277.3321409373612,9.389867375,0.612915625,-3.6448049166666654,0.2792526803190927,0.0698131700797731,-0.0300196631343024,0.26301362578913257,78.37984263492365,0.2810825182164365
1403638153045096960,57.146788,249.14619225909507,8.38468575,0.2860272916666666,-3.1054391666666663,0.2617993877991494,-0.0851720674973232,-0.0356047167406843,0.11645448236728013,78.58392166773143,0.20407903280778328
1403638153095097088,42.809724,250.787800839057,8.38468575,0.2860272916666666,-3.1054391666666663,0.2617993877991494,-0.0851720674973232,-0.0356047167406843,0.6060392895107635,78.18361214003153,-0.40030952769990336
1403638153145096960,49.948216,273.66897294714107,9.970094166666666,-0.1389275416666666,-3.857282333333333,0.2017600615305445,-0.0558505360638185,-0.0132645023151569,3.5178202472867293,81.76933517847571,3.5857230384441863
1403638153195097088,50.015211,292.678349300093,7.575637124999999,0.6946377083333333,-2.7213453750000003,0.2024581932313422,-0.0153588974175501,0.007679448708775,0.2870880899614579,81.95758762732095,0.1882524488452333
1403638153245096960,50.025463,317.28203936713686,9.152873333333332,0.3350605416666666,-3.742871416666666,0.1528908424747032,-0.093549647906896,0.0328121899374933,0.24082513378288728,82.24158562889312,0.28399800157217214
1403638153295097088,50.043821,288.2107614525098,8.825985,-0.0163444166666666,-3.669321541666666,0.1528908424747032,0.0321140582366956,-0.1075122819228507,0.41830836397809873,82.174947320502,-0.06663830839111995
1403638153345096960,49.065352,276.5486919135332,8.139519499999999,0.1389275416666666,-3.113611375,0.2031563249321399,-0.0453785605518525,0.0404916386462684,0.19055328344986178,82.39663124223551,0.22168392173351492
1403638153395097088,50.838709,272.1317217874745,9.536967125,0.2043052083333333,-4.4129925,0.2359685148696333,0.0167551608191455,-0.0460766922526503,0.5084007746644751,82.45343143156948,0.0568001893339698
1403638153445096960,56.491136,245.01128312630075,10.452254458333334,0.0,-4.077931958333333,0.2234021442552742,-0.0600393262686049,-0.2366666465704311,0.3733880868542493,82.88526831719606,0.4318368856265806
1403638153495097088,43.213368,250.84343162893887,10.452254458333334,0.0,-4.077931958333333,0.2234021442552742,-0.0600393262686049,-0.2366666465704311,0.7798329523602269,82.52747034359619,-0.3577979735998724
1403638153545096960,49.947738,237.63104034243477,8.441891208333333,0.0817220833333333,-3.5957716666666664,0.2282890661608583,0.0090757121103705,-0.2527236756887789,0.4288367726008065,82.57824168656471,0.05077134296851682
1403638153595097088,56.569577,243.05592110237768,7.869836625,0.3840937916666667,-3.742871416666666,0.3183480555637657,0.0446804288510548,-0.2624975194999471,0.3994550337468651,82.7649471235153,0.1867054369505894
1403638153645096960,43.363332,242.63316533292985,7.869836625,0.3840937916666667,-3.742871416666666,0.3183480555637657,0.0446804288510548,-0.2624975194999471,0.45394255516356075,82.76300408066493,-0.0019430428503710573
1403638153695097088,60.291768,221.3634767735258,8.327480291666665,-0.4739880833333333,-3.979865458333333,0.4153883619746504,0.1514945790731078,0.0404916386462684,0.6428641560866671,82.68838207918752,-0.07462200147740816
1403638153745096960,40.569782,222.62084033286632,8.327480291666665,-0.4739880833333333,-3.979865458333333,0.4153883619746504,0.1514945790731078,0.0404916386462684,0.6364112026827886,83.33635150333892,0.6479694241513982
1403638153795097088,49.201727,197.9490531815472,6.382494708333334,0.6537766666666667,-2.1492907916666666,0.3755948550291797,0.0216420827247296,-0.0279252680319092,0.5356521754605252,83.92925178430427,0.5929002809653525
1403638153845096960,50.047636,209.77228529280464,8.180380541666665,0.0,-3.268883333333333,0.2988003679414292,0.0537561409614253,0.0223402144255274,0.3029102481925066,83.9429380387238,0.013686254419525312
1403638153895097088,49.890041,228.85474452275707,7.788114541666666,0.0817220833333333,-3.064578125,0.2548180707911721,0.1850049007113989,0.0027925268031909,0.4905014094146003,84.22693864588541,0.2840006071616159
1403638153945096960,49.932957,267.4642922258701,7.453054,0.8825985,-3.334261,0.2331759880664424,0.1968731396249603,0.1235693110411985,0.3462886367509463,84.51330950336843,0.28637085748302127
1403638153995097088,50.393104,262.8975754328265,9.275456458333332,0.3023717083333333,-3.4813607499999994,0.1452113937659282,0.0516617458590321,0.1542871058762987,0.379275641109471,84.53584382205067,0.02253431868223288
1403638154045096960,49.822808,327.9147865738569,8.057797416666666,-0.24516625,-3.268883333333333,0.1563815009786919,0.0698131700797731,0.0607374579694026,0.9405544137588078,85.3537633905992,0.8179195685485325
1403638154095097088,56.326627,329.5900489312778,7.89435325,0.0572054583333333,-2.631451083333333,0.0216420827247296,0.1598721594826805,0.0230383461263251,0.6449593101090773,86.06672197154035,0.7129585809411481
1403638154145096960,49.875021,276.39043707212915,9.945577541666664,-0.7191543333333333,-3.6202882916666654,0.0342084533390888,0.1410226035611418,0.0642281164733913,0.9365304129831655,86.95656279604414,0.8898408245037928
1403638154195097088,43.763876,381.14892651068016,9.945577541666664,-0.7191543333333333,-3.6202882916666654,0.0342084533390888,0.1410226035611418,0.0642281164733913,1.5598126159852976,88.28028620309311,1.3237234070489734
1403638154245096960,56.377888,390.15462540933856,8.564474333333333,-0.9888372083333332,-3.170816833333333,-0.0188495559215387,0.0949459113084915,0.0698131700797731,1.6348674085266344,89.77601270472958,1.4957265016364687
1403638154295097088,43.51449,401.98917723337627,8.564474333333333,-0.9888372083333332,-3.170816833333333,-0.0188495559215387,0.0949459113084915,0.0698131700797731,1.0631914780929377,90.57415143684229,0.7981387321127045
1403638154345096960,49.986601,333.6758872389028,10.583009791666663,-0.7109821249999999,-2.549729,0.0,0.2401573050744197,0.0656243798749867,0.6917004773136143,90.99999713876957,0.42584570192728677
1403638154395097088,50.001144,352.7687158258385,8.123175083333333,0.980665,-2.974683833333333,-0.0195476876223364,0.2555162024919699,-0.036302848441482,0.36878706034470177,90.77364807335256,-0.22634906541701127
1403638154445096960,49.741745,535.6885289805195,8.77695175,0.0408610416666666,-3.77556025,-0.0013962634015954,0.2673844414055313,0.1843067690106012,2.802731324333416,92.915644206835,2.1419961334824364
1403638154495097088,50.340415,517.87563930121,8.523613291666665,0.2043052083333333,-3.563082833333333,-0.025830872929516,0.1549852375770964,0.0635299847725936,1.9780224007776934,94.48550547509376,1.5698612682587623
1403638154545096960,49.727439,741.3949109819392,9.814822208333332,0.24516625,-2.868445125,-0.0062831853071795,-0.0041887902047863,0.1473057888683213,2.446850807486502,96.52432380752843,2.0388183324346727
1403638154595097088,50.121069,649.3344054438285,8.507268875,0.5883989999999999,-2.8602729166666667,0.0586430628670094,-0.018151424220741,0.0970403064108847,0.9204184031809208,97.47566073286322,0.9513369253347861
1403638154645096960,50.09389,600.7639456715699,9.226423208333332,-0.2615106666666666,-2.7622064166666664,0.0788888821901436,-0.0705113017805709,-0.0139626340159546,1.3453458556254598,98.73103158971404,1.255370856850817
1403638154695097088,49.921035,595.8281880943366,10.795487208333332,-0.4985047083333333,-4.85429175,0.1417207352619395,-0.1584758960810851,0.104021623418862,0.30319506987608313,99.1510988085824,0.4200672188683683
1403638154745096960,49.743891,550.1201627652058,9.357178541666666,0.34323275,-3.849110125,0.1577777643802873,-0.2122320370425104,-0.0265290046303138,1.366598421259717,100.48902508085536,1.3379262722729521
1403638154795097088,50.32897,602.5308036753543,10.092677291666664,0.0735498749999999,-4.404820291666666,0.1263618378443894,-0.0809832772925368,-0.0160570291183478,0.47330596315844303,100.95087881100677,0.46185373015141806
1403638154845096960,49.532414,569.5407992462915,9.487933875,0.196133,-4.151481833333333,0.1075122819228507,-0.0698131700797731,-0.0579449311662117,1.2490600450138236,102.12797946052467,1.1771006495178966
1403638154895097088,56.550502,656.3833114905311,11.980457416666669,-0.1797885833333333,-4.494714583333333,0.1319468914507713,0.0370009801422797,-0.1340412865531645,1.1571331863209906,103.20738364873756,1.0794041882128909
1403638154945096960,43.82968,646.8682692702045,11.980457416666669,-0.1797885833333333,-4.494714583333333,0.1319468914507713,0.0370009801422797,-0.1340412865531645,1.1003010766766232,104.20796504821466,1.000581399477099
1403638154995097088,49.572706,678.6175917400673,9.594172583333334,-0.1144109166666666,-4.690847583333333,0.140324471860344,0.0216420827247296,-0.0481710873550434,2.2722888906360024,106.2680582244931,2.0600931762784427
1403638155045096960,56.948423,696.9121954572272,10.051816249999998,0.220649625,-3.800076875,0.2617993877991494,0.0488692190558412,-0.046774823953448,1.6307285915128003,107.7183474169065,1.4502891924133934
1403638155095097088,43.123484,667.7839769586727,10.051816249999998,0.220649625,-3.800076875,0.2617993877991494,0.0488692190558412,-0.046774823953448,1.9250827553703564,109.44401511694709,1.7256677000405887
1403638155145096960,56.724548,608.7350287765672,6.317117041666666,0.3840937916666667,-2.1983240416666665,0.2136283004441059,-0.0314159265358979,0.075398223686155,2.7808932723501982,111.92198254328498,2.477967426337898
1403638155195097088,49.574137,627.2729968588906,9.242767625,0.4331270416666666,-3.8082490833333327,0.2122320370425104,0.1424188669627373,0.0865683308989187,0.9614914539066344,112.67245330898254,0.7504707656975569
1403638155245096960,43.847323,704.4507059185919,9.242767625,0.4331270416666666,-3.8082490833333327,0.2122320370425104,0.1424188669627373,0.0865683308989187,2.7569942198809954,115.08223136064908,2.4097780516665352
1403638155295097088,49.975872,749.0969464706302,7.837147791666666,-0.0980665,-3.28522775,0.1298524963483781,0.2136283004441059,0.0265290046303138,1.9769957805459826,116.65721832854274,1.5749869678936648
1403638155345096960,49.719572,828.0270195421472,8.180380541666665,-0.0408610416666666,-2.803067458333333,0.1556833692778942,0.1598721594826805,-0.0474729556542457,2.6894335278427386,119.0186084841876,2.3613901556448553
1403638155395097088,50.550699,829.710202517717,8.123175083333333,0.34323275,-3.162644625,0.1731366617978375,0.1598721594826805,0.0370009801422797,1.3235859183021166,120.27887094050426,1.2602624563166671
1403638155445096960,56.673288,803.0049332364237,7.232404375,0.5883989999999999,-3.391466458333333,0.2136283004441059,0.0991347015132779,-0.08307767239493,0.6009077206235809,119.97434919021221,-0.30452175029205364
1403638155495097088,49.454928,767.5073485252084,6.725727458333332,0.5883989999999999,-1.9776744166666664,0.3309144261781249,0.08307767239493,0.1340412865531645,0.9390861380533655,119.37360823280301,-0.6007409574092009
1403638155545096960,43.739319,710.6553005573593,6.725727458333332,0.5883989999999999,-1.9776744166666664,0.3309144261781249,0.08307767239493,0.1340412865531645,0.9659886021445587,120.21179377344026,0.8381855406372551
1403638155595097088,56.626081,611.2041827043516,9.75761675,0.0081722083333333,-3.8164212916666655,0.4230678106834254,0.1975712713257581,0.161268422884276,0.49251744602864533,120.083648009419,-0.12814576402126931
1403638155645096960,49.662113,583.6863835183646,8.466407833333333,0.4249548333333333,-3.334261,0.4063126498642799,0.1961750079241626,0.0872664625997164,1.4208152649880623,119.35916139044502,-0.7244866189739696
1403638155695097088,43.817997,632.0791660079545,8.466407833333333,0.4249548333333333,-3.334261,0.4063126498642799,0.1961750079241626,0.0872664625997164,2.7811020262262387,117.51757879342873,-1.8415825970162985
1403638155745096960,49.628496,618.6925468890283,8.490924458333334,-0.0735498749999999,-3.015544875,0.4153883619746504,-0.0125663706143591,0.0823795406941323,1.103778397728348,118.45779395076978,0.9402151573410578
1403638155795097088,50.326348,605.8036193456227,9.872027666666666,-0.612915625,-4.36395925,0.4153883619746504,0.0104719755119659,-0.0216420827247296,1.0570247159210198,119.32180674112722,0.8640127903574353
1403638155845096960,49.997568,594.0941857875083,10.517632125,-0.122583125,-3.2361945,0.4754276882432553,0.0230383461263251,0.0656243798749867,0.8675413814170743,118.84850569657794,-0.4733010445492738
1403638155895097088,49.973726,534.4204790710537,8.866846041666665,-0.1144109166666666,-2.4189736666666666,0.494277244164794,-0.064926248174189,-0.0614355896702004,1.239645734038947,119.8541356802495,1.0056299836715539
1403638155945096960,49.786568,468.18655106768944,9.839338833333333,-0.2533384583333333,-4.903325,0.5215043804959056,-0.2073451151369263,-0.0390953752446729,0.27922801196395375,120.28817263891736,0.4340369586678605
1403638155995097088,54.880619,455.4591331765988,11.236786458333333,-0.0735498749999999,-4.699019791666666,0.510334273283142,-0.2101376419401172,-0.0774926187885482,0.7491182602956341,120.95331069477695,0.6651380558595861
1403638156045096960,48.335791,487.6107785199423,10.762798375,-0.9888372083333332,-4.249548333333333,0.5333726194094671,-0.3183480555637657,-0.0963421747100869,0.5121726958259119,120.78396563826979,-0.16934505650715437
1403638156095097088,49.802541,576.7581704946234,9.398039583333333,0.7028099166666667,-3.309744375,0.5766567848589265,-0.2296853295624537,-0.0809832772925368,0.6863263738322571,120.36731507889202,-0.4166505593777714
1403638156145096960,49.980402,639.5756093332662,10.762798375,0.3023717083333333,-3.612116083333333,0.4726351614400644,-0.0970403064108847,-0.0670206432765822,0.5338581403099318,120.25890144695282,-0.10841363193920017
1403638156195097088,50.227165,686.4908601479016,9.80665,-0.0817220833333333,-4.094276375,0.4824090052512327,-0.1228711793404008,0.0984365698124801,0.24873003591885826,120.17960181878773,-0.07929962816508862
1403638156245096960,59.748173,674.2820572288464,9.545139333333331,-0.171616375,-3.612116083333333,0.4482005519121438,-0.1731366617978375,0.0118682389135614,0.25019875821337223,120.13060613553827,-0.048995683249458466
1403638156295097088,40.517807,718.0378018487264,9.545139333333331,-0.171616375,-3.612116083333333,0.4482005519121438,-0.1731366617978375,0.0118682389135614,1.0072867463018091,119.43547739847268,-0.6951287370655876
1403638156345096960,49.741507,679.1173524536116,8.793296166666666,0.9398039583333332,-2.705000958333333,0.3239331091701475,-0.179419847105017,-0.0558505360638185,0.48246774175902185,119.28543426547624,-0.15004313299644423
1403638156395097088,50.262213,812.1128843031754,8.948568125,0.3595771666666666,-4.936013833333333,0.2673844414055313,-0.0565486677646162,0.0090757121103705,1.9593480806078616,120.16529493997498,0.8798606744987438
1403638156445096960,49.860239,810.3821948854888,8.302963666666667,0.5720545833333333,-2.353596,0.2555162024919699,-0.153588974175501,-0.0439822971502571,1.0474624588383479,120.14094338469452,-0.024351555280460957
1403638156495097088,49.932718,877.3431662488489,8.883190458333333,0.04903325,-2.6641399166666666,0.1940806128217694,-0.0272271363311115,0.0481710873550434,1.1440818009799785,120.30559818727721,0.16465480258268883
1403638156545096960,59.64756,870.6741219287276,6.758416291666666,-0.0653776666666666,-2.7376897916666665,0.1068141502220529,0.0314159265358979,0.1312487597499735,0.6020618276517687,120.42855402579131,0.12295583851410186
1403638156595097088,49.902916,974.8133478563218,7.534776083333333,-0.3514049583333333,-4.037070916666667,0.0614355896702004,-0.0474729556542457,0.1103048087260416,0.6361535192602132,120.77092220336674,0.34236817757542326
1403638156645096960,40.506601,1068.0833718526155,7.534776083333333,-0.3514049583333333,-4.037070916666667,0.0614355896702004,-0.0474729556542457,0.1103048087260416,0.5444785129245553,120.49629582874442,-0.274626374622315
1403638156695097088,50.024987,999.1347276968048,8.131347291666666,0.980665,-3.554910625,0.0809832772925368,-0.0474729556542457,0.046774823953448,0.8600644623253517,120.11565596819622,-0.3806398605482002
1403638156745096960,49.470186,1053.7042798571713,9.013945791666666,1.299381125,-3.4323274999999995,-0.0111701072127637,0.0767944870877505,0.0265290046303138,1.410001382423728,119.78613378650249,-0.3295221816937328
1403638156795097088,60.00328,1056.5230518140552,9.75761675,0.7191543333333333,-3.702010375,0.0174532925199432,0.0223402144255274,0.0488692190558412,1.0429528390960612,119.63046483698506,-0.15566894951743393
1403638156845096960,39.999485,1015.700070701926,9.75761675,0.7191543333333333,-3.702010375,0.0174532925199432,0.0223402144255274,0.0488692190558412,1.5691351100451012,119.00742678899591,-0.6230380479891409
1403638156895097088,50.495863,1051.4298532513574,8.000591958333333,0.7681875833333334,-3.2770555416666665,-0.0970403064108847,-0.0446804288510548,0.0321140582366956,0.8697252817635738,118.99347814501753,-0.013948643978380915
1403638156945096960,50.045252,1027.1786681637016,8.450063416666666,-0.2288218333333333,-3.334261,-0.0628318530717958,-0.057246799465414,0.0530580092606276,1.1395891969096972,119.27222524807637,0.27874710305883355
1403638156995097088,49.87073,975.0220433920696,9.945577541666664,0.8580818749999999,-3.1463002083333333,-0.0041887902047863,0.0837758040957278,0.0635299847725936,0.17843275143777096,119.28928058612539,0.017055338049019042
