stamp,img_delta,blur,lin_acc.x,lin_acc.y,lin_acc.z,ang_vel.x,ang_vel.y,ang_vel.z,rpe,ate,drift
1403638522427829504,61.478615,149.19309254590414,9.528794916666666,-0.367749375,-3.612116083333333,0.1954768762233649,-0.0579449311662117,0.1905899543177807,9.175163001609764,9.17516300160974,9.17516300160974
1403638522777829376,50.248384,147.76532410736337,9.193734375,-0.5802267916666666,-3.391466458333333,0.2031563249321399,0.2038544566329376,0.1263618378443894,18.618577938704266,21.590212374731475,12.415049373121736
1403638522877829376,39.522886,180.17581254336565,8.760607333333333,-0.4086104166666666,-3.718354791666666,0.1193805208364121,0.2143264321449036,0.3295181627765294,5.260074715508935,26.849949105247788,5.2597367305163125
1403638522927829504,49.729348,216.0148683614958,8.433719,-0.3514049583333333,-2.89296175,0.0809832772925368,0.2010619298297467,0.1926843494201739,2.5426593187884103,29.382928006092122,2.532978900844334
1403638522977829376,61.025858,269.491990763615,7.878008833333333,-0.7109821249999999,-2.680484333333333,0.0237364778271228,0.1200786525372098,0.1514945790731078,2.6078599618597753,31.92609325189809,2.5431652458059695
1403638523027829504,39.200782,345.7369985065237,7.436709583333332,-0.7109821249999999,-2.778550833333333,-0.0216420827247296,0.1047197551196597,0.0621337213709981,2.0596208451667497,33.95650409757164,2.030410845673547
1403638523077829376,65.843583,493.5027354995423,7.657359208333333,-0.9398039583333332,-2.574245625,0.0146607657167523,0.0621337213709981,0.0628318530717958,1.837831547920576,35.78825731741115,1.8317532198395128
1403638523127829504,44.656991,545.0042424544879,7.060788,-0.5066769166666666,-2.6886565416666666,-0.0314159265358979,0.0411897703470661,0.0551524043630208,1.2893331660621712,37.03282749094256,1.2445701735314074
1403638523177829376,38.837195,541.0093925889068,7.0689602083333325,-0.2369940416666666,-2.4189736666666666,-0.0705113017805709,0.0956440430092892,0.0272271363311115,0.8303502604529636,37.80034148226236,0.7675139913198024
1403638523227829504,50.785065,527.8477540209997,6.725727458333332,-0.6701210833333332,-1.846919083333333,-0.2136283004441059,0.1417207352619395,-0.0886627260013119,0.37336972880107927,37.83455789289259,0.03421641063022918
1403638529927829504,38.958549,222.9709546874398,9.65955025,0.6782932916666666,-3.2770555416666665,0.0209439510239319,0.0900589894029074,0.1075122819228507,28.758101010066856,8.764467744667227,-29.07009014822536
1403638530027829504,49.031019,258.57024567216814,9.283628666666663,0.4739880833333333,-3.7919046666666665,0.0027925268031909,-0.0502654824574366,0.0872664625997164,4.350966724915964,9.960351015250088,1.1958832705828613
1403638530077829376,62.010765,254.53921173633728,9.07115125,0.1307553333333333,-3.67749375,-0.0418879020478639,-0.0614355896702004,0.1256637061435917,1.8394057745390962,11.020132849698886,1.0597818344487973
1403638530127829504,54.79002,252.7382022201717,8.97308475,0.3840937916666667,-3.8899711666666654,-0.0893608577021096,-0.0404916386462684,0.1480039205691191,1.8229453506583913,12.078467762806481,1.0583349131075952
1403638530177829376,46.920777,254.02361476063336,8.981256958333333,0.0572054583333333,-3.849110125,-0.1242674427419962,0.0090757121103705,0.1361356816555577,1.6957430653305863,13.017215451372572,0.9387476885660906
1403638530227829504,50.487041,251.35798149372525,8.87501825,0.4576436666666666,-4.1024485833333335,-0.0928515162060983,0.0265290046303138,0.1689478715930511,2.219386744312147,14.536490713225117,1.5192752618525454
1403638530377829376,42.784691,220.71494154989657,9.210078791666666,0.171616375,-4.347614833333333,-0.0872664625997164,0.036302848441482,0.1214749159388053,17.2900596534551,7.0072733415742245,-7.529217371650892
1403638530477829376,44.711113,223.5588929442684,8.956740333333332,0.465815875,-4.453853541666667,0.0097738438111682,0.0195476876223364,0.1829105056090057,5.904964558317511,7.510082025554333,0.502808683980108
1403638530527829504,37.855387,223.72993738989055,8.825985,0.1470997499999999,-4.388475875,-0.0530580092606276,0.0062831853071795,0.1158898623324234,1.9474846143780171,8.583034467708691,1.0729524421543584
1403638530577829376,50.747394,204.80931025167996,8.768779541666666,-0.0980665,-4.453853541666667,-0.0642281164733913,-0.0474729556542457,0.0914552528045028,2.5524280737756704,10.36042799348565,1.7773935257769597
1403638530677829376,50.200939,142.79093543470245,8.687057458333333,-0.0653776666666666,-4.192342875,-0.0174532925199432,-0.1452113937659282,0.1130973355292325,15.40352420574879,9.893529618602436,-0.46689837488321473
1403638530727829504,49.036741,149.40361124763507,8.703401874999999,-0.1389275416666666,-4.404820291666666,-0.0411897703470661,-0.1047197551196597,0.0740019602845595,2.2380873006131377,7.835810644182076,-2.05771897442036
1403638530777829376,62.100649,164.5062905445159,8.850501625,-0.0572054583333333,-4.306753791666666,-0.0160570291183478,-0.0328121899374933,0.0767944870877505,2.2214075628885532,5.867336617101398,-1.9684740270806778
1403638530827829504,49.403429,186.53950798016623,8.883190458333333,-0.024516625,-4.584608875,0.0844739357965255,0.0104719755119659,0.1075122819228507,2.2471212584958895,4.340939980933483,-1.5263966361679149
1403638531877829376,50.121546,230.02856444660884,9.226423208333332,0.122583125,-3.849110125,0.0188495559215387,0.0202458193231342,0.0879645943005142,7.822682681488378,8.568591462284854,4.22765148135137
1403638531977829376,62.028647,230.89860065011797,8.891362666666666,0.1389275416666666,-3.8654545416666655,0.0230383461263251,0.0244346095279206,0.1054178868204575,0.1295118238633343,8.614988005258455,0.04639654297360174
1403638532027829504,37.434816,228.4066198905153,9.013945791666666,0.0898942916666666,-3.8899711666666654,0.0,0.018151424220741,0.0370009801422797,0.1848487602636655,8.670726507791853,0.05573850253339785
1403638532077829376,50.945759,231.94448639322803,8.858673833333333,-0.024516625,-3.87362675,0.0202458193231342,0.0216420827247296,0.1089085453244461,0.17532306522662083,8.562677299401999,-0.1080492083898541
1403638532127829504,61.508894,228.24220587299115,8.981256958333333,0.2369940416666666,-4.053415333333333,-0.0041887902047863,0.0216420827247296,0.046774823953448,0.12318194468281235,8.652129004556416,0.08945170515441703
1403638532177829376,52.186966,231.9127802846293,8.981256958333333,0.0,-3.898143375,0.0083775804095727,0.0209439510239319,0.08307767239493,0.08906100682575863,8.624699864740752,-0.027429139815664527
1403638532227829504,53.779364,230.2965615970445,9.095667875,0.2288218333333333,-3.898143375,0.0062831853071795,0.0209439510239319,0.0795870138909414,0.05026015340133397,8.627230422095355,0.002530557354603502
1403638532277829376,31.881809,230.75354421502487,8.793296166666666,0.0572054583333333,-3.930832208333333,0.0027925268031909,0.0202458193231342,0.0712094334813686,0.12397943809251943,8.516573964091913,-0.11065645800344193
1403638532327829504,50.865173,230.07233139866997,8.964912541666667,0.2369940416666666,-3.9390044166666662,0.0069813170079773,0.0223402144255274,0.0865683308989187,0.10457800168694083,8.59594250579105,0.07936854169913765
1403638532377829376,49.061299,230.1552048472514,8.932223708333334,0.0653776666666666,-3.898143375,-0.0062831853071795,0.018151424220741,0.0600393262686049,0.051946262390122025,8.64500612599478,0.049063620203728675
1403638532427829504,50.739765,231.2503821320153,8.932223708333334,0.1552719583333333,-3.92266,0.0083775804095727,0.025830872929516,0.0928515162060983,0.10116230562604049,8.548256286246884,-0.0967498397478952
1403638532477829376,48.997164,229.30694725336335,9.054806833333332,0.0735498749999999,-3.996209875,-0.0055850536063818,0.0160570291183478,0.0614355896702004,0.1490576006029209,8.691201299848707,0.14294501360182288
1403638532527829504,50.851345,230.6454595330191,8.981256958333333,0.1307553333333333,-3.930832208333333,0.0069813170079773,0.0167551608191455,0.0907571211037051,0.10652943431159899,8.62434167835229,-0.06685962149641789
1403638532577829376,49.074649,230.59572030851024,8.891362666666666,0.2369940416666666,-3.8654545416666655,0.0020943951023931,0.0216420827247296,0.0656243798749867,0.07408507233283419,8.624879375694691,0.0005376973424020548
1403638532627829504,57.934046,231.1588985315824,8.842329416666665,0.0572054583333333,-3.8899711666666654,0.0034906585039886,0.0237364778271228,0.08307767239493,0.03346641911143273,8.597248947861447,-0.027630427833244653
1403638532677829376,43.422461,229.12542752201983,9.013945791666666,0.171616375,-3.955348833333333,-0.0027925268031909,0.0188495559215387,0.0712094334813686,0.036250783653036245,8.583286572292865,-0.01396237556858182
1403638532727829504,49.83139,231.0606230547098,8.981256958333333,0.0653776666666666,-3.8899711666666654,-0.0013962634015954,0.0244346095279206,0.0712094334813686,0.01922787024225673,8.592970877790563,0.009684305497698276
1403638532777829376,49.952984,231.08708281848263,9.038462416666666,0.1307553333333333,-3.947176625,-0.0013962634015954,0.0223402144255274,0.0816814089933346,0.07463023946204189,8.541158953331328,-0.051811924459235215
1403638532827829504,50.041199,230.10519255014563,8.899534874999999,0.1062387083333333,-3.906315583333333,-0.0062831853071795,0.018151424220741,0.0760963553869527,0.05406245000089433,8.57697571220862,0.03581675887729219
1403638532877829376,50.547123,231.24000454609225,8.948568125,0.0817220833333333,-3.87362675,0.0027925268031909,0.0209439510239319,0.0823795406941323,0.03578806648493987,8.59777106439332,0.020795352184700633
1403638532927829504,49.141884,231.47616237124032,8.948568125,0.0817220833333333,-3.906315583333333,-0.0034906585039886,0.0195476876223364,0.0740019602845595,0.050419582943261584,8.647007470311838,0.04923640591851708
1403638532977829376,50.992965,231.08040356919784,8.87501825,0.0572054583333333,-3.930832208333333,-0.0006981317007977,0.0251327412287183,0.08307767239493,0.08392771252790843,8.567419828208662,-0.07958764210317604
1403638533027829504,48.788309,229.80130775155015,9.005773583333333,0.1389275416666666,-3.963521041666666,-0.0034906585039886,0.0223402144255274,0.0684169066781777,0.09331007975220511,8.628013358881532,0.06059353067286999
1403638533077829376,50.64106,230.70270501669387,9.046634625,0.171616375,-3.9144877916666654,0.0,0.0195476876223364,0.0809832772925368,0.10731969606655513,8.709638098061857,0.08162473918032553
1403638533127829504,49.10326,230.3230299972335,8.940395916666665,0.0898942916666666,-3.898143375,-0.0062831853071795,0.018151424220741,0.0747000919853573,0.13853659328757476,8.590343566275521,-0.11929453178633587
1403638533177829376,49.907208,230.56338876359965,8.932223708333334,0.0572054583333333,-3.930832208333333,0.0034906585039886,0.0174532925199432,0.0816814089933346,0.056914803458007764,8.55971553475976,-0.030628031515760767
1403638533227829504,50.060272,230.6784181896689,8.899534874999999,0.0326888333333333,-3.87362675,-0.0027925268031909,0.0230383461263251,0.0809832772925368,0.032608487421388416,8.553940224638183,-0.005775310121578059
1403638533277829376,50.802469,231.04483317818665,8.9240515,0.0408610416666666,-3.9390044166666662,-0.0034906585039886,0.0244346095279206,0.0788888821901436,0.05943172695327459,8.59597232859047,0.042032103952287514
1403638533327829504,61.150313,230.86621680051,8.964912541666667,0.1144109166666666,-3.9390044166666662,-0.0020943951023931,0.0216420827247296,0.0733038285837618,0.026229810744583425,8.613220671441155,0.017248342850685106
1403638533377829376,37.623167,231.14563510546893,9.07115125,0.122583125,-3.92266,0.0,0.0174532925199432,0.0733038285837618,0.051628965112777155,8.583374550487916,-0.029846120953239463
1403638533427829504,52.638054,231.2647952519333,9.013945791666666,0.24516625,-3.930832208333333,0.0006981317007977,0.0216420827247296,0.0802851455917391,0.020537010358281132,8.568783202286154,-0.014591348201761889
1403638533477829376,49.681901,231.0252989750687,8.883190458333333,0.0653776666666666,-3.930832208333333,-0.0020943951023931,0.0146607657167523,0.0781907504893459,0.05993799642771152,8.598441466875617,0.029658264589462746
1403638533527829504,49.546004,230.5678476925193,8.915879291666666,0.1797885833333333,-3.87362675,-0.0041887902047863,0.0237364778271228,0.0851720674973232,0.054389145103630944,8.6279483111479,0.029506844272283672
1403638533577829376,67.061424,230.83705416954396,8.964912541666667,0.0572054583333333,-3.906315583333333,-0.0041887902047863,0.0209439510239319,0.0719075651821663,0.12557670944805993,8.657525360065756,0.029577048917856175
1403638533627829504,32.4862,230.419412598459,9.005773583333333,0.122583125,-3.979865458333333,0.0,0.0223402144255274,0.0851720674973232,0.08911444595881778,8.576263395413019,-0.08126196465273772
1403638533677829376,49.791336,230.4058880161101,8.891362666666666,0.0326888333333333,-3.906315583333333,-0.0048869219055841,0.0195476876223364,0.0712094334813686,0.07406506748123536,8.610030322447992,0.03376692703497319
1403638533727829504,50.248147,231.0730751849159,9.022118,0.1062387083333333,-3.8899711666666654,0.0006981317007977,0.0209439510239319,0.0837758040957278,0.041718356800587435,8.626645394370891,0.01661507192289946
1403638533777829376,49.85094,231.00282660460576,8.997601374999999,0.1879607916666666,-3.947176625,-0.0034906585039886,0.0230383461263251,0.0788888821901436,0.08092827839304753,8.622708950141007,-0.003936444229884373
1403638533827829504,49.811125,230.60452389789788,8.834157208333334,0.0326888333333333,-3.963521041666666,-0.0237364778271228,0.0230383461263251,0.0872664625997164,0.05584112229371901,8.603071219036748,-0.01963773110425926
1403638533877829376,49.623251,225.68302202913844,8.433719,-1.765197,-3.3996386666666667,-0.0230383461263251,0.018151424220741,0.08307767239493,0.09154727200956674,8.665604926428207,0.06253370739145936
1403638533927829504,50.401211,226.8521064662056,9.80665,-1.1604535833333331,-4.225031708333333,-0.0083775804095727,0.0614355896702004,0.0418879020478639,0.07269993703485593,8.604171638234623,-0.061433288193583735
1403638533977829376,49.511909,221.97330220251783,10.207088208333332,-0.44129925,-4.290409374999999,0.0342084533390888,0.0342084533390888,0.0823795406941323,0.031527541619308895,8.623643422848433,0.019471784613809717
1403638534027829504,66.259623,228.0710447824268,10.059988458333333,-0.7600153749999999,-4.519231208333333,0.0300196631343024,-0.0202458193231342,0.0844739357965255,0.0781865758591829,8.637139695540945,0.013496272692512079
1403638534077829376,33.682346,227.0886989599761,8.907707083333333,1.936813375,-4.323098208333334,0.1186823891356144,-0.0027925268031909,0.0551524043630208,0.10452376034744607,8.540239185620264,-0.09690050992068144
1403638534127829504,61.243773,224.42719906047645,8.376513541666666,0.9970094166666666,-4.094276375,0.0656243798749867,-0.0265290046303138,0.0802851455917391,0.08491302874420431,8.591926732165733,0.05168754654546959
1403638534177829376,56.132078,228.14949053604175,9.242767625,0.1634441666666666,-4.208687291666666,0.0684169066781777,0.0607374579694026,0.0684169066781777,0.035994074739871436,8.56753084477462,-0.024395887391113646
1403638534227829504,43.903828,226.8338416644218,9.340834125,-0.4086104166666666,-4.200515083333333,0.0090757121103705,0.0460766922526503,0.0209439510239319,0.06566678570345418,8.621384992052118,0.05385414727749804
1403638534277829376,50.370931,227.5328774917961,9.863855458333331,-1.3892754166666663,-3.9880376666666666,-0.0495673507566389,-0.0034906585039886,0.1019272283164688,0.09183635376678756,8.676070814834032,0.054685822781914695
1403638534327829504,38.596869,211.80594829579476,7.526603874999999,0.0980665,-2.8602729166666667,0.0111701072127637,0.0244346095279206,0.0963421747100869,0.04993584553015918,8.703538864719471,0.027468049885438717
1403638534377829376,48.943996,211.8226281865304,9.340834125,-0.4004382083333333,-4.241376125,-0.0041887902047863,0.0230383461263251,0.064926248174189,0.07201752332924126,8.722876229520654,0.0193373648011832
1403638534427829504,50.937414,215.02335552831312,8.981256958333333,0.04903325,-3.587599458333333,0.0027925268031909,0.0314159265358979,0.0865683308989187,0.06827952726153598,8.667060602293747,-0.055815627226907694
1403638534477829376,49.7818,221.1837149719957,7.967903124999999,-0.4576436666666666,-3.4813607499999994,0.1165879940332212,0.0460766922526503,0.0195476876223364,0.10160280753700356,8.570782643029123,-0.0962779592646239
1403638534527829504,60.843944,226.2220145900517,9.553311541666666,-0.2124774166666666,-4.347614833333333,0.0823795406941323,-0.0006981317007977,0.0760963553869527,0.08942884171976802,8.58909993200317,0.01831728897404794
1403638534577829376,38.976431,227.88888407260384,8.9240515,0.7600153749999999,-4.045243125,-0.0314159265358979,0.0453785605518525,0.0523598775598298,0.1649663040572589,8.639827512485292,0.050727580482121226
1403638534627829504,50.25816,226.3246780453071,9.136528916666666,-0.3023717083333333,-4.126965208333333,-0.0293215314335047,0.0153588974175501,0.1061160185212552,0.10358928518855817,8.640807742535857,0.000980230050565467
1403638534677829376,50.069809,229.28966849630305,8.981256958333333,1.250347875,-4.118792999999999,-0.0586430628670094,0.0083775804095727,0.1082104136236484,0.045150665998226494,8.676790201307034,0.03598245877117634
1403638534727829504,48.983335,227.0387908819193,8.67888525,-0.8580818749999999,-3.726527,-0.0565486677646162,0.0230383461263251,0.0942477796076938,0.14225207028555953,8.552835747545814,-0.12395445376122005
1403638534777829376,50.649166,228.1485446046724,9.5124505,-0.9234595416666666,-4.020726499999999,-0.0530580092606276,0.0146607657167523,0.0949459113084915,0.1812596189629682,8.707762301599596,0.15492655405378208
1403638534827829504,60.194493,228.09758676429436,9.022118,-0.6210878333333334,-4.004382083333333,-0.036302848441482,0.0118682389135614,0.0802851455917391,0.13254890322484195,8.613744789576348,-0.09401751202324782
1403638534877829376,46.404838,220.84916661901983,8.915879291666666,-1.3647587916666666,-3.6202882916666654,-0.0733038285837618,0.0328121899374933,0.0865683308989187,0.03429337699849265,8.582396832843333,-0.031347956733014826
1403638534927829504,45.428038,226.13734990557555,8.695229666666666,-0.2288218333333333,-3.636632708333333,0.0607374579694026,0.0272271363311115,0.0600393262686049,0.10055250258040435,8.560707268865073,-0.02168956397825994
1403638534977829376,47.394752,228.60946655788445,8.989429166666666,-0.4739880833333333,-3.930832208333333,0.0230383461263251,0.0195476876223364,0.0691150383789754,0.03848763134541969,8.549756887635859,-0.010950381229214656
1403638535027829504,61.95736,228.63426173817103,9.054806833333332,0.0163444166666666,-3.898143375,0.0307177948351002,0.0216420827247296,0.0460766922526503,0.08630323600145569,8.47779516729927,-0.07196172033658854
1403638535077829376,37.984371,228.74801653812355,9.259112041666668,-0.1389275416666666,-4.0615875416666665,0.0244346095279206,-0.0069813170079773,0.0691150383789754,0.13134196474388835,8.5348032767834,0.05700810948412993
1403638535127829504,50.055265,228.9840857570009,8.997601374999999,-0.0326888333333333,-4.004382083333333,0.0216420827247296,0.0349065850398865,0.0767944870877505,0.19924069250420634,8.618264675009234,0.08346139822583432
1403638535177829376,49.920321,229.0172194386848,8.597163166666666,-0.3350605416666666,-3.832765708333333,0.0034906585039886,0.0216420827247296,0.0684169066781777,0.21446263789590692,8.562596604438465,-0.0556680705707695
1403638535227829504,67.96956,229.87747586801132,9.161045541666669,0.34323275,-3.947176625,0.0090757121103705,-0.0006981317007977,0.0900589894029074,0.08711242957087667,8.628330709528125,0.06573410508966049
1403638535277829376,33.052922,229.047339175418,8.883190458333333,-0.04903325,-4.077931958333333,0.0195476876223364,0.0307177948351002,0.0502654824574366,0.047038855273227875,8.590625650650168,-0.0377050588779575
1403638535327829504,59.979677,229.76614574061097,9.136528916666666,0.3840937916666667,-4.028898708333333,0.0146607657167523,0.028623399732707,0.0851720674973232,0.06036557026874505,8.614618704006647,0.023993053356479166
1403638535377829376,54.495334,229.8211621046778,8.825985,0.1552719583333333,-3.7673880416666665,-0.0041887902047863,0.0188495559215387,0.0642281164733913,0.0889900350701392,8.56044060866214,-0.05417809534450768
1403638535427829504,45.443297,230.0345953819436,9.447072833333332,-0.0572054583333333,-3.947176625,0.018151424220741,0.0383972435438752,0.0809832772925368,0.03569933866542267,8.53526361602581,-0.025176992636328777
1403638535477829376,40.045023,230.66844475145143,9.030290208333332,0.4331270416666666,-4.110620791666666,0.0216420827247296,0.0209439510239319,0.0774926187885482,0.08417149263469485,8.610434451015166,0.07517083498935584
1403638535527829504,49.110889,229.1105371288928,8.752435125,0.196133,-3.8899711666666654,-0.0020943951023931,0.0195476876223364,0.0677187749773799,0.0925250162672347,8.53664770852945,-0.0737867424857157
1403638535577829376,51.038504,229.74391796444584,8.9240515,0.1307553333333333,-3.9880376666666666,-0.0048869219055841,0.0146607657167523,0.0809832772925368,0.10285468679313585,8.544272354207115,0.007624645677664077
1403638535627829504,59.776068,230.8299450465314,8.817812791666666,0.3268883333333333,-3.906315583333333,-0.0027925268031909,0.0237364778271228,0.0907571211037051,0.12643580479553845,8.57815091437107,0.03387856016395574
1403638535677829376,39.060831,229.57111254886505,8.768779541666666,-0.1470997499999999,-3.8245935,-0.0104719755119659,0.0293215314335047,0.0607374579694026,0.10869601127557244,8.618888061491724,0.04073714712065346
1403638535727829504,50.985336,230.18387434850868,9.275456458333332,0.0735498749999999,-4.16782625,0.0118682389135614,0.0111701072127637,0.0747000919853573,0.07375896266994914,8.555475494337319,-0.0634125671544048
1403638535777829376,60.94265,230.3679386652876,8.834157208333334,0.2533384583333333,-3.9144877916666654,0.0048869219055841,0.0195476876223364,0.0823795406941323,0.026414739529700818,8.566557081746401,0.011081587409082161
1403638535827829504,38.968325,229.17277037309373,8.883190458333333,0.3595771666666666,-3.8654545416666655,-0.0153588974175501,0.0111701072127637,0.0760963553869527,0.09876236322580256,8.584816341962027,0.018259260215625517
1403638535877829376,49.259662,230.6980178299898,8.825985,0.171616375,-3.881798958333333,-0.007679448708775,0.0118682389135614,0.093549647906896,0.14735394655327375,8.548837207288852,-0.03597913467317504
1403638535927829504,64.579725,229.8788460802146,8.997601374999999,0.2043052083333333,-4.0125542916666666,-0.0069813170079773,0.0216420827247296,0.0726056968829641,0.07376179135162311,8.536286261605548,-0.012550945683303283
1403638535977829376,37.446022,230.92029565532076,8.7279185,0.171616375,-3.906315583333333,-0.0202458193231342,0.0551524043630208,0.1096066770252439,0.10582880489314718,8.618248677952417,0.08196241634686885
1403638536027829504,48.951865,227.4465361516993,9.430728416666666,0.3023717083333333,-4.159654041666666,-0.0083775804095727,0.0376991118430775,0.1110029404268393,0.11311535036194349,8.608317261244798,-0.009931416707619434
1403638536077829376,50.779819,229.10893678836223,9.210078791666666,0.196133,-4.16782625,0.0013962634015954,0.0307177948351002,0.1061160185212552,0.042464993956688485,8.63192298854841,0.023605727303612767
1403638536127829504,48.863411,230.2255158407368,9.1201845,0.3350605416666666,-3.881798958333333,-0.025830872929516,0.0223402144255274,0.0670206432765822,0.05922547738152204,8.584828705499561,-0.04709428304884966
1403638536177829376,49.679518,228.3009668222257,8.646196416666667,0.0163444166666666,-3.7919046666666665,0.0034906585039886,0.0195476876223364,0.1172861257340189,0.08586299657489571,8.556022420461169,-0.028806285038392332
1403638536227829504,51.125288,228.62728716023923,8.9240515,-0.1144109166666666,-3.726527,-0.0097738438111682,0.0034906585039886,0.0628318530717958,0.15067033325353724,8.533376470459904,-0.022645950001264126
1403638536277829376,69.387436,230.1587511353871,8.915879291666666,0.465815875,-4.110620791666666,-0.0069813170079773,0.0321140582366956,0.0788888821901436,0.08233382109133124,8.574885064706397,0.041508594246492336
1403638536327829504,31.472683,229.8985856661267,8.915879291666666,-0.3268883333333333,-3.8654545416666655,-0.0062831853071795,0.0209439510239319,0.0760963553869527,0.052597198775962535,8.621757412367712,0.04687234766131532
1403638536377829376,49.620151,228.9995926321227,8.989429166666666,0.171616375,-3.9390044166666662,0.0048869219055841,0.0223402144255274,0.0844739357965255,0.09383946912781935,8.540171208887957,-0.08158620347975543
1403638536427829504,49.957276,229.1805739025129,8.474580041666666,-0.171616375,-3.702010375,-0.007679448708775,0.0104719755119659,0.0684169066781777,0.042831594566215186,8.524062495931538,-0.01610871295641836
1403638536477829376,48.99168,229.49533749392103,9.291800875,-0.0326888333333333,-4.045243125,0.0034906585039886,0.0237364778271228,0.0956440430092892,0.0732727926627013,8.530655718576542,0.006593222645003394
1403638536527829504,50.631761,229.91561204381367,9.16921775,-0.2124774166666666,-3.963521041666666,-0.0090757121103705,0.0223402144255274,0.08307767239493,0.10148442136142934,8.616850669332848,0.08619495075630645
1403638536577829376,49.148083,229.74256418451012,8.793296166666666,-0.220649625,-3.5957716666666664,-0.0104719755119659,-0.0062831853071795,0.0837758040957278,0.08802685308436792,8.54602584543864,-0.07082482389420797
1403638536627829504,61.553002,228.11931677740824,9.193734375,-0.220649625,-3.930832208333333,-0.0118682389135614,0.0342084533390888,0.0677187749773799,0.03133670205691146,8.565521276412696,0.019495430974055594
1403638536677829376,49.833774,229.49272419399304,8.588990958333333,-0.5148491249999999,-3.693838166666666,-0.0328121899374933,0.0328121899374933,0.0460766922526503,0.050796815297640664,8.597739344679939,0.03221806826724283
1403638536727829504,55.960178,229.8543511306135,8.662540833333333,0.4821602916666666,-3.9390044166666662,0.0041887902047863,0.0223402144255274,0.1235693110411985,0.08330535813579516,8.605968636665565,0.00822929198562683
1403638536777829376,32.959938,229.2758400918617,9.357178541666666,-0.0408610416666666,-4.053415333333333,0.0041887902047863,0.0272271363311115,0.0816814089933346,0.08807517291226626,8.586643472284813,-0.019325164380752824
1403638536827829504,61.273337,228.2262030512135,9.430728416666666,0.0081722083333333,-4.159654041666666,-0.0034906585039886,0.0223402144255274,0.0900589894029074,0.02084290399511755,8.58997025725356,0.003326784968747276
1403638536877829376,38.751364,228.37827979197635,8.989429166666666,0.1144109166666666,-4.020726499999999,-0.0104719755119659,0.0006981317007977,0.0614355896702004,0.08271653239233663,8.556800590294714,-0.03316966695884638
1403638536927829504,48.960209,226.54825320492745,8.785123958333333,0.0572054583333333,-3.930832208333333,0.0265290046303138,0.0251327412287183,0.1151917306316257,0.19148943640098273,8.62224518424437,0.06544459394965685
1403638536977829376,51.077842,227.5351441133029,8.662540833333333,0.2778550833333333,-3.9390044166666662,0.0195476876223364,0.0390953752446729,0.0970403064108847,0.06891407912712341,8.559857404137329,-0.06238778010704138
1403638537027829504,66.57672,228.9929044121038,9.161045541666669,-0.4739880833333333,-3.92266,0.0083775804095727,0.0300196631343024,0.1123992038284348,0.04765618324886661,8.52671061082896,-0.03314679330836867
1403638537077829376,44.347047,226.0645344459876,9.152873333333332,-0.4739880833333333,-3.734699208333333,0.0020943951023931,0.028623399732707,0.0488692190558412,0.1714985803427545,8.598881868369954,0.07217125754099385
1403638537127829504,50.201893,227.78303618247324,9.226423208333332,-0.6864655000000001,-3.9880376666666666,-0.0020943951023931,0.0006981317007977,0.0551524043630208,0.22477075622027798,8.486095873394358,-0.11278599497559583
1403638537177829376,45.470238,227.2931273259043,9.087495666666666,-0.3350605416666666,-3.979865458333333,0.0,0.0404916386462684,0.0677187749773799,0.10561646418322536,8.538704625465583,0.052608752071224174
1403638537227829504,45.156717,227.7309574899117,9.046634625,-0.3105439166666667,-3.849110125,0.0160570291183478,0.0062831853071795,0.0788888821901436,0.08965762399860616,8.455448460107284,-0.08325616535829816
1403638537277829376,47.938586,227.0339270043477,9.250939833333334,-0.171616375,-4.069759749999999,0.0118682389135614,0.0265290046303138,0.0719075651821663,0.0725887273100122,8.521403867582693,0.06595540747540873
1403638537327829504,66.282987,227.5916181219356,8.760607333333333,-0.0980665,-3.8164212916666655,-0.0013962634015954,0.0383972435438752,0.08307767239493,0.11128359953213425,8.559574685888876,0.03817081830618285
1403638537377829376,33.394814,228.27849706577345,9.005773583333333,-0.171616375,-3.77556025,0.0153588974175501,0.0,0.0865683308989187,0.13329577175223148,8.505691042028126,-0.053883643860750396
1403638537427829504,61.338186,228.8415324405232,9.022118,0.024516625,-4.143309625,0.0020943951023931,0.0321140582366956,0.0719075651821663,0.14732028338626987,8.636964629824757,0.13127358779663112
1403638537477829376,39.252043,228.4605714028913,8.401030166666667,0.0163444166666666,-4.086104166666667,-0.0055850536063818,0.0307177948351002,0.0705113017805709,0.104083082309121,8.642613656298948,0.005649026474191743
1403638537527829504,48.916816,226.76336898856675,9.430728416666666,0.24516625,-4.192342875,-0.0104719755119659,0.0502654824574366,0.08307767239493,0.14104202506265354,8.575806401648425,-0.06680725465052362
1403638537577829376,51.190377,227.2027997321366,8.3356525,0.220649625,-3.342433208333333,0.0020943951023931,-0.0139626340159546,0.1019272283164688,0.133413852630605,8.5922928252161,0.0164864235676756
1403638537627829504,48.781633,226.67638501669768,7.534776083333333,-0.53936575,-3.2035056666666666,-0.0272271363311115,0.025830872929516,0.0307177948351002,0.1285079359792385,8.663687740841931,0.07139491562583089
1403638537677829376,50.653458,227.12862902801177,8.883190458333333,-0.9479761666666666,-3.718354791666666,-0.0439822971502571,0.0195476876223364,0.0321140582366956,0.09650984159421577,8.591442718195902,-0.07224502264602961
1403638537727829504,49.334526,226.76436980569508,8.3356525,0.1062387083333333,-3.4323274999999995,-0.0251327412287183,0.0188495559215387,0.0607374579694026,0.1151030569595049,8.490040056549795,-0.101402661646107
1403638537777829376,51.103592,227.4730051238877,7.918869874999999,0.612915625,-3.113611375,-0.0237364778271228,0.0083775804095727,0.0509636141582344,0.06659279373426837,8.554326946219575,0.06428688966978058
1403638537827829504,60.629368,226.839146797952,8.597163166666666,0.5230213333333333,-3.514049583333333,0.0027925268031909,0.0293215314335047,0.054454272662223,0.12016980383161263,8.536071288108422,-0.01825565811115304
1403638537877829376,50.000905,223.54697911800676,9.455245041666666,0.5148491249999999,-3.7919046666666665,0.0139626340159546,0.0349065850398865,0.093549647906896,0.024540151253603256,8.547678734135443,0.01160744602702124
1403638537927829504,39.044381,223.4928060764957,8.809640583333332,-0.5720545833333333,-4.086104166666667,-0.0139626340159546,0.0523598775598298,0.0914552528045028,0.09847956595492147,8.59458436445456,0.046905630319116653
1403638537977829376,50.346851,223.22891744502843,8.621679791666667,-0.1470997499999999,-4.086104166666667,0.0195476876223364,-0.0530580092606276,0.0607374579694026,0.019791379790868265,8.59123623241453,-0.0033481320400294834
1403638538027829504,49.95966,221.86540010904224,9.855683249999998,-0.220649625,-4.4211647083333325,0.0083775804095727,0.0851720674973232,0.0886627260013119,0.0755497379312914,8.558390627659282,-0.03284560475524856
1403638538077829376,50.555944,224.87984367877544,8.891362666666666,0.8825985,-4.2168595,0.0300196631343024,-0.0293215314335047,0.0628318530717958,0.13364894640600994,8.668479242891038,0.11008861523175639
1403638538127829504,49.957752,224.19141328354883,8.482752249999999,-0.3023717083333333,-3.6284605,0.0153588974175501,0.0034906585039886,0.0502654824574366,0.13340947760273883,8.550112752626713,-0.11836649026432511
1403638538177829376,49.821854,221.2572180342714,8.760607333333333,-0.7681875833333334,-3.554910625,0.0111701072127637,0.0670206432765822,0.0795870138909414,0.14073235110142499,8.550788941830394,0.0006761892036806216
1403638538227829504,50.122738,218.84832251036127,9.177389958333332,-0.220649625,-4.429336916666666,-0.0202458193231342,0.1389282084587486,0.057246799465414,0.16235167927044672,8.572119894229322,0.02133095239892846
1403638538277829376,49.584627,215.30540845931696,10.435910041666666,0.04903325,-5.262902166666666,-0.0055850536063818,0.0027925268031909,0.0942477796076938,0.02793569338168084,8.570736624084878,-0.0013832701444442819
1403638538327829504,61.527967,222.81237781007167,8.466407833333333,0.4985047083333333,-3.8164212916666655,-0.0216420827247296,0.1158898623324234,0.0656243798749867,0.1044432108360186,8.574288093316634,0.003551469231755533
1403638538377829376,37.880183,223.77936364554523,9.013945791666666,-0.1307553333333333,-3.947176625,-0.0202458193231342,0.0502654824574366,0.0747000919853573,0.08441322245388193,8.518359899580803,-0.05592819373583069
1403638538427829504,61.807871,223.30122496277625,6.676694208333332,0.6537766666666667,-3.0809225416666663,-0.0160570291183478,0.0069813170079773,0.0893608577021096,0.22361569002790618,8.653638612943935,0.1352787133631317
1403638538477829376,38.8031,218.8704805466228,7.273265416666667,0.367749375,-2.778550833333333,-0.0013962634015954,0.1186823891356144,0.0865683308989187,0.16958620778928246,8.522618381278667,-0.13102023166526777
1403638538527829504,50.049305,223.89485554367545,8.172208333333334,-0.2533384583333333,-3.391466458333333,-0.0223402144255274,0.0223402144255274,0.0886627260013119,0.23889721249163892,8.59956339661668,0.07694501533801379
1403638538577829376,61.016083,215.73863881449,11.244958666666667,-0.4086104166666666,-5.140319041666666,-0.0034906585039886,0.046774823953448,0.0816814089933346,0.15007498242560038,8.486555548193497,-0.11300784842318379
1403638538627829504,49.878359,219.53130973282123,7.559292708333333,0.3023717083333333,-2.476179125,-0.0055850536063818,0.0083775804095727,0.0788888821901436,0.21706856092241245,8.643592683456625,0.15703713526312768
1403638538677829376,53.427458,223.4516053596213,10.730109541666666,-0.1552719583333333,-5.066769166666667,0.0055850536063818,0.0747000919853573,0.0586430628670094,0.1003782966776096,8.563424999826767,-0.08016768362985793
1403638538727829504,46.637058,216.34850394733297,6.341633666666666,0.1552719583333333,-3.1544724166666662,0.0272271363311115,-0.0097738438111682,0.1117010721276371,0.20952641860839324,8.742302380815557,0.1788773809887907
1403638538777829376,37.96792,202.0849576465489,8.564474333333333,0.024516625,-2.8439285,0.0307177948351002,-0.0321140582366956,0.0230383461263251,0.22723136623918339,8.846751822349425,0.10444944153386793
1403638538827829504,66.127062,207.08846501582332,8.270274833333334,0.1552719583333333,-2.165635208333333,-0.0083775804095727,0.0230383461263251,0.1165879940332212,0.41900539312827056,8.842777826711497,-0.003973995637927885
1403638538877829376,33.313513,148.61465624715103,7.314126458333333,-0.0081722083333333,-3.661149333333333,0.0111701072127637,0.1270599695451872,0.0747000919853573,0.939252318525134,9.084707503786092,0.24192967707459445
1403638538927829504,50.6742,130.9909884648314,8.539957708333333,-0.6456044583333332,-4.110620791666666,-0.0013962634015954,0.1661553447898601,0.1110029404268393,1.7878064193029575,9.913530529985808,0.828823026199716
1403638538977829376,50.544739,118.14932662997636,10.019127416666668,-0.34323275,-4.339442625,0.0020943951023931,0.2136283004441059,0.1424188669627373,2.5745698776704553,11.043391968425365,1.1298614384395567
1403638539027829504,49.725055,173.55937492926668,11.42474725,0.367749375,-4.314926,-0.0349065850398865,0.3029891581462156,0.1158898623324234,2.7083176370928745,12.315712985762156,1.2723210173367914
1403638539077829376,48.894406,145.34361949645313,12.69961175,0.269682875,-3.906315583333333,0.0097738438111682,0.1787217154042193,0.0886627260013119,3.7839392849508333,15.11279511322267,2.7970821274605147
1403638541427829504,49.738646,1058.58631346548,11.563674791666667,0.7028099166666667,-3.955348833333333,0.0006981317007977,0.0,0.0837758040957278,82.8033319319053,84.96935513519776,69.85656002197508
1403638541577829376,47.508955,888.3867515534492,8.556302125,0.4494714583333333,-3.113611375,0.0390953752446729,0.1242674427419962,-0.0125663706143591,8.711717808738529,92.59566870739457,7.626313572196807
1403638541627829504,49.232245,866.8568296562221,10.2969825,0.0980665,-3.8409379166666655,0.1270599695451872,0.1277581012459849,0.1186823891356144,3.319785659788966,95.43434592562711,2.8386772182325473
1403638541677829376,38.496256,775.0454788346542,8.989429166666666,-0.318716125,-4.2168595,0.1640609496874669,0.0726056968829641,0.0635299847725936,3.4029745566768126,98.36314241781244,2.9287964921853273
1403638541727829504,56.622266,756.010994175077,10.484943291666664,-0.4249548333333333,-4.0125542916666666,0.2869321290278678,0.0356047167406843,0.1626646862858715,3.6104246539027995,101.41593310876378,3.0527906909513405
1403638541777829376,44.797659,656.8199941467832,10.084505083333331,0.24516625,-3.366949833333333,0.3078760800517997,-0.0370009801422797,0.1200786525372098,3.7529356605522097,104.53639402505992,3.120460916296139
1403638541827829504,49.364329,603.1669439362632,10.059988458333333,0.44129925,-2.99102825,0.2925171826342496,0.0502654824574366,0.0670206432765822,3.919311412524383,107.75445905522251,3.2180650301625917
1403638541877829376,49.523353,619.2755651261418,6.791105125,0.3268883333333333,-1.838746875,0.3469714552964727,0.018151424220741,-0.0383972435438752,3.8597788648423386,110.9569803970714,3.202521341848893
1403638541927829504,60.900927,622.3724096038588,7.534776083333333,0.392266,-2.999200458333333,0.3630284844148205,-0.0013962634015954,-0.0740019602845595,3.787396300892338,114.08511563075163,3.1281352336802257
1403638541977829376,39.210081,570.2856111331909,8.360169125,-0.3595771666666666,-3.2770555416666665,0.3818780403363593,-0.0691150383789754,0.0104719755119659,3.8542602238396824,117.26382976682206,3.1787141360704254
1403638542027829504,49.962044,568.9708048532997,9.80665,0.0081722083333333,-3.849110125,0.4712388980384689,-0.0726056968829641,-0.0328121899374933,3.8836116561712646,120.53331695401945,3.2694871871973987
1403638542327829504,60.942173,393.2167534913791,9.921060916666669,-0.2124774166666666,-3.2035056666666666,0.4314453910929983,0.1675516081914556,-0.161268422884276,28.497810796647382,142.30484329378757,21.771526339768116
1403638542477829376,49.881697,308.6431495673104,9.414383999999998,-0.3840937916666667,-3.391466458333333,0.1521927107739055,0.296705972839036,-0.3497639820996636,11.012197774089229,151.832245869679,9.527402575891443
1403638542527829504,49.881935,391.9386463224496,10.730109541666666,0.465815875,-4.257720541666666,0.1654572130890624,0.3532546406036522,-0.3120648702565861,3.448156791595377,154.74252726169212,2.910281392013104
1403638542577829376,50.592661,298.4784211558959,9.888372083333332,1.0869037083333333,-4.028898708333333,0.1396263401595463,0.0370009801422797,-0.0328121899374933,3.8500033235406446,158.167182794965,3.424655533272869
1403638542627829504,60.652256,376.7611739439509,8.915879291666666,-0.7109821249999999,-2.4843513333333336,0.0977384381116824,-0.0111701072127637,-0.0432841654494593,6.248167007094457,162.66535004690255,4.498167251937559
1403638542677829376,50.627231,422.053382533906,8.180380541666665,0.6537766666666667,-3.3506054166666663,0.1682497398922533,-0.0900589894029074,0.1068141502220529,3.4623750388974,165.58476772682707,2.9194176799245213
1403638571427829504,42.71841,619.95223778994,10.34601575,-0.7191543333333333,-3.0564059166666664,-0.1207767842380075,0.0488692190558412,0.0998328332140756,391.50196269427755,519.0536660893953,353.4688983625682
1403638571577829376,49.351454,596.7250527773739,9.487933875,-0.0408610416666666,-3.2443667083333327,-0.200363798128949,0.0453785605518525,0.1179842574348166,12.311221044125114,511.70411720688395,-7.349548882511328
1403638571627829504,50.585747,579.6897597651752,7.395848541666666,-0.1062387083333333,-2.2718739166666664,-0.2708750999095199,-0.0376991118430775,0.1703441349946465,4.311535759455644,509.29427516903615,-2.4098420378477954
1403638571677829376,61.148882,570.9490661758555,10.084505083333331,0.3759215833333333,-4.0125542916666666,-0.2869321290278678,-0.0209439510239319,0.1542871058762987,4.7411046925923594,506.63522180997893,-2.659053359057225
1403638571727829504,50.216675,507.32538351433226,9.218251,0.196133,-3.1299557916666663,-0.3260275042725407,-0.104021623418862,0.1647590813882647,4.928892088452787,503.8095037958559,-2.8257180141230265
1403638571777829376,39.11376,491.4138713096525,9.095667875,-0.1797885833333333,-3.571255041666667,-0.3588396942100341,-0.0593411945678072,0.2241002759560719,4.986561501404114,500.9141313649084,-2.895372430947475
1403638571827829504,49.597263,532.7514341866085,9.822994416666669,-0.4331270416666666,-3.162644625,-0.3553490357060455,-0.0740019602845595,0.2757620218151041,5.307462452953788,498.162529365126,-2.7516019997824515
1403638571877829376,50.228357,543.0594693220116,8.539957708333333,0.8253930416666666,-3.407810875,-0.346273323595675,-0.0335103216382911,0.265290046303138,5.1889044947490675,495.03505142946597,-3.1274779356600106
1403638571927829504,49.625159,561.0338865827403,9.700411291666663,-0.563882375,-3.8409379166666655,-0.4000294645571003,0.0495673507566389,0.3337069529813158,5.452891191910041,492.1911894988699,-2.843861930596063
1403638571977829376,50.746917,523.0337007159071,11.253130874999998,-0.4494714583333333,-4.339442625,-0.364424747816416,-0.0390953752446729,0.3741985916275842,5.472409384593957,489.13123299777936,-3.0599565010905394
1403638572177829376,48.295975,396.2629867162744,10.321499125,0.2615106666666666,-1.9286411666666663,-0.4600687908257052,0.018151424220741,0.0802851455917391,25.615759881714588,479.81914099067797,-9.312092007101398
1403638572277829376,61.585426,408.1338137571627,8.401030166666667,-0.7191543333333333,-3.064578125,-0.4488986836129415,-0.0565486677646162,0.179419847105017,12.059040567096938,473.2924770717926,-6.52666391888539
1403638572327829504,38.066626,395.8560550985686,8.785123958333333,-0.6864655000000001,-3.4241552916666667,-0.486597795456019,-0.0439822971502571,0.2520255439879811,6.0502605063660155,469.75762425353673,-3.5348528182558425
1403638572377829376,61.327695,394.6331091254869,8.5317855,-0.2533384583333333,-2.50069575,-0.460766922526503,-0.08307767239493,0.153588974175501,6.866350211938996,467.39881027218314,-2.3588139813535918
1403638572427829504,37.791014,389.6037592752731,9.667722458333332,0.122583125,-3.366949833333333,-0.3972369377539094,-0.018151424220741,0.0656243798749867,6.115645741167332,463.66631495945006,-3.7324953127330787
1403638572477829376,49.719334,372.2611121559556,8.270274833333334,-0.5311935416666667,-2.3862848333333333,-0.3728023282259888,-0.0370009801422797,0.1235693110411985,6.74015682256937,460.6705524710735,-2.995762488376556
1403638572527829504,50.440788,412.1798750889248,10.672904083333334,-0.7763597916666666,-2.999200458333333,-0.249931148885588,0.0774926187885482,0.085870199198121,6.479737732246516,457.6612317589746,-3.0093207120988836
1403638572577829376,50.481558,437.61646058390687,7.608325958333333,0.7436709583333333,-2.8847895416666667,-0.210835773640915,0.0153588974175501,0.0614355896702004,6.439604844978152,454.8619171070912,-2.799314651883435
1403638572627829504,49.152374,554.3697660561467,10.501287708333331,-0.3268883333333333,-3.92266,-0.1843067690106012,-0.0411897703470661,0.1919862177193762,6.7171573042137735,452.5785875272133,-2.2833295798778863
1403638572677829376,50.652504,405.7649324240952,10.705592916666664,-0.6701210833333332,-3.4404997083333333,-0.1926843494201739,-0.064926248174189,-0.0851720674973232,6.897223757772748,450.407559905283,-2.171027621930307
1403638572727829504,49.774408,443.17675277492754,9.75761675,0.0163444166666666,-4.396648083333333,-0.1277581012459849,0.018151424220741,-0.018151424220741,6.268885953765499,447.8702747132961,-2.537285191986882
1403638572777829376,50.218344,469.44406190020936,10.44408225,-0.8008764166666666,-4.339442625,-0.1445132620651305,-0.0705113017805709,-0.0593411945678072,6.62392672710007,445.8082344354125,-2.062040277883625
1403638572977829376,50.252199,532.1961089279246,9.651378041666666,-1.22583125,-3.3506054166666663,0.0146607657167523,-0.0949459113084915,0.0816814089933346,33.75342964904996,446.8799073699601,1.071672934547621
1403638573077829376,50.798655,559.7797910045238,6.995410333333333,-0.416782625,-2.0267076666666664,0.0090757121103705,-0.0279252680319092,0.0677187749773799,13.77519242108584,445.4813163569912,-1.3985910129688932
1403638573127829504,61.166286,578.4843287241705,9.741272333333333,-0.9643205833333331,-3.2525389166666665,0.0530580092606276,-0.0488692190558412,0.1012290966156711,6.714464085182686,444.98281682854656,-0.49849952844465406
1403638573177829376,39.136172,536.3270146173137,9.36535075,-0.4903325,-3.546738416666667,0.0481710873550434,0.0747000919853573,0.0125663706143591,6.284182247188061,444.0659491828436,-0.9168676457029505
1403638573227829504,49.359321,589.0329613102178,8.646196416666667,-0.4494714583333333,-3.162644625,0.0474729556542457,-0.0663225115757845,0.0726056968829641,6.130270451503003,443.3012362614761,-0.7647129213675044
1403638573277829376,61.335802,531.9555241010366,10.632043041666666,-0.5230213333333333,-2.574245625,0.0356047167406843,0.064926248174189,0.0132645023151569,6.443034428601463,442.95619160076416,-0.34504466071194884
1403638573327829504,39.102793,517.3871307231442,9.062979041666669,-0.6292600416666666,-3.554910625,0.0279252680319092,-0.0342084533390888,0.122173047639603,6.40744069407238,442.8656217883984,-0.09056981236574302
1403638573377829376,49.609661,430.74533866857394,7.763597916666666,0.0653776666666666,-3.8654545416666655,-0.1207767842380075,0.0188495559215387,-0.0356047167406843,6.266092807086979,443.17916015243003,0.31353836403161495
1403638573577829376,39.402008,420.9873663846763,10.198916,-1.1931424166666666,-5.156663458333333,-0.0593411945678072,-0.0691150383789754,0.0565486677646162,31.352755216667077,453.6876160441974,10.508455891767369
1403638573677829376,55.308103,356.1180415895231,8.670713041666666,-0.4821602916666666,-2.7131731666666665,-0.1759291886010284,0.1298524963483781,0.0062831853071795,13.452307929068336,457.73648908421063,4.048873040013234
1403638573727829504,36.763907,311.8507281014219,9.667722458333332,0.0,-4.535575625,-0.1696460032938488,0.1696460032938488,0.1061160185212552,6.77877921489454,460.2206657888941,2.4841767046834775
1403638573777829376,66.381693,282.7470386593199,9.855683249999998,0.7518431666666666,-4.208687291666666,-0.2282890661608583,0.2555162024919699,0.1354375499547599,6.623289887788562,462.74940078661626,2.528734997722154
1403638573827829504,35.599231,234.31926393867244,10.166227166666664,0.3840937916666667,-3.489532958333333,-0.3211405823669566,0.2010619298297467,0.143116998663535,6.800457772361253,465.79402797875264,3.0446271921363746
1403638573877829376,61.470509,207.38724780663173,7.992419749999999,0.4086104166666666,-2.672312125,-0.3490658503988659,0.2422517001768129,0.1542871058762987,6.618765350219243,468.9536066565289,3.159578677776267
1403638573927829504,37.724257,192.24908981262607,9.087495666666666,-0.2778550833333333,-3.064578125,-0.3225368457685521,0.3008947630438224,0.3839724354387525,6.791893396508672,472.60857039159987,3.6549637350709645
1403638588627829504,50.742626,213.32131501645608,8.294791458333332,0.5802267916666666,-3.1299557916666663,-0.018151424220741,0.057246799465414,0.0879645943005142,602.4219399030892,1024.6273145696275,552.0187441780276
1403638588677829376,49.478769,230.4594631804353,8.392857958333332,0.2288218333333333,-2.3617682083333333,0.075398223686155,0.1347394182539622,0.1110029404268393,4.683944411116523,1021.2340700625209,-3.3932445071066013
1403638588727829504,50.530434,219.4423006101314,11.669913499999998,0.7600153749999999,-2.435318083333333,-0.0237364778271228,-0.0272271363311115,0.2143264321449036,4.882621616601921,1017.741227228291,-3.4928428342299185
1403638588777829376,50.127029,229.63947233095024,7.420365166666667,0.907115125,-2.533384583333333,-0.0160570291183478,0.0970403064108847,0.0628318530717958,4.7982810017670285,1014.2802788526833,-3.4609483756076997
1403638588827829504,50.032616,227.08496943636385,8.801468374999999,-0.4086104166666666,-2.8847895416666667,0.0055850536063818,-0.0216420827247296,0.1801179788058148,4.803298313783336,1010.881976379161,-3.3983024735223353
1403638588877829376,60.566664,227.94853325399376,8.523613291666665,1.046042666666667,-2.2228406666666665,0.028623399732707,0.1012290966156711,0.054454272662223,4.811857564762659,1007.3463364729566,-3.535639906204324
1403638588927829504,53.375721,232.60564604609223,7.910697666666666,0.318716125,-2.8766173333333334,-0.0579449311662117,-0.0356047167406843,0.0726056968829641,4.726107297545072,1004.0637390653636,-3.282597407593016
1403638588977829376,35.764694,225.4299823155539,9.136528916666666,-0.0898942916666666,-3.906315583333333,-0.0209439510239319,0.0565486677646162,0.0956440430092892,4.589500651204099,1000.7165985573032,-3.34714050806042
1403638589027829504,60.889006,237.98136860179127,8.057797416666666,0.5720545833333333,-2.10842975,-0.0090757121103705,0.0230383461263251,0.0705113017805709,4.695016814049879,997.2452928253986,-3.4713057319046356
1403638589077829376,39.026975,222.80734735997265,10.035471833333334,-0.0817220833333333,-3.849110125,-0.0188495559215387,0.0125663706143591,0.0691150383789754,4.766386807688904,993.6946591332934,-3.5506336921051798
1403638589127829504,49.131155,236.7206924950711,7.608325958333333,1.054214875,-2.239185083333333,-0.075398223686155,0.0865683308989187,-0.0125663706143591,4.644376104284221,990.216225814823,-3.4784333184703655
1403638589177829376,50.439835,230.4481056735743,10.117193916666666,-0.5965712083333333,-4.56009225,0.0272271363311115,0.0027925268031909,0.1110029404268393,4.537884284685987,986.8647885689148,-3.351437245908187
1403638589227829504,50.684452,234.9565807991188,7.2487487916666655,0.5965712083333333,-3.8245935,-0.0446804288510548,0.0991347015132779,0.028623399732707,4.751168283520079,983.2528558802106,-3.6119326887042007
1403638589277829376,49.184799,238.4040354132894,11.163236583333331,-0.7600153749999999,-3.8082490833333327,-0.0048869219055841,-0.0614355896702004,0.0914552528045028,4.565062938566757,979.8447430911125,-3.4081127890981406
1403638589327829504,51.014185,249.35856890115303,9.275456458333332,0.3268883333333333,-4.069759749999999,-0.0118682389135614,0.1117010721276371,0.0383972435438752,4.677917604058005,976.2752175526784,-3.56952553843405
1403638589377829376,63.942671,238.69124577164763,9.291800875,-0.6537766666666667,-3.636632708333333,-0.0111701072127637,0.0034906585039886,0.0865683308989187,4.659480346468314,972.7575549452862,-3.5176626073922534
1403638589427829504,35.742044,240.5317316963853,10.362360166666663,-0.2369940416666666,-4.028898708333333,0.0,0.0097738438111682,0.0914552528045028,4.740757765381001,969.1302035242194,-3.6273514210668054
1403638589477829376,60.927391,243.37243417037897,11.236786458333333,0.7518431666666666,-4.445681333333333,0.0272271363311115,-0.0383972435438752,0.1186823891356144,4.355170082954615,965.8592612718542,-3.2709422523652165
1403638589527829504,53.064347,242.6183409135614,9.7085835,-0.4331270416666666,-3.28522775,-0.0237364778271228,-0.0593411945678072,0.057246799465414,4.817380275610327,962.1504604262252,-3.708800845628957
1403638589777829376,40.384531,244.8145459329446,6.472389,-0.3350605416666666,-1.887780125,-0.0125663706143591,-0.0048869219055841,0.0795870138909414,29.607728248539146,939.3236877347821,-22.826772691443125
1403638589827829504,65.031052,239.90434229060867,9.340834125,-0.2288218333333333,-3.563082833333333,0.0062831853071795,-0.0502654824574366,0.0488692190558412,4.6855312600324055,935.7955863454985,-3.52810138928362
1403638589877829376,34.409046,242.9009395085021,7.510259458333333,0.4086104166666666,-2.263701708333333,-0.0537561409614253,-0.0041887902047863,-0.0670206432765822,4.521199162551361,932.4871779969016,-3.308408348596913
1403638589927829504,48.956871,239.34785012569787,9.586000375,-0.1879607916666666,-4.045243125,-0.0034906585039886,-0.0223402144255274,0.1354375499547599,4.557399266594974,929.0469032546683,-3.440274742233214
1403638589977829376,50.885201,231.53833898241624,7.232404375,0.612915625,-3.489532958333333,0.0349065850398865,0.0418879020478639,0.1556833692778942,4.684382395477472,925.4790419434503,-3.567861311218053
1403638590027829504,49.129247,249.32911262870243,8.466407833333333,0.63743225,-4.274064958333334,-0.0530580092606276,-0.0663225115757845,0.0488692190558412,4.483119243612956,922.1379532668734,-3.3410886765768737
1403638590077829376,61.990023,249.4549184737812,8.098658458333333,0.1552719583333333,-2.435318083333333,-0.0020943951023931,0.1061160185212552,0.104021623418862,4.695301042165569,918.5177040199682,-3.620249246905246
1403638590127829504,38.645744,248.399245223243,7.959730916666666,0.53936575,-2.745862,-0.0167551608191455,-0.0041887902047863,0.0802851455917391,4.615118082712501,914.9719194159951,-3.545784603973061
