stamp,img_delta,blur,lin_acc.x,lin_acc.y,lin_acc.z,ang_vel.x,ang_vel.y,ang_vel.z,rpe,ate,drift
1403638519577829376,38.750887,311.1606085026402,9.103840083333331,-0.0081722083333333,-3.800076875,-0.0048869219055841,0.018151424220741,0.0774926187885482,0.027234779607460305,246.6716085163026,0.02099647032065377
1403638519627829504,50.360203,311.64135224799344,9.022118,-0.0653776666666666,-3.7919046666666665,-0.0006981317007977,0.0132645023151569,0.0747000919853573,0.02396288797281301,246.69081706736998,0.019208551067379176
1403638519677829376,49.309254,311.93036433446946,8.989429166666666,-0.04903325,-3.77556025,0.0034906585039886,0.0216420827247296,0.0809832772925368,0.018239229300378274,246.70654009248034,0.015723025110361277
1403638519727829504,61.638355,311.2655559642373,8.940395916666665,-0.0653776666666666,-3.7837324583333327,-0.0006981317007977,0.0216420827247296,0.0788888821901436,0.011879665593102736,246.7172352387996,0.01069514631925017
1403638519777829376,56.894541,311.0851508350217,9.046634625,-0.0326888333333333,-3.7837324583333327,-0.0027925268031909,0.0216420827247296,0.0774926187885482,0.00685433944589162,246.72209287219644,0.004857633396852634
1403638519827829504,47.646999,311.5149319455398,9.128356708333332,-0.0653776666666666,-3.8409379166666655,-0.0041887902047863,0.018151424220741,0.0809832772925368,0.003898883518394887,246.71979015622694,-0.0023027159695061528
1403638519877829376,36.056995,310.6502821373276,8.997601374999999,-0.0408610416666666,-3.742871416666666,0.0,0.0195476876223364,0.0802851455917391,0.004365614656750892,246.72455212131393,0.004761965086998998
1403638519927829504,65.790654,311.43696453615814,8.997601374999999,-0.04903325,-3.800076875,-0.0027925268031909,0.0174532925199432,0.0747000919853573,0.004755174539930922,246.7195943903999,-0.004957730914043168
1403638519977829376,32.876968,311.1422051900873,8.907707083333333,-0.0735498749999999,-3.7673880416666665,-0.0020943951023931,0.0195476876223364,0.0781907504893459,0.004885588301412835,246.71521091001213,-0.004383480387758709
1403638520027829504,50.429821,310.39798959199703,9.062979041666669,-0.0572054583333333,-3.832765708333333,0.0,0.0244346095279206,0.0740019602845595,0.006627948809671271,246.70999787782063,-0.0052130321915058175
1403638520077829376,50.06361,311.3218072021861,8.940395916666665,-0.0163444166666666,-3.7673880416666665,-0.0020943951023931,0.0188495559215387,0.0740019602845595,0.004963578255185366,246.70612014514734,-0.003877732673288392
1403638520127829504,61.356545,311.2100384744982,9.062979041666669,-0.0081722083333333,-3.8164212916666655,-0.0034906585039886,0.018151424220741,0.0781907504893459,0.0027136686386597924,246.70427987050752,-0.0018402746398180625
1403638520177829376,38.500309,311.1161523687937,9.079323458333333,-0.04903325,-3.8082490833333327,-0.0020943951023931,0.0188495559215387,0.0760963553869527,0.00356514924442815,246.70167587422313,-0.0026039962843924513
1403638520227829504,50.053119,311.01908893769206,9.030290208333332,-0.0163444166666666,-3.7919046666666665,-0.0034906585039886,0.0209439510239319,0.0816814089933346,0.004035891549839382,246.69909819887403,-0.0025776753491015825
1403638520277829376,48.901797,311.10371087885494,8.940395916666665,-0.0326888333333333,-3.800076875,0.0006981317007977,0.0167551608191455,0.0740019602845595,0.004473059601911747,246.69791450431126,-0.001183694562769233
1403638520327829504,62.026262,310.9769488422468,9.038462416666666,-0.024516625,-3.7837324583333327,-0.0006981317007977,0.0230383461263251,0.0837758040957278,0.009872544303863126,246.69212382194385,-0.005790682367404543
1403638520377829376,54.556608,311.08651907339123,9.103840083333331,0.0326888333333333,-3.8164212916666655,-0.0013962634015954,0.0244346095279206,0.0740019602845595,0.009448011016718636,246.70239905893573,0.010275236991873271
1403638520427829504,33.759833,310.73321350192055,9.1201845,-0.0326888333333333,-3.832765708333333,-0.0006981317007977,0.0174532925199432,0.0788888821901436,0.0021007662894356074,246.7023692663352,-2.9792600514610967e-05
1403638520477829376,49.58558,311.5349610142429,8.989429166666666,-0.0163444166666666,-3.77556025,-0.0027925268031909,0.0174532925199432,0.0767944870877505,0.005062935415630914,246.70373208747552,0.0013628211403045043
1403638520527829504,51.083327,310.7887182679509,8.989429166666666,-0.0326888333333333,-3.8245935,-0.0048869219055841,0.018151424220741,0.0781907504893459,0.0008686116061429052,246.70128296876945,-0.0024491187060675657
1403638520577829376,48.963785,311.43454249289,8.981256958333333,-0.0980665,-3.7837324583333327,-0.0027925268031909,0.0230383461263251,0.0809832772925368,0.010094505392504519,246.69581737593938,-0.005465592830063315
1403638520627829504,61.902284,311.1947435249914,8.964912541666667,-0.0980665,-3.7919046666666665,-0.0006981317007977,0.018151424220741,0.0809832772925368,0.006094032431369347,246.70107846796182,0.005261092022436742
1403638520677829376,38.051367,310.857309553174,9.046634625,-0.024516625,-3.8164212916666655,-0.0006981317007977,0.0223402144255274,0.0788888821901436,0.0036060870515826878,246.69829615342493,-0.0027823145368870428
1403638520727829504,61.992646,310.6353962404432,9.079323458333333,0.0326888333333333,-3.8082490833333327,-0.0006981317007977,0.0167551608191455,0.0767944870877505,0.003342965365311425,246.6992509978125,0.0009548443875644352
1403638520777829376,49.653768,311.2584974654062,9.005773583333333,-0.0408610416666666,-3.7919046666666665,-0.0034906585039886,0.0223402144255274,0.0802851455917391,0.004248344337055287,246.69801817898667,-0.0012328188258265982
1403638520827829504,38.86056,311.207037533964,9.022118,-0.0163444166666666,-3.7919046666666665,-0.0034906585039886,0.0132645023151569,0.0747000919853573,0.0022053745642560546,246.70045282900287,0.0024346500161982476
1403638520877829376,49.117326,311.9717357213101,8.97308475,-0.0653776666666666,-3.7919046666666665,-0.0006981317007977,0.0265290046303138,0.0795870138909414,0.005743626448330486,246.70255425497237,0.0021014259694993598
1403638520927829504,50.039768,311.04127140800966,9.030290208333332,-0.0653776666666666,-3.8164212916666655,-0.0013962634015954,0.0202458193231342,0.0760963553869527,0.006743844304652632,246.7111460759662,0.008591820993842703
1403638520977829376,50.786019,311.0283771401187,9.054806833333332,-0.0572054583333333,-3.7919046666666665,-0.0020943951023931,0.0230383461263251,0.0733038285837618,0.005419721391502479,246.71533035766302,0.004184281696808512
1403638521027829504,49.046278,311.26984878235345,9.103840083333331,0.0163444166666666,-3.857282333333333,0.0041887902047863,0.0188495559215387,0.0767944870877505,0.0026455774025179505,246.71299902630105,-0.0023313313619723885
1403638521077829376,61.705589,310.48921529115694,9.038462416666666,-0.0163444166666666,-3.800076875,-0.0020943951023931,0.0216420827247296,0.0774926187885482,0.008677784563093224,246.72370740127744,0.010708374976388768
1403638521127829504,39.453745,310.65267666313747,9.161045541666669,0.0408610416666666,-3.9144877916666654,0.0209439510239319,0.0349065850398865,0.0949459113084915,0.008742939391462484,246.72012283185535,-0.0035845694220881796
1403638521177829376,71.44928,309.010862147163,8.915879291666666,-0.04903325,-3.7837324583333327,0.0020943951023931,0.0251327412287183,0.0565486677646162,0.008478732822203749,246.72414587350215,0.004023041646803449
1403638521227829504,29.007912,310.84340517408543,9.26728425,0.0081722083333333,-3.800076875,0.0125663706143591,0.0244346095279206,0.0635299847725936,0.013051956313179099,246.73084510793285,0.006699234430698198
1403638521277829376,49.674272,310.1378187447905,9.022118,0.024516625,-3.8409379166666655,0.0062831853071795,0.0265290046303138,0.0663225115757845,0.011031995888362702,246.7354763872211,0.00463127928824747
1403638521327829504,60.390234,310.1084147291298,9.005773583333333,-0.0572054583333333,-3.849110125,-0.0020943951023931,0.0300196631343024,0.0837758040957278,0.018472799299984244,246.73991240514601,0.004436017924916769
1403638521377829376,39.515734,311.4102031693066,9.095667875,0.0653776666666666,-3.7837324583333327,0.0013962634015954,0.0146607657167523,0.0802851455917391,0.0033153183230368736,246.74639408873782,0.006481683591800902
1403638521427829504,50.084829,310.8568774487665,8.964912541666667,-0.1389275416666666,-3.800076875,-0.0048869219055841,0.025830872929516,0.0788888821901436,0.004051781119199036,246.7417894049846,-0.0046046837532287554
1403638521477829376,48.79427,309.8043270540772,8.809640583333332,-0.0163444166666666,-3.7673880416666665,-0.0013962634015954,0.0272271363311115,0.1026253600172665,0.013226284665482936,246.73478853277,-0.007000872214575793
1403638521527829504,50.014496,313.850329457211,9.152873333333332,-0.3105439166666667,-3.759215833333333,0.0104719755119659,0.0342084533390888,0.1277581012459849,0.021700889484025,246.7345471077977,-0.0002414249723017292
1403638521577829376,66.843748,309.356559998168,9.161045541666669,0.269682875,-3.751043625,-0.0041887902047863,0.0111701072127637,0.0195476876223364,0.04198249868794594,246.74715466603237,0.012607558234662974
1403638521627829504,33.886432,311.761822103939,8.9240515,-0.196133,-3.955348833333333,0.0160570291183478,0.018151424220741,0.0795870138909414,0.049923817070270854,246.7301103821987,-0.01704428383368395
1403638521677829376,49.425602,310.61969623308374,9.144701125,-0.1144109166666666,-3.734699208333333,-0.0048869219055841,0.0349065850398865,0.085870199198121,0.024127958610739256,246.7472354817156,0.01712509951690322
1403638521727829504,50.055742,313.3446106651164,9.144701125,0.269682875,-3.7919046666666665,-0.0111701072127637,0.0146607657167523,0.0760963553869527,0.020033322581564306,246.7494618556124,0.0022263738968035796
1403638521777829376,49.815417,313.20258519363927,8.989429166666666,-0.1634441666666666,-3.849110125,0.0146607657167523,0.028623399732707,0.0760963553869527,0.04160155296020838,246.73761493420287,-0.011846921409528477
1403638521827829504,61.718225,314.6628629296877,9.128356708333332,-0.0572054583333333,-3.751043625,-0.0013962634015954,0.0209439510239319,0.085870199198121,0.012106849428547665,246.75245010862335,0.0148351744204831
1403638521877829376,39.13641,312.8332069323216,9.128356708333332,-0.171616375,-3.702010375,0.0244346095279206,0.007679448708775,0.0970403064108847,0.024664774987260753,246.77197629581872,0.019526187195367584
1403638521927829504,60.786009,310.70445917257985,9.7085835,-0.4494714583333333,-3.702010375,0.0314159265358979,0.0411897703470661,0.0083775804095727,0.019198183373324573,246.80164879812276,0.029672502304038062
1403638521977829376,50.047397,301.22930278046834,8.580818749999999,-0.2288218333333333,-3.530394,0.1082104136236484,-0.0230383461263251,0.0656243798749867,0.07793952327614753,246.82334288898238,0.021694090859625703
1403638522027829504,55.339575,302.833192179012,9.577828166666666,0.0326888333333333,-4.274064958333334,-0.0300196631343024,-0.0509636141582344,0.0013962634015954,0.06967218056603479,246.86768623791306,0.04434334893068126
1403638522077829376,33.862591,284.9608307711831,10.002783,-0.3840937916666667,-4.26589275,0.0314159265358979,-0.0991347015132779,0.028623399732707,0.30312858295767814,246.88936315417234,0.021676916259281143
1403638522127829504,49.314737,188.0252569241761,10.223432625,0.04903325,-4.3312704166666665,0.0900589894029074,0.0069813170079773,0.1375319450571531,0.8022946699966701,246.80982532350177,-0.0795378306705743
1403638522177829376,68.226815,117.61793413282636,10.256121458333332,0.1470997499999999,-4.323098208333334,0.0788888821901436,0.1347394182539622,0.1186823891356144,1.704523244668251,247.1955510098902,0.3857256863884402
1403638522227829504,43.41197,100.65792041746906,10.435910041666666,-0.2369940416666666,-3.97169325,0.1207767842380075,0.2164208272472968,0.1019272283164688,1.991176703541598,247.1438693261454,-0.05168168374481752
1403638522277829376,39.127588,96.38356731800276,10.34601575,0.220649625,-4.094276375,0.1340412865531645,0.2429498318776106,0.124965574442794,2.0298144132396825,246.74069252400542,-0.4031768021399671
1403638522327829504,49.394608,105.11901592794386,9.798477791666668,-0.1879607916666666,-3.97169325,0.1193805208364121,0.171740398396242,0.0893608577021096,2.5460289365845714,247.0671440208767,0.32645149687127173
1403638522377829376,49.759626,130.44781686189074,9.741272333333333,-0.2369940416666666,-3.693838166666666,0.1605702911834783,0.0537561409614253,0.1242674427419962,2.086476481783485,245.54448842248152,-1.5226555983951755
1403638522427829504,61.478615,149.19309254590414,9.528794916666666,-0.367749375,-3.612116083333333,0.1954768762233649,-0.0579449311662117,0.1905899543177807,2.1622688886012744,244.7931623910784,-0.7513260314031243
1403638522477829376,39.187193,198.80715837477007,9.177389958333332,-0.392266,-3.832765708333333,0.1319468914507713,-0.1228711793404008,0.2017600615305445,2.018530583533134,243.73964317339946,-1.0535192176789394
1403638522527829504,48.987388,184.74801981205127,9.144701125,-0.5720545833333333,-3.4813607499999994,0.1591740277818828,-0.0998328332140756,0.2520255439879811,2.455845621066171,243.6180046538396,-0.12163851955986615
1403638522577829376,50.328732,192.34337318688657,9.373522958333332,-0.2860272916666666,-3.5222217916666665,0.1494001839707146,0.0020943951023931,0.1710422666954443,2.449551047894552,243.41055773151092,-0.20744692232867123
1403638522627829504,49.705267,182.4866083118183,9.259112041666668,-0.8907707083333333,-3.28522775,0.1256637061435917,0.1347394182539622,0.0132645023151569,2.565425068931137,243.25556129693365,-0.15499643457727075
1403638522677829376,50.148249,153.39861241955552,9.226423208333332,-0.8907707083333333,-3.742871416666666,0.1047197551196597,0.2038544566329376,-0.075398223686155,2.6788818538633503,243.11363711754544,-0.14192417938821222
1403638522727829504,50.677776,139.85477089755204,9.479761666666668,-0.3759215833333333,-3.832765708333333,0.1549852375770964,0.2254965393576673,0.0188495559215387,2.5589893617102786,242.7352032905726,-0.378433826972838
1403638522777829376,50.248384,147.76532410736337,9.193734375,-0.5802267916666666,-3.391466458333333,0.2031563249321399,0.2038544566329376,0.1263618378443894,2.581133702150721,242.28619829874899,-0.44900499182361386
1403638522827829504,60.526848,160.03669248501205,9.022118,-0.3268883333333333,-3.57942725,0.2115339053417127,0.1954768762233649,0.2918190509334519,2.6100642149608233,241.85874219463818,-0.4274561041108029
1403638522877829376,39.522886,180.17581254336565,8.760607333333333,-0.4086104166666666,-3.718354791666666,0.1193805208364121,0.2143264321449036,0.3295181627765294,2.605706297685369,241.3477127660836,-0.5110294285545933
1403638522927829504,49.729348,216.0148683614958,8.433719,-0.3514049583333333,-2.89296175,0.0809832772925368,0.2010619298297467,0.1926843494201739,2.6597915680485595,241.06586286985615,-0.28184989622744183
1403638522977829376,61.025858,269.491990763615,7.878008833333333,-0.7109821249999999,-2.680484333333333,0.0237364778271228,0.1200786525372098,0.1514945790731078,2.3939081398113187,240.8074634993155,-0.2583993705406442
1403638523027829504,39.200782,345.7369985065237,7.436709583333332,-0.7109821249999999,-2.778550833333333,-0.0216420827247296,0.1047197551196597,0.0621337213709981,2.24028492093344,240.80469710614145,-0.0027663931740562475
1403638523077829376,65.843583,493.5027354995423,7.657359208333333,-0.9398039583333332,-2.574245625,0.0146607657167523,0.0621337213709981,0.0628318530717958,1.7292429919761698,240.78557394423208,-0.019123161909362807
1403638523127829504,44.656991,545.0042424544879,7.060788,-0.5066769166666666,-2.6886565416666666,-0.0314159265358979,0.0411897703470661,0.0551524043630208,1.3307070257442544,240.79959232342057,0.014018379188485142
1403638523177829376,38.837195,541.0093925889068,7.0689602083333325,-0.2369940416666666,-2.4189736666666666,-0.0705113017805709,0.0956440430092892,0.0272271363311115,0.8564240544294565,241.00858809591585,0.20899577249528534
1403638523227829504,50.785065,527.8477540209997,6.725727458333332,-0.6701210833333332,-1.846919083333333,-0.2136283004441059,0.1417207352619395,-0.0886627260013119,0.38847830606716344,241.34136315936482,0.33277506344896324
1403638523277829376,60.415268,563.4427088107528,7.256920999999999,-1.184970208333333,-1.96133,-0.1333431548523667,0.1075122819228507,-0.0055850536063818,0.6389173812514614,241.79458676828745,0.45322360892262736
1403638523327829504,38.729667,615.8109871680145,7.79628675,-0.661948875,-2.476179125,-0.0586430628670094,0.046774823953448,0.0600393262686049,1.1402198031262163,242.2002787242554,0.40569195596796703
1403638523377829376,50.652981,526.4901852329957,8.18855275,-0.2124774166666666,-2.582417833333333,-0.046774823953448,-0.0328121899374933,0.0139626340159546,1.59083815558453,242.61581253683437,0.41553381257895694
1403638523427829504,48.876524,377.4202881118409,8.098658458333333,-0.44129925,-3.293399958333333,-0.0397935069454707,-0.1172861257340189,-0.0160570291183478,1.9391940694576786,243.13509465056495,0.5192821137305828
1403638523477829376,58.007479,245.6558717545359,8.97308475,-0.73549875,-3.0809225416666663,-0.0684169066781777,-0.2443460952792061,-0.0502654824574366,2.0936052589950913,243.7730535570164,0.6379589064514448
1403638523527829504,42.320728,138.0429960205361,8.907707083333333,-0.5066769166666666,-3.178989041666666,-0.0621337213709981,-0.3274237676741362,-0.0621337213709981,2.210205615928792,244.45181025940457,0.6787567023881707
1403638523577829376,49.834251,124.98196332379776,9.07115125,-0.4249548333333333,-3.571255041666667,-0.0970403064108847,-0.3567452991076409,-0.0558505360638185,2.3468149111511214,245.13123292906184,0.6794226696572707
1403638523627829504,50.165892,129.74493643961816,9.340834125,-0.4576436666666666,-3.603943875,-0.0551524043630208,-0.2806489437206881,0.0,2.3641833485036257,245.8225512196928,0.6913182906309601
1403638523677829376,50.783634,133.07701630142924,9.26728425,-0.6456044583333332,-3.726527,-0.0488692190558412,-0.2017600615305445,-0.0188495559215387,2.3260739705265054,246.49613778563113,0.6735865659383364
1403638523727829504,49.019337,157.31886449852695,9.112012291666666,-0.318716125,-3.8409379166666655,-0.0160570291183478,-0.1165879940332212,-0.0027925268031909,2.2807078844509063,247.10306600452458,0.6069282188934437
1403638523777829376,50.625801,191.8278738669645,9.594172583333334,-0.612915625,-4.192342875,-0.0118682389135614,-0.0523598775598298,0.0160570291183478,3.0225376440026626,247.86249839163168,0.7594323871070969
1403638523827829504,49.461842,206.9164818713336,9.65955025,0.1307553333333333,-4.200515083333333,-0.0139626340159546,0.0195476876223364,-0.0202458193231342,2.1780897728360986,248.47072511239733,0.6082267207656571
1403638523877829376,61.845064,186.39336266022548,9.80665,-0.5720545833333333,-3.996209875,-0.1193805208364121,0.0439822971502571,-0.1033234917180643,2.3294607897124253,248.99680014410578,0.5260750317084444
1403638523927829504,39.1891,168.49692968369774,10.550320958333334,-0.3514049583333333,-4.257720541666666,-0.0802851455917391,0.0055850536063818,-0.1263618378443894,2.0356859041363315,249.6033496582434,0.6065495141376118
1403638523977829376,66.22982,169.41512042550852,11.106031125,-0.3595771666666666,-4.192342875,-0.0628318530717958,-0.0614355896702004,-0.1577777643802873,1.8315312877040766,250.08458307164827,0.4812334134048797
1403638524027829504,33.395529,156.41829245453778,11.506469333333332,0.0,-4.527403416666666,-0.0062831853071795,-0.124965574442794,-0.1207767842380075,1.3433781228648995,250.406238449952,0.32165537830374547
1403638524077829376,49.428463,228.16868980197037,11.686257916666666,0.220649625,-4.813430708333333,0.0195476876223364,-0.1647590813882647,-0.0747000919853573,0.7231088910869291,250.49033478189813,0.08409633194611388
1403638524127829504,50.597906,318.08913896755524,11.678085708333333,0.0898942916666666,-4.870636166666666,0.0767944870877505,-0.1521927107739055,0.0516617458590321,0.2944555827908016,250.46690891095983,-0.023425870938297066
1403638524177829376,49.329996,165.41156602376637,11.498297125,0.5883989999999999,-4.641814333333333,0.1061160185212552,-0.0886627260013119,0.114493598930828,0.9900599350510655,250.13285579035232,-0.334053120607507
1403638524227829504,50.091982,163.49155666400634,10.632043041666666,0.392266,-4.486542375,0.1207767842380075,0.0062831853071795,0.1389282084587486,1.9193916040769148,249.911096177787,-0.22175961256533583
1403638524277829376,66.749573,150.22164836476952,10.051816249999998,-0.0163444166666666,-4.486542375,0.1347394182539622,0.085870199198121,0.1864011641129944,2.5732844639081454,249.9330689848673,0.021972807080317125
1403638524327829504,33.818722,139.8036826823457,9.773961166666666,0.04903325,-4.094276375,0.1382300767579508,0.1514945790731078,0.208043246837724,2.639434572792572,249.66201342578617,-0.2710555590811339
1403638524377829376,49.81184,130.32545371473176,9.430728416666666,-0.0898942916666666,-3.9144877916666654,0.0851720674973232,0.2178170906488923,0.2052507200345331,2.9900898634459554,249.6030261065488,-0.058987319237360225
1403638524427829504,49.538612,127.06009038323155,9.062979041666669,-0.0653776666666666,-3.857282333333333,0.0809832772925368,0.2792526803190927,0.1500983156715123,2.8261576386562393,249.14336130826152,-0.45966479828729234
1403638524477829376,50.343275,108.43001158018596,8.891362666666666,-0.4249548333333333,-3.3996386666666667,0.0809832772925368,0.3323106895797203,0.1298524963483781,3.001784880202359,248.84997983899146,-0.29338146927005937
1403638524527829504,49.596548,116.5173524229112,8.621679791666667,-0.196133,-3.38329425,0.0013962634015954,0.3448770601940795,0.0984365698124801,2.9217354040247394,248.4469331523181,-0.4030466866733491
1403638524577829376,70.391417,149.46871390829358,8.719746291666667,-0.171616375,-3.195333458333333,-0.0586430628670094,0.2946115777366427,0.1382300767579508,2.7928023363950305,248.0039598179619,-0.44297333435619635
1403638524627829504,44.050455,173.1209764382254,7.976075333333333,-0.3268883333333333,-2.9583394166666666,-0.1850049007113989,0.2408554367752175,0.0949459113084915,2.771051552286712,247.63467023059613,-0.36928958736578466
1403638524677829376,36.649942,236.72829806833087,7.861664416666666,-0.34323275,-3.0400615,-0.2380629099720265,0.1773254520026238,0.0146607657167523,3.6226126482983694,247.0917229774275,-0.5429472531686201
1403638524727829504,67.756176,294.9702289893175,7.591981541666666,0.2124774166666666,-2.827584083333333,-0.2932153143350474,0.1500983156715123,0.0083775804095727,2.3166677985612045,246.59556917800262,-0.4961537994248886
1403638524777829376,32.953263,322.4134708264356,7.910697666666666,-0.2860272916666666,-2.680484333333333,-0.3008947630438224,0.0774926187885482,0.0069813170079773,2.0891586298415414,246.18279474282807,-0.4127744351745548
1403638524827829504,48.755169,443.7964072424468,7.739081291666666,-0.0817220833333333,-2.974683833333333,0.0153588974175501,0.0705113017805709,0.1480039205691191,1.7331349169201236,245.8261798019088,-0.3566149409192576
1403638524877829376,50.474643,721.1954059461414,7.338643083333332,0.4576436666666666,-2.909306166666666,0.0656243798749867,0.075398223686155,0.1026253600172665,1.2968880763023805,245.3410004785535,-0.485179323355311
1403638524927829504,49.299002,693.6083286158109,7.322298666666667,-0.0081722083333333,-2.8602729166666667,0.1780235837034216,0.0719075651821663,0.1319468914507713,0.9853348439388742,245.04719438918522,-0.29380608936827457
1403638524977829376,62.028885,726.8262354435403,7.183371125,0.0,-2.329079375,0.0747000919853573,0.0900589894029074,0.0614355896702004,0.46789396359429414,244.82945151122757,-0.21774287795764735
1403638525027829504,37.953377,951.3977832528516,6.946377083333333,0.0980665,-2.190151833333333,-0.0439822971502571,0.0914552528045028,-0.046774823953448,0.15578212966640728,244.74156316684565,-0.08788834438192339
1403638525077829376,50.924778,935.7032310115056,7.101649041666666,-0.2615106666666666,-2.3617682083333333,-0.0293215314335047,0.0963421747100869,-0.0460766922526503,0.7000895421632596,244.75896497609529,0.01740180924963397
1403638525127829504,50.140619,986.8364069152668,7.992419749999999,0.4086104166666666,-2.459834708333333,0.025830872929516,0.0460766922526503,-0.0041887902047863,1.2839175182694675,244.7648392774846,0.00587430138932632
1403638525177829376,48.862696,657.6643562357572,8.074141833333334,0.318716125,-2.803067458333333,0.025830872929516,-0.0202458193231342,-0.028623399732707,1.7231316798278007,244.8605727649303,0.09573348744569898
1403638525227829504,49.90673,506.7964242575047,8.253930416666666,0.0898942916666666,-2.8847895416666667,0.0795870138909414,-0.1193805208364121,0.0279252680319092,2.0540098113041756,245.02352758244163,0.16295481751132002
1403638525277829376,61.764241,366.7530589677573,8.409202375,0.0817220833333333,-2.99102825,0.0670206432765822,-0.2254965393576673,0.0055850536063818,2.5043189911292805,245.24424569002585,0.22071810758421861
1403638525327829504,53.684711,162.1535427652365,8.9240515,0.0,-3.489532958333333,0.1375319450571531,-0.314857397059777,0.0698131700797731,2.5398011244975374,245.52211497738,0.2778692873541502
1403638525377829376,34.630537,128.23471225001526,9.332661916666666,0.0,-3.636632708333333,0.1270599695451872,-0.4056145181634821,0.114493598930828,2.7871440947974984,245.62538359804824,0.1032686206682456
1403638525427829504,49.965382,119.92078430350008,9.250939833333334,0.0572054583333333,-3.67749375,0.210835773640915,-0.4384267081009756,0.2010619298297467,2.8371907450992326,245.67508978990574,0.049706191857495696
1403638525477829376,51.124572,113.82179078001906,9.36535075,0.34323275,-4.151481833333333,0.1556833692778942,-0.3735004599267865,0.1884955592153876,2.437679803311748,246.37347143815612,0.6983816482503755
1403638525527829504,48.692704,117.35809710941112,9.749444541666666,-0.1879607916666666,-4.208687291666666,0.0767944870877505,-0.2764601535159017,0.1647590813882647,2.3020642439761216,247.4844316179793,1.110960179823195
1403638525577829376,50.302267,157.5296535977122,9.7085835,0.122583125,-4.241376125,0.0160570291183478,-0.1410226035611418,0.1626646862858715,2.3087584697680645,247.7783124990648,0.29388088108549937
1403638525627829504,51.251173,178.99641846954933,9.831166624999998,-0.269682875,-4.143309625,-0.0356047167406843,-0.0621337213709981,0.1347394182539622,2.1859911005213934,247.92281728033097,0.14450478126616417
1403638525677829376,49.882173,235.5107102022659,9.684066875,0.0735498749999999,-4.527403416666666,-0.1123992038284348,0.0376991118430775,0.1110029404268393,2.1554517496719736,248.88627097922767,0.9634536988967
1403638525727829504,56.273222,262.5295608201993,9.839338833333333,-0.3759215833333333,-4.274064958333334,-0.1075122819228507,0.124965574442794,0.1759291886010284,1.8507181212150552,249.1010126084901,0.21474162926242002
1403638525777829376,44.434071,222.06777978906584,9.888372083333332,-0.1470997499999999,-4.323098208333334,-0.1577777643802873,0.1452113937659282,0.0977384381116824,1.89881785677851,249.0531573288316,-0.04785527965850633
1403638525827829504,48.152923,233.28213604513135,9.749444541666666,0.1797885833333333,-4.56009225,-0.1815142422074102,0.1759291886010284,0.0488692190558412,2.135793339271194,248.68256727756068,-0.37059005127090927
1403638525877829376,50.758839,238.86565204949437,9.724927916666667,0.7600153749999999,-4.748053041666666,-0.2017600615305445,0.1256637061435917,-0.0083775804095727,1.5212893301042254,248.64413867469827,-0.038428602862410344
1403638525927829504,49.383879,248.0986059006349,9.945577541666664,1.054214875,-4.535575625,-0.1500983156715123,0.0460766922526503,0.0,1.6997508097040086,248.44349263888557,-0.2006460358126958
1403638525977829376,62.199592,271.3296453119619,9.912888708333332,1.32389775,-4.151481833333333,-0.0956440430092892,-0.0111701072127637,0.0083775804095727,0.9380822936308748,248.78764416814704,0.34415152926146675
1403638526027829504,37.775994,288.98112845770106,9.586000375,1.1359369583333332,-4.339442625,-0.0928515162060983,-0.054454272662223,0.0872664625997164,1.0413375300001655,249.23135779587065,0.44371362772361067
1403638526077829376,50.056696,254.2721687073288,9.635033625,1.0296982499999998,-4.323098208333334,-0.1340412865531645,-0.0691150383789754,0.1989675347273535,1.1861180127009365,249.95375394964458,0.7223961537739285
1403638526127829504,61.662674,220.7546258938116,9.651378041666666,0.8989429166666666,-4.396648083333333,-0.1347394182539622,-0.0565486677646162,0.2310815929640492,1.57600074903653,251.60591670410128,1.6521627544566968
1403638526177829376,38.210868,189.08267232942964,9.414383999999998,0.5475379583333333,-4.314926,-0.1382300767579508,-0.0034906585039886,0.2094395102393195,1.6612763176538659,252.9200825457043,1.3141658416030282
1403638526227829504,50.99392,172.15934265016227,9.022118,0.612915625,-4.396648083333333,-0.1780235837034216,0.0886627260013119,0.1738347934986352,2.0163864841178887,254.71506507745895,1.7949825317546413
1403638526277829376,48.891783,164.2078928191772,8.850501625,0.220649625,-4.184170666666667,-0.1242674427419962,0.1514945790731078,0.1961750079241626,2.0754079407247623,256.3955013477036,1.6804362702446554
1403638526327829504,50.814151,167.80309719267015,8.605335375,0.44129925,-4.118792999999999,-0.1396263401595463,0.1905899543177807,0.1954768762233649,1.6459886827967003,257.0246489312075,0.6291475835038796
1403638526377829376,49.751997,180.01261661333635,8.736090708333332,0.2778550833333333,-3.8899711666666654,-0.1577777643802873,0.2094395102393195,0.2129301687433081,2.3100546518789726,258.93171549783955,1.9070665666320679
1403638526427829504,49.078942,184.7371882724719,8.539957708333333,0.2043052083333333,-3.5957716666666664,-0.1396263401595463,0.2045525883337354,0.2597049926967562,2.3849661239941145,260.93670366293094,2.0049881650913903
1403638526477829376,50.009727,189.83326427387,8.842329416666665,0.5720545833333333,-3.661149333333333,-0.1626646862858715,0.1947787445225671,0.239459173373622,2.4476873439383207,263.06951435855217,2.132810695621231
1403638526527829504,50.027132,191.36122497214757,8.785123958333333,0.5230213333333333,-3.505877375,-0.1368338133563554,0.210835773640915,0.2408554367752175,2.6000128362469175,265.4217650745506,2.352250715998423
1403638526577829376,60.734987,183.1644829690455,9.005773583333333,0.4739880833333333,-3.554910625,-0.15079644737231,0.2157226955464991,0.1884955592153876,2.8318945036552776,268.12026826522026,2.698503190669669
1403638526627829504,40.277482,196.31631291361217,8.825985,0.2533384583333333,-3.5957716666666664,-0.1787217154042193,0.1912880860185785,0.1542871058762987,3.037956735057811,271.1302860530904,3.01001778787014
1403638526677829376,49.865484,239.54117914678272,8.866846041666665,0.122583125,-3.530394,-0.1689478715930511,0.1542871058762987,0.1256637061435917,3.092175436478467,273.70351133655026,2.5732252834598626
1403638526727829504,60.883045,264.9359862093073,8.997601374999999,0.2615106666666666,-3.2035056666666666,-0.228987197861656,0.1179842574348166,0.0349065850398865,3.259905905526929,276.2912064198981,2.587695083347853
1403638526777829376,38.561344,272.34459928883376,9.079323458333333,-0.5148491249999999,-3.2770555416666665,-0.2199114857512855,0.0893608577021096,-0.0020943951023931,3.3678179412773726,279.1514868416681,2.8602804217699713
1403638526827829504,50.566197,338.4298187688426,9.299973083333333,-0.2941994999999999,-3.342433208333333,-0.1466076571675237,0.0195476876223364,0.0579449311662117,3.386416477895687,282.04399936396294,2.892512522294851
1403638526877829376,49.159288,337.13955835165405,9.013945791666666,-0.63743225,-3.2280222916666665,-0.1123992038284348,-0.0516617458590321,0.1110029404268393,3.370410095024097,285.01457682343846,2.970577459475521
1403638526927829504,50.909996,290.431196135615,9.103840083333331,-0.3840937916666667,-3.211677875,-0.1668534764906579,-0.114493598930828,0.132645023151569,3.308919157809816,287.981176386369,2.9665995629305257
1403638526977829376,49.735785,218.4541165672753,9.316317499999998,-0.7109821249999999,-3.2443667083333327,-0.2317797246648469,-0.1410226035611418,0.1773254520026238,3.309395283103738,291.42794383252823,3.4467674461592424
1403638527027829504,60.212373,188.93369260981476,9.504278291666663,-0.6292600416666666,-3.293399958333333,-0.3183480555637657,-0.153588974175501,0.1989675347273535,3.164922447974218,294.1714861723971,2.7435423398688954
1403638527077829376,39.064408,198.11818831169452,9.349006333333334,-0.8008764166666666,-3.563082833333333,-0.3099704751541929,-0.1186823891356144,0.2373647782712288,3.045907612701203,296.80699419919523,2.6355080267981066
1403638527127829504,65.800905,228.00436321607185,9.496106083333332,-1.2340034583333332,-3.342433208333333,-0.3099704751541929,-0.0453785605518525,0.2192133540504878,2.970298380090372,299.50801432079004,2.7010201215948086
1403638527177829376,45.792818,254.1375815007912,9.054806833333332,-1.397447625,-3.3506054166666663,-0.317649923862968,0.0383972435438752,0.2268928027592628,2.74221769672287,301.8308702064091,2.322855885619049
1403638527227829504,50.02594,264.0966749313874,9.389867375,-1.6589582916666663,-3.3015721666666664,-0.3707079331235955,0.1242674427419962,0.1521927107739055,2.4913664353007263,303.8949098117234,2.064039605314292
1403638527277829376,38.382292,289.915297764796,9.128356708333332,-2.034879875,-3.260711125,-0.3776892501315729,0.1668534764906579,0.08307767239493,2.193562911983887,305.6595204304924,1.7646106187690407
1403638527327829504,49.673318,309.50291919526165,8.981256958333333,-1.9776744166666664,-3.358777625,-0.3532546406036522,0.1766273203018261,0.0321140582366956,1.691025571660341,307.0380464068178,1.3785259763253634
1403638527377829376,50.703049,354.1234233286444,8.981256958333333,-2.0021910416666664,-3.317916583333333,-0.2827433388230814,0.1626646862858715,0.0370009801422797,1.1914999635988197,307.99228541815296,0.9542390113351757
1403638527427829504,64.756155,472.9515495727103,8.915879291666666,-2.0267076666666664,-3.2280222916666665,-0.1989675347273535,0.1117010721276371,0.036302848441482,0.7772500111170944,308.5760658552071,0.5837804370541448
1403638527477829376,35.460472,563.4436834492071,8.97308475,-1.936813375,-3.2280222916666665,-0.1033234917180643,0.0656243798749867,0.0670206432765822,0.3044316384271924,308.6902934501697,0.1142275949625855
1403638527527829504,60.977459,602.6385062747416,8.842329416666665,-2.01036325,-3.293399958333333,-0.0523598775598298,0.028623399732707,0.0593411945678072,0.47677575048328763,308.2749181323,-0.41537531786968884
1403638527577829376,38.321257,711.7522863141327,9.103840083333331,-1.5527195833333332,-3.2770555416666665,0.018151424220741,0.0125663706143591,0.064926248174189,0.9880225736880774,307.405315169962,-0.8696029623379786
1403638527627829504,61.569452,640.2385247624903,8.989429166666666,-1.3565865833333333,-3.3015721666666664,0.0886627260013119,0.0174532925199432,0.0244346095279206,1.4922774442149538,306.1130223018012,-1.2922928681608141
1403638527677829376,38.890839,573.9458968676122,9.430728416666666,-1.0215260416666667,-3.08909475,0.1333431548523667,0.0216420827247296,-0.0160570291183478,1.9335812456798052,304.4472596213621,-1.6657626804391157
1403638527727829504,50.636768,345.00694296861457,9.430728416666666,-0.5720545833333333,-3.2280222916666665,0.1703441349946465,-0.0160570291183478,0.0335103216382911,2.312261290535718,302.4725534976988,-1.9747061236632817
1403638527777829376,48.959494,326.9830263376339,9.5124505,-0.4004382083333333,-3.734699208333333,0.2408554367752175,-0.0642281164733913,0.1256637061435917,2.5367731848686605,300.27372111212543,-2.1988323855733825
1403638527827829504,50.470114,311.4754856744232,9.389867375,-0.5311935416666667,-3.6448049166666654,0.2897246558310587,-0.0740019602845595,0.1654572130890624,2.716771441948319,297.9129430035049,-2.3607781086205364
1403638527877829376,49.573659,338.71240242283386,9.259112041666668,-0.2369940416666666,-3.6202882916666654,0.2590068609959585,-0.0390953752446729,0.1528908424747032,2.9327667173409977,295.28814953539893,-2.6247934681059633
1403638527927829504,49.753428,352.9564787947932,9.455245041666666,0.0163444166666666,-3.636632708333333,0.1787217154042193,0.0223402144255274,0.0788888821901436,3.447015438857278,293.8554258669937,-1.432723668405231
1403638527977829376,68.054914,359.8753407473872,8.825985,-0.2288218333333333,-3.268883333333333,0.1424188669627373,0.0705113017805709,0.0244346095279206,3.6042386455329534,292.4745108546989,-1.3809150122947926
1403638528027829504,39.150477,299.8829778037477,8.548129916666667,-0.0735498749999999,-3.391466458333333,0.2073451151369263,0.0844739357965255,0.0474729556542457,3.1437185232238116,289.75054650551766,-2.7239643491812444
1403638528077829376,45.694351,299.57532322254394,8.9240515,0.1062387083333333,-3.178989041666666,0.2324778563656447,0.0502654824574366,0.0474729556542457,3.1611924197925307,287.0307471828704,-2.7197993226472477
1403638528127829504,49.235344,296.6235258169592,8.866846041666665,0.5965712083333333,-2.7622064166666664,0.2478367537831947,0.0146607657167523,0.0383972435438752,3.142524198607114,284.37438045024334,-2.6563667326270775
1403638528177829376,49.852371,296.03607315295267,9.275456458333332,0.3268883333333333,-2.40262925,0.2897246558310587,-0.0090757121103705,0.0509636141582344,3.0634297027494215,281.7825860851912,-2.591794365052124
1403638528227829504,49.419642,280.1111946010095,9.577828166666666,0.73549875,-2.2963905416666663,0.3225368457685521,-0.025830872929516,0.0342084533390888,2.971369452843798,279.3226081567111,-2.4599779284801
1403638528277829376,50.889969,293.02251221891225,9.26728425,0.9970094166666666,-2.7131731666666665,0.2645919146023404,-0.0055850536063818,0.0279252680319092,2.820179359155601,277.0612958878303,-2.261312268880829
1403638528327829504,49.018144,264.75370274025846,9.234595416666666,1.046042666666667,-3.0400615,0.1619665545850737,0.0760963553869527,0.0300196631343024,2.608434922493029,275.0428361307843,-2.018459757046003
1403638528377829376,49.830437,292.48153135150113,9.7085835,0.8253930416666666,-2.778550833333333,0.028623399732707,0.0823795406941323,-0.0034906585039886,2.3549892599617994,273.2101857994923,-1.8326503312919726
1403638528427829504,49.924374,307.5136653772855,9.26728425,0.5883989999999999,-3.0809225416666663,-0.0041887902047863,0.0411897703470661,-0.0062831853071795,2.1549857855410615,271.58208429993584,-1.6281014995564647
1403638528477829376,66.232204,334.6175484243477,9.414383999999998,0.5883989999999999,-3.4568441249999995,-0.0767944870877505,-0.0139626340159546,0.0663225115757845,2.0208470083873555,270.29792836241285,-1.2841559375229963
1403638528527829504,34.374475,319.9799534234847,9.455245041666666,0.34323275,-3.162644625,-0.0907571211037051,-0.0593411945678072,0.1570796326794896,1.8991369723297946,269.0288683633691,-1.2690599990437477
1403638528577829376,49.050093,304.16572354372505,9.389867375,0.171616375,-3.489532958333333,-0.1110029404268393,-0.0684169066781777,0.2254965393576673,1.8045331938702238,267.8772644588667,-1.1516039045023945
1403638528627829504,49.926758,315.2824930425878,9.496106083333332,0.4985047083333333,-3.800076875,-0.0551524043630208,-0.0146607657167523,0.2115339053417127,1.8572848748766846,266.9639268808738,-0.913337577992877
1403638528677829376,50.133944,328.71202915157687,9.234595416666666,0.1797885833333333,-4.257720541666666,-0.1193805208364121,0.0335103216382911,0.1172861257340189,1.8689904985813681,266.1696533549327,-0.7942735259411506
1403638528727829504,50.68922,357.44742952129513,8.989429166666666,0.2043052083333333,-4.666330958333333,-0.1864011641129944,0.0684169066781777,0.0740019602845595,1.480362425378187,265.4737008138544,-0.6959525410782703
1403638528777829376,49.225092,415.17350375161897,9.062979041666669,0.122583125,-4.9114972083333335,-0.0719075651821663,0.0376991118430775,0.1891936909161853,1.3173980253174373,264.95393676348107,-0.5197640503733396
1403638528827829504,61.941624,426.746459613902,9.087495666666666,-0.2533384583333333,-5.230213333333333,-0.0160570291183478,0.0383972435438752,0.2820452071222836,0.9927955109784442,264.5236766537208,-0.43026010976024054
1403638528877829376,38.283109,441.892009485737,9.128356708333332,-0.2860272916666666,-5.271074375,-0.0083775804095727,0.0439822971502571,0.2722713633111154,0.47862101783037,264.04000530977925,-0.4836713439415803
1403638528927829504,67.685604,526.3002181098185,9.496106083333332,-0.73549875,-5.164835666666666,0.0202458193231342,-0.0027925268031909,0.2429498318776106,0.4333151007321843,263.67683864394195,-0.36316666583729784
1403638528977829376,38.150788,525.6476338303482,8.441891208333333,-0.612915625,-5.1975245,0.0349065850398865,-0.0230383461263251,0.1843067690106012,0.5925678023215225,263.29806400878095,-0.37877463516099397
1403638529027829504,49.185037,554.494570674264,8.458235625,-1.1359369583333332,-4.380303666666666,-0.0712094334813686,0.0013962634015954,0.0719075651821663,0.8755945198820583,262.9169747187749,-0.3810892900060594
1403638529077829376,48.937321,484.9937159124132,8.237585999999999,-0.93163175,-3.947176625,-0.1870992958137921,0.0167551608191455,-0.182212373908208,1.1330286009216328,262.5257286090082,-0.3912461097667119
1403638529127829504,49.882889,444.5844032581552,7.959730916666666,-0.9152873333333332,-3.92266,-0.2234021442552742,0.0132645023151569,-0.2534218073895766,1.3289433034723064,262.08703645737546,-0.438692151632722
1403638529177829376,49.45302,423.0957828389142,7.714564666666666,-0.4576436666666666,-3.587599458333333,-0.1466076571675237,-0.0020943951023931,-0.189891822616983,1.6605007636354487,261.52381843236526,-0.563218025010201
1403638529227829504,65.785885,307.64209793737064,8.098658458333333,-0.4004382083333333,-3.612116083333333,-0.1389282084587486,-0.0216420827247296,-0.1675516081914556,1.7227602310683738,260.92297057974235,-0.6008478526229055
1403638529277829376,34.156322,244.44119152696337,8.28661925,-0.0081722083333333,-3.1463002083333333,-0.0551524043630208,-0.1047197551196597,-0.0872664625997164,1.6438001841442698,260.4907068544619,-0.43226372528044976
1403638529327829504,61.021328,213.9673687162908,8.253930416666666,0.44129925,-3.015544875,-0.0202458193231342,-0.1752310569002306,-0.0516617458590321,1.7328725065075206,260.0775993680755,-0.4131074863864228
1403638529377829376,38.673878,168.7261534017341,8.441891208333333,0.2533384583333333,-2.574245625,-0.0027925268031909,-0.2792526803190927,-0.0174532925199432,1.9442660329141765,259.77620265309,-0.30139671498545795
1403638529427829504,50.789356,128.6281010065308,8.613507583333332,0.2941994999999999,-2.89296175,0.0614355896702004,-0.3707079331235955,0.0656243798749867,1.4444888802036873,259.7230434180348,-0.05315923505520459
1403638529477829376,49.541712,110.96984764963716,8.850501625,0.3840937916666667,-3.2443667083333327,0.075398223686155,-0.393048147549123,0.0795870138909414,1.927711136246937,260.3434425743343,0.6203991562994702
1403638529527829504,50.230741,114.63859308785712,9.185562166666664,0.7109821249999999,-3.366949833333333,0.0502654824574366,-0.3413864016900908,0.0237364778271228,1.6847894047797185,261.2401042205023,0.8966616461680132
1403638529577829376,48.963309,130.0352501890337,9.398039583333333,0.196133,-3.6284605,0.0006981317007977,-0.2213077491528809,0.0048869219055841,6.531212410586907,264.25627160022304,3.0161673797207413
1403638529627829504,50.695419,169.81647008132686,9.062979041666669,0.2043052083333333,-3.8082490833333327,0.0069813170079773,-0.0851720674973232,0.0034906585039886,5.7428896558196945,267.0084721787347,2.7522005785116335
1403638529677829376,49.620628,215.09361315154135,9.177389958333332,0.2124774166666666,-3.832765708333333,0.025830872929516,0.0670206432765822,0.0558505360638185,8.609613657168415,273.0238683916109,6.015396212876226
1403638529727829504,51.038504,224.9611001893072,9.283628666666663,0.44129925,-3.8654545416666655,-0.0097738438111682,0.1954768762233649,0.0774926187885482,2.8290425523317975,274.60185700846444,1.5779886168535313
1403638529777829376,50.229788,193.30363419720385,9.103840083333331,0.3023717083333333,-3.930832208333333,0.0530580092606276,0.2764601535159017,0.1452113937659282,2.9370351746128973,273.388773345394,-1.2130836630704493
1403638529827829504,66.755056,193.68171635052255,9.577828166666666,0.44129925,-3.947176625,-0.0314159265358979,0.2527236756887789,0.0921533845053006,6.39594686399578,273.73031172584484,0.3415383804508565
1403638529877829376,44.015408,198.02947773682573,10.002783,0.6701210833333332,-3.67749375,-0.0020943951023931,0.189891822616983,0.0851720674973232,5.471573597650274,273.98247299809805,0.25216127225320406
1403638529927829504,38.958549,222.9709546874398,9.65955025,0.6782932916666666,-3.2770555416666665,0.0209439510239319,0.0900589894029074,0.1075122819228507,3.529290637420183,274.1311023815117,0.14862938341366316
1403638529977829376,50.168753,251.7216050746617,9.389867375,0.2615106666666666,-3.3506054166666663,-0.0397935069454707,0.0090757121103705,0.0460766922526503,2.936136812875611,275.50367453246355,1.3725721509518394
1403638530027829504,49.031019,258.57024567216814,9.283628666666663,0.4739880833333333,-3.7919046666666665,0.0027925268031909,-0.0502654824574366,0.0872664625997164,1.54338585877486,276.84189418482714,1.3382196523635912
1403638530077829376,62.010765,254.53921173633728,9.07115125,0.1307553333333333,-3.67749375,-0.0418879020478639,-0.0614355896702004,0.1256637061435917,0.5189278312940254,277.5749051507971,0.7330109659699815
1403638530127829504,54.79002,252.7382022201717,8.97308475,0.3840937916666667,-3.8899711666666654,-0.0893608577021096,-0.0404916386462684,0.1480039205691191,1.2874495933041832,278.45188064510074,0.8769754943036219
1403638530177829376,46.920777,254.02361476063336,8.981256958333333,0.0572054583333333,-3.849110125,-0.1242674427419962,0.0090757121103705,0.1361356816555577,2.089547956282844,279.2565222390903,0.8046415939895724
1403638530227829504,50.487041,251.35798149372525,8.87501825,0.4576436666666666,-4.1024485833333335,-0.0928515162060983,0.0265290046303138,0.1689478715930511,5.516759664246986,280.1817505492932,0.9252283102028969
1403638530277829376,36.886454,236.05202145527124,8.572646541666666,0.1389275416666666,-4.494714583333333,-0.0851720674973232,0.0370009801422797,0.1759291886010284,2.7037389819039577,280.5905840887605,0.4088335394673095
1403638530327829504,57.574749,229.03624130271285,9.079323458333333,0.2288218333333333,-3.947176625,-0.1242674427419962,0.0342084533390888,0.0963421747100869,2.216744827810674,280.6493633120918,0.05877922333127117
1403638530377829376,42.784691,220.71494154989657,9.210078791666666,0.171616375,-4.347614833333333,-0.0872664625997164,0.036302848441482,0.1214749159388053,1.9435643001350171,279.3872782792728,-1.2620850328190159
1403638530427829504,66.045999,223.06780802850176,8.899534874999999,0.0,-4.494714583333333,-0.0397935069454707,0.0139626340159546,0.1487020522699168,1.7705005841240198,278.57612513231055,-0.8111531469622264
1403638530477829376,44.711113,223.5588929442684,8.956740333333332,0.465815875,-4.453853541666667,0.0097738438111682,0.0195476876223364,0.1829105056090057,3.919073377457649,275.88985937768246,-2.6862657546280957
1403638530527829504,37.855387,223.72993738989055,8.825985,0.1470997499999999,-4.388475875,-0.0530580092606276,0.0062831853071795,0.1158898623324234,2.7205212014634577,274.23927085014657,-1.6505885275358878
1403638530577829376,50.747394,204.80931025167996,8.768779541666666,-0.0980665,-4.453853541666667,-0.0642281164733913,-0.0474729556542457,0.0914552528045028,2.222764366335333,275.5741833144189,1.3349124642723496
1403638530627829504,49.849034,166.3716947417947,8.809640583333332,0.0326888333333333,-4.233203916666667,-0.0488692190558412,-0.1186823891356144,0.1019272283164688,0.8113877356135404,275.11661775534645,-0.45756555907246366
1403638530677829376,50.200939,142.79093543470245,8.687057458333333,-0.0653776666666666,-4.192342875,-0.0174532925199432,-0.1452113937659282,0.1130973355292325,1.021877035620111,274.73022420573443,-0.38639354961202343
1403638530727829504,49.036741,149.40361124763507,8.703401874999999,-0.1389275416666666,-4.404820291666666,-0.0411897703470661,-0.1047197551196597,0.0740019602845595,0.3827778046642884,275.1347379211483,0.40451371541388426
1403638530777829376,62.100649,164.5062905445159,8.850501625,-0.0572054583333333,-4.306753791666666,-0.0160570291183478,-0.0328121899374933,0.0767944870877505,0.30930615711175,275.3072328185996,0.17249489745125857
1403638530827829504,49.403429,186.53950798016623,8.883190458333333,-0.024516625,-4.584608875,0.0844739357965255,0.0104719755119659,0.1075122819228507,0.26803193940785797,275.4554079554673,0.1481751368677351
1403638530877829376,38.655281,206.29331229998172,8.785123958333333,-0.2941994999999999,-4.445681333333333,0.0160570291183478,0.08307767239493,0.0823795406941323,0.6398659471264455,275.72329792819204,0.26788997272473125
1403638530927829504,62.062741,210.8515288326919,8.87501825,0.0980665,-4.306753791666666,0.0153588974175501,0.1158898623324234,0.0928515162060983,0.6658312253624546,276.0422081117538,0.3189101835617407
1403638530977829376,38.184642,208.22877292736476,8.768779541666666,-0.2533384583333333,-4.323098208333334,0.0446804288510548,0.1256637061435917,0.0991347015132779,0.32662483781503565,276.2557137758155,0.21350566406169946
1403638531027829504,50.734759,203.09157247155463,10.068160666666666,-0.0653776666666666,-4.944186041666666,-0.0062831853071795,0.1256637061435917,0.0069813170079773,1.084406360059235,276.40830107588755,0.15258730007207078
1403638531077829376,60.950994,193.8032724052596,9.814822208333332,-0.1307553333333333,-3.906315583333333,-0.0083775804095727,0.1298524963483781,0.0223402144255274,0.8223396352526082,276.8258241411785,0.4175230652909363
1403638531127829504,39.119482,183.76966979111648,8.580818749999999,0.2860272916666666,-3.8082490833333327,0.0502654824574366,0.0984365698124801,0.0418879020478639,0.31299350984400587,276.9344933247212,0.10866918354270183
1403638531177829376,49.243212,210.13605919073476,8.38468575,0.0081722083333333,-3.8654545416666655,-0.0460766922526503,0.0146607657167523,-0.0069813170079773,0.22861562629955395,276.8197189732716,-0.11477435144956871
1403638531227829504,49.857855,159.40145987249014,8.621679791666667,-0.2043052083333333,-4.0125542916666666,-0.0223402144255274,-0.0509636141582344,0.0146607657167523,1.4699447282797187,277.68997538449065,0.8702564112190316
1403638531277829376,49.996376,152.31546673406845,8.801468374999999,0.5802267916666666,-3.554910625,-0.0788888821901436,0.1165879940332212,-0.0055850536063818,0.4295605568311821,277.8133228655042,0.12334748101352488
1403638531327829504,50.217151,185.7729116310591,6.856482791666667,0.0898942916666666,-2.7376897916666665,-0.0118682389135614,-0.1417207352619395,0.0006981317007977,0.9472781193271187,278.57684986640623,0.7635270009020587
1403638531377829376,50.137043,188.75527088169693,8.18855275,0.5883989999999999,-4.290409374999999,-0.0055850536063818,-0.0153588974175501,0.0335103216382911,0.729290509880011,279.1672215670268,0.5903717006205511
1403638531427829504,50.380946,226.29529085410945,9.136528916666666,-0.269682875,-4.004382083333333,0.0020943951023931,0.1110029404268393,0.1256637061435917,0.1812898101618965,279.085220994486,-0.0820005725407782
1403638531477829376,49.852848,227.8911873762827,8.932223708333334,-0.0735498749999999,-3.6448049166666654,-0.0013962634015954,0.0097738438111682,0.0956440430092892,0.16350579398240508,279.21669189658996,0.13147090210395618
1403638531527829504,50.230741,225.9756593786173,8.981256958333333,0.2124774166666666,-4.094276375,0.0006981317007977,0.018151424220741,0.0376991118430775,0.22059480941584772,279.2919526191603,0.07526072257036276
1403638531577829376,59.784174,225.32066467993567,9.103840083333331,0.3514049583333333,-3.8245935,0.0069813170079773,-0.0048869219055841,0.0628318530717958,0.11510500679198948,279.1997578480983,-0.09219477106205431
1403638531627829504,39.41083,229.4416444467813,8.842329416666665,-0.1634441666666666,-3.9880376666666666,0.0342084533390888,0.0097738438111682,0.1438151303643327,0.14974743473217175,279.0919888809687,-0.10776896712957296
1403638531677829376,49.727201,226.5879364335718,8.793296166666666,-0.2288218333333333,-3.832765708333333,0.0097738438111682,0.0349065850398865,0.0411897703470661,0.029808104614262608,279.06977948046125,-0.022209400507449573
1403638531727829504,51.039934,230.4066635676305,9.022118,-0.392266,-3.8654545416666655,0.0265290046303138,0.0356047167406843,0.085870199198121,0.056456199550826924,279.0215022202009,-0.048277260260363164
1403638531777829376,51.226378,227.4041379458511,8.956740333333332,0.1389275416666666,-3.930832208333333,0.0167551608191455,0.0132645023151569,0.0579449311662117,0.06265122796231137,279.01565933842056,-0.00584288178032466
1403638531827829504,49.237728,230.43288042536568,8.850501625,-0.1144109166666666,-3.955348833333333,0.0195476876223364,0.0349065850398865,0.0677187749773799,0.048000302976940155,278.98373150202394,-0.031927836396619114
1403638531877829376,50.121546,230.02856444660884,9.226423208333332,0.122583125,-3.849110125,0.0188495559215387,0.0202458193231342,0.0879645943005142,0.031031374814751562,278.96866940205206,-0.015062099971885345
1403638531927829504,48.785209,228.3729179344332,8.785123958333333,-0.1144109166666666,-3.9390044166666662,-0.0013962634015954,0.0188495559215387,0.0495673507566389,0.03637953755870123,278.9482161101989,-0.02045329185312994
1403638531977829376,62.028647,230.89860065011797,8.891362666666666,0.1389275416666666,-3.8654545416666655,0.0230383461263251,0.0244346095279206,0.1054178868204575,0.03492933699156675,278.92229551843985,-0.025920591759074796
1403638532027829504,37.434816,228.4066198905153,9.013945791666666,0.0898942916666666,-3.8899711666666654,0.0,0.018151424220741,0.0370009801422797,0.025182172106028397,278.94690451744316,0.0246089990033056
1403638532077829376,50.945759,231.94448639322803,8.858673833333333,-0.024516625,-3.87362675,0.0202458193231342,0.0216420827247296,0.1089085453244461,0.07920501172328265,278.984692897982,0.037788380538813726
1403638532127829504,61.508894,228.24220587299115,8.981256958333333,0.2369940416666666,-4.053415333333333,-0.0041887902047863,0.0216420827247296,0.046774823953448,0.02183342721100696,278.99852220381916,0.013829305837191441
1403638532177829376,52.186966,231.9127802846293,8.981256958333333,0.0,-3.898143375,0.0083775804095727,0.0209439510239319,0.08307767239493,0.028924931963657186,279.01556313090197,0.017040927082803137
1403638532227829504,53.779364,230.2965615970445,9.095667875,0.2288218333333333,-3.898143375,0.0062831853071795,0.0209439510239319,0.0795870138909414,0.015208215380305975,279.03039873946767,0.014835608565704206
1403638532277829376,31.881809,230.75354421502487,8.793296166666666,0.0572054583333333,-3.930832208333333,0.0027925268031909,0.0202458193231342,0.0712094334813686,0.029991809029125596,279.0032994464521,-0.027099293015567127
1403638532327829504,50.865173,230.07233139866997,8.964912541666667,0.2369940416666666,-3.9390044166666662,0.0069813170079773,0.0223402144255274,0.0865683308989187,0.026265116282738404,278.98347843160826,-0.019821014843842022
1403638532377829376,49.061299,230.1552048472514,8.932223708333334,0.0653776666666666,-3.898143375,-0.0062831853071795,0.018151424220741,0.0600393262686049,0.03178791769034283,278.96185088324387,-0.021627548364392624
1403638532427829504,50.739765,231.2503821320153,8.932223708333334,0.1552719583333333,-3.92266,0.0083775804095727,0.025830872929516,0.0928515162060983,0.028169644274990153,278.94698857791445,-0.014862305329415904
1403638532477829376,48.997164,229.30694725336335,9.054806833333332,0.0735498749999999,-3.996209875,-0.0055850536063818,0.0160570291183478,0.0614355896702004,0.026451499574258998,278.95085458089784,0.003866002983386352
1403638532527829504,50.851345,230.6454595330191,8.981256958333333,0.1307553333333333,-3.930832208333333,0.0069813170079773,0.0167551608191455,0.0907571211037051,0.024869496013333357,278.9369846617458,-0.013869919152057264
1403638532577829376,49.074649,230.59572030851024,8.891362666666666,0.2369940416666666,-3.8654545416666655,0.0020943951023931,0.0216420827247296,0.0656243798749867,0.029960473797786467,278.95970213907646,0.022717477330672864
1403638532627829504,57.934046,231.1588985315824,8.842329416666665,0.0572054583333333,-3.8899711666666654,0.0034906585039886,0.0237364778271228,0.08307767239493,0.011822970060588104,278.94898907025714,-0.010713068819313776
1403638532677829376,43.422461,229.12542752201983,9.013945791666666,0.171616375,-3.955348833333333,-0.0027925268031909,0.0188495559215387,0.0712094334813686,0.016782207212893148,278.96067293283943,0.01168386258228793
1403638532727829504,49.83139,231.0606230547098,8.981256958333333,0.0653776666666666,-3.8899711666666654,-0.0013962634015954,0.0244346095279206,0.0712094334813686,0.009470007718321528,278.9584152496104,-0.002257683229004215
1403638532777829376,49.952984,231.08708281848263,9.038462416666666,0.1307553333333333,-3.947176625,-0.0013962634015954,0.0223402144255274,0.0816814089933346,0.01908693487693375,278.94268144085714,-0.01573380875328212
1403638532827829504,50.041199,230.10519255014563,8.899534874999999,0.1062387083333333,-3.906315583333333,-0.0062831853071795,0.018151424220741,0.0760963553869527,0.018862430364699923,278.9452428681531,0.0025614272959728623
1403638532877829376,50.547123,231.24000454609225,8.948568125,0.0817220833333333,-3.87362675,0.0027925268031909,0.0209439510239319,0.0823795406941323,0.015151826961212275,278.9435024162969,-0.0017404518562216253
1403638532927829504,49.141884,231.47616237124032,8.948568125,0.0817220833333333,-3.906315583333333,-0.0034906585039886,0.0195476876223364,0.0740019602845595,0.01294742169285411,278.9562226230507,0.012720206753783714
1403638532977829376,50.992965,231.08040356919784,8.87501825,0.0572054583333333,-3.930832208333333,-0.0006981317007977,0.0251327412287183,0.08307767239493,0.01227940135668152,278.9465179322809,-0.009704690769751778
1403638533027829504,48.788309,229.80130775155015,9.005773583333333,0.1389275416666666,-3.963521041666666,-0.0034906585039886,0.0223402144255274,0.0684169066781777,0.019807550429043464,278.93861408071183,-0.007903851569096787
1403638533077829376,50.64106,230.70270501669387,9.046634625,0.171616375,-3.9144877916666654,0.0,0.0195476876223364,0.0809832772925368,0.03583063916854019,278.9611618600502,0.02254777933836749
1403638533127829504,49.10326,230.3230299972335,8.940395916666665,0.0898942916666666,-3.898143375,-0.0062831853071795,0.018151424220741,0.0747000919853573,0.019291356856734783,278.95611401523223,-0.005047844817966052
1403638533177829376,49.907208,230.56338876359965,8.932223708333334,0.0572054583333333,-3.930832208333333,0.0034906585039886,0.0174532925199432,0.0816814089933346,0.01426437080328908,278.94984653267386,-0.0062674825583712845
1403638533227829504,50.060272,230.6784181896689,8.899534874999999,0.0326888333333333,-3.87362675,-0.0027925268031909,0.0230383461263251,0.0809832772925368,0.018525936074679634,278.9397380099904,-0.01010852268348117
1403638533277829376,50.802469,231.04483317818665,8.9240515,0.0408610416666666,-3.9390044166666662,-0.0034906585039886,0.0244346095279206,0.0788888821901436,0.007172012835836235,278.9359126729186,-0.0038253370717598045
1403638533327829504,61.150313,230.86621680051,8.964912541666667,0.1144109166666666,-3.9390044166666662,-0.0020943951023931,0.0216420827247296,0.0733038285837618,0.005458929746738789,278.9339167513734,-0.001995921545244528
1403638533377829376,37.623167,231.14563510546893,9.07115125,0.122583125,-3.92266,0.0,0.0174532925199432,0.0733038285837618,0.015403968407656113,278.9251720769849,-0.008744674388481144
1403638533427829504,52.638054,231.2647952519333,9.013945791666666,0.24516625,-3.930832208333333,0.0006981317007977,0.0216420827247296,0.0802851455917391,0.010254968238601265,278.91725871013796,-0.007913366846935332
1403638533477829376,49.681901,231.0252989750687,8.883190458333333,0.0653776666666666,-3.930832208333333,-0.0020943951023931,0.0146607657167523,0.0781907504893459,0.006221305647255219,278.90923838920855,-0.008020320929404079
1403638533527829504,49.546004,230.5678476925193,8.915879291666666,0.1797885833333333,-3.87362675,-0.0041887902047863,0.0237364778271228,0.0851720674973232,0.012435681287809199,278.9067722313731,-0.002466157835442573
1403638533577829376,67.061424,230.83705416954396,8.964912541666667,0.0572054583333333,-3.906315583333333,-0.0041887902047863,0.0209439510239319,0.0719075651821663,0.05701992208964851,278.95854113179155,0.051768900418437624
1403638533627829504,32.4862,230.419412598459,9.005773583333333,0.122583125,-3.979865458333333,0.0,0.0223402144255274,0.0851720674973232,0.01824118795746415,278.94549159760385,-0.013049534187700829
1403638533677829376,49.791336,230.4058880161101,8.891362666666666,0.0326888333333333,-3.906315583333333,-0.0048869219055841,0.0195476876223364,0.0712094334813686,0.004091085632931394,278.94310055741335,-0.0023910401905027356
1403638533727829504,50.248147,231.0730751849159,9.022118,0.1062387083333333,-3.8899711666666654,0.0006981317007977,0.0209439510239319,0.0837758040957278,0.022131099702160883,278.9309921507135,-0.012108406699837815
1403638533777829376,49.85094,231.00282660460576,8.997601374999999,0.1879607916666666,-3.947176625,-0.0034906585039886,0.0230383461263251,0.0788888821901436,0.014267321569371692,278.92388980339723,-0.007102347316276791
1403638533827829504,49.811125,230.60452389789788,8.834157208333334,0.0326888333333333,-3.963521041666666,-0.0237364778271228,0.0230383461263251,0.0872664625997164,0.003971398474129119,278.9180953013719,-0.0057945020253100665
1403638533877829376,49.623251,225.68302202913844,8.433719,-1.765197,-3.3996386666666667,-0.0230383461263251,0.018151424220741,0.08307767239493,0.17386535169151554,279.03796905572386,0.11987375435194281
1403638533927829504,50.401211,226.8521064662056,9.80665,-1.1604535833333331,-4.225031708333333,-0.0083775804095727,0.0614355896702004,0.0418879020478639,0.8750288637409561,279.4421283494303,0.4041592937064138
1403638533977829376,49.511909,221.97330220251783,10.207088208333332,-0.44129925,-4.290409374999999,0.0342084533390888,0.0342084533390888,0.0823795406941323,0.4372033952334813,279.5465685753833,0.10444022595299884
1403638534027829504,66.259623,228.0710447824268,10.059988458333333,-0.7600153749999999,-4.519231208333333,0.0300196631343024,-0.0202458193231342,0.0844739357965255,0.2131694914523327,279.4255370193679,-0.12103155601539584
1403638534077829376,33.682346,227.0886989599761,8.907707083333333,1.936813375,-4.323098208333334,0.1186823891356144,-0.0027925268031909,0.0551524043630208,0.5124154827260977,279.74368570436405,0.3181486849961743
1403638534127829504,61.243773,224.42719906047645,8.376513541666666,0.9970094166666666,-4.094276375,0.0656243798749867,-0.0265290046303138,0.0802851455917391,0.369529892701134,279.4974113165807,-0.24627438778333044
1403638534177829376,56.132078,228.14949053604175,9.242767625,0.1634441666666666,-4.208687291666666,0.0684169066781777,0.0607374579694026,0.0684169066781777,0.29493293492521416,279.2900983750485,-0.2073129415322228
1403638534227829504,43.903828,226.8338416644218,9.340834125,-0.4086104166666666,-4.200515083333333,0.0090757121103705,0.0460766922526503,0.0209439510239319,0.24813967630249326,279.48970531650576,0.19960694145726166
1403638534277829376,50.370931,227.5328774917961,9.863855458333331,-1.3892754166666663,-3.9880376666666666,-0.0495673507566389,-0.0034906585039886,0.1019272283164688,0.15159304600531462,279.3665523333987,-0.12315298310704748
1403638534327829504,38.596869,211.80594829579476,7.526603874999999,0.0980665,-2.8602729166666667,0.0111701072127637,0.0244346095279206,0.0963421747100869,0.22220606604693607,279.2408646329703,-0.12568770042844335
1403638534377829376,48.943996,211.8226281865304,9.340834125,-0.4004382083333333,-4.241376125,-0.0041887902047863,0.0230383461263251,0.064926248174189,0.5076353256971972,278.797398364035,-0.44346626893525354
1403638534427829504,50.937414,215.02335552831312,8.981256958333333,0.04903325,-3.587599458333333,0.0027925268031909,0.0314159265358979,0.0865683308989187,0.47700335570430047,278.37915726742386,-0.4182410966111547
1403638534477829376,49.7818,221.1837149719957,7.967903124999999,-0.4576436666666666,-3.4813607499999994,0.1165879940332212,0.0460766922526503,0.0195476876223364,1.580316379936303,279.63725352326117,1.2580962558373017
1403638534527829504,60.843944,226.2220145900517,9.553311541666666,-0.2124774166666666,-4.347614833333333,0.0823795406941323,-0.0006981317007977,0.0760963553869527,0.5512788155180369,279.5109294413926,-0.12632408186857447
1403638534577829376,38.976431,227.88888407260384,8.9240515,0.7600153749999999,-4.045243125,-0.0314159265358979,0.0453785605518525,0.0523598775598298,0.4958248742393152,279.0812592888393,-0.42967015255328533
1403638534627829504,50.25816,226.3246780453071,9.136528916666666,-0.3023717083333333,-4.126965208333333,-0.0293215314335047,0.0153588974175501,0.1061160185212552,0.3295107782392245,279.3602845516961,0.2790252628568055
1403638534677829376,50.069809,229.28966849630305,8.981256958333333,1.250347875,-4.118792999999999,-0.0586430628670094,0.0083775804095727,0.1082104136236484,0.11610143147250365,279.44476746304196,0.08448291134584451
1403638534727829504,48.983335,227.0387908819193,8.67888525,-0.8580818749999999,-3.726527,-0.0565486677646162,0.0230383461263251,0.0942477796076938,0.015469045315364038,279.4364776409705,-0.008289822071446906
1403638534777829376,50.649166,228.1485446046724,9.5124505,-0.9234595416666666,-4.020726499999999,-0.0530580092606276,0.0146607657167523,0.0949459113084915,0.008639878343204167,279.4266958621276,-0.009781778842921085
1403638534827829504,60.194493,228.09758676429436,9.022118,-0.6210878333333334,-4.004382083333333,-0.036302848441482,0.0118682389135614,0.0802851455917391,0.013074691902769713,279.4180937573031,-0.008602104824490198
1403638534877829376,46.404838,220.84916661901983,8.915879291666666,-1.3647587916666666,-3.6202882916666654,-0.0733038285837618,0.0328121899374933,0.0865683308989187,0.03740476294497816,279.45928960633466,0.04119584903156692
1403638534927829504,45.428038,226.13734990557555,8.695229666666666,-0.2288218333333333,-3.636632708333333,0.0607374579694026,0.0272271363311115,0.0600393262686049,0.04920200239747829,279.4300729168868,-0.029216689447878252
1403638534977829376,47.394752,228.60946655788445,8.989429166666666,-0.4739880833333333,-3.930832208333333,0.0230383461263251,0.0195476876223364,0.0691150383789754,0.01338307321182886,279.4302114961446,0.0001385792577934808
1403638535027829504,61.95736,228.63426173817103,9.054806833333332,0.0163444166666666,-3.898143375,0.0307177948351002,0.0216420827247296,0.0460766922526503,0.007305131186630226,279.43130397766396,0.0010924815193789073
1403638535077829376,37.984371,228.74801653812355,9.259112041666668,-0.1389275416666666,-4.0615875416666665,0.0244346095279206,-0.0069813170079773,0.0691150383789754,0.01576013019135426,279.44687047628804,0.015566498624082215
1403638535127829504,50.055265,228.9840857570009,8.997601374999999,-0.0326888333333333,-4.004382083333333,0.0216420827247296,0.0349065850398865,0.0767944870877505,0.01803669175350158,279.446274296932,-0.0005961793560231854
1403638535177829376,49.920321,229.0172194386848,8.597163166666666,-0.3350605416666666,-3.832765708333333,0.0034906585039886,0.0216420827247296,0.0684169066781777,0.025383269798796806,279.4376984942836,-0.008575802648408626
1403638535227829504,67.96956,229.87747586801132,9.161045541666669,0.34323275,-3.947176625,0.0090757121103705,-0.0006981317007977,0.0900589894029074,0.015447320889101168,279.4293513389703,-0.008347155313288113
1403638535277829376,33.052922,229.047339175418,8.883190458333333,-0.04903325,-4.077931958333333,0.0195476876223364,0.0307177948351002,0.0502654824574366,0.031157126561765836,279.4494346870657,0.02008334809539747
1403638535327829504,59.979677,229.76614574061097,9.136528916666666,0.3840937916666667,-4.028898708333333,0.0146607657167523,0.028623399732707,0.0851720674973232,0.008802534091035994,279.43726334855603,-0.012171338509688212
1403638535377829376,54.495334,229.8211621046778,8.825985,0.1552719583333333,-3.7673880416666665,-0.0041887902047863,0.0188495559215387,0.0642281164733913,0.027463871366342457,279.4327429031286,-0.004520445427431241
1403638535427829504,45.443297,230.0345953819436,9.447072833333332,-0.0572054583333333,-3.947176625,0.018151424220741,0.0383972435438752,0.0809832772925368,0.014197952779412633,279.4265756982594,-0.0061672048692003045
1403638535477829376,40.045023,230.66844475145143,9.030290208333332,0.4331270416666666,-4.110620791666666,0.0216420827247296,0.0209439510239319,0.0774926187885482,0.03075067176899773,279.45314685976217,0.02657116150277261
1403638535527829504,49.110889,229.1105371288928,8.752435125,0.196133,-3.8899711666666654,-0.0020943951023931,0.0195476876223364,0.0677187749773799,0.013620395984823485,279.44901645867094,-0.004130401091231306
1403638535577829376,51.038504,229.74391796444584,8.9240515,0.1307553333333333,-3.9880376666666666,-0.0048869219055841,0.0146607657167523,0.0809832772925368,0.037874801542541074,279.47225129610797,0.023234837437030365
1403638535627829504,59.776068,230.8299450465314,8.817812791666666,0.3268883333333333,-3.906315583333333,-0.0027925268031909,0.0237364778271228,0.0907571211037051,0.010240285219399202,279.47555300255414,0.0033017064461660084
1403638535677829376,39.060831,229.57111254886505,8.768779541666666,-0.1470997499999999,-3.8245935,-0.0104719755119659,0.0293215314335047,0.0607374579694026,0.06134029712057965,279.5060469414211,0.030493938866982262
1403638535727829504,50.985336,230.18387434850868,9.275456458333332,0.0735498749999999,-4.16782625,0.0118682389135614,0.0111701072127637,0.0747000919853573,0.03962334783397833,279.5006425744306,-0.005404366990546805
1403638535777829376,60.94265,230.3679386652876,8.834157208333334,0.2533384583333333,-3.9144877916666654,0.0048869219055841,0.0195476876223364,0.0823795406941323,0.03929824555680014,279.46412808142884,-0.03651449300173226
1403638535827829504,38.968325,229.17277037309373,8.883190458333333,0.3595771666666666,-3.8654545416666655,-0.0153588974175501,0.0111701072127637,0.0760963553869527,0.07446361325840975,279.50761101204034,0.043482930611503434
1403638535877829376,49.259662,230.6980178299898,8.825985,0.171616375,-3.881798958333333,-0.007679448708775,0.0118682389135614,0.093549647906896,0.041944521851227885,279.4809401486947,-0.02667086334565738
1403638535927829504,64.579725,229.8788460802146,8.997601374999999,0.2043052083333333,-4.0125542916666666,-0.0069813170079773,0.0216420827247296,0.0726056968829641,0.00875541164310721,279.4795524847331,-0.001387663961565977
1403638535977829376,37.446022,230.92029565532076,8.7279185,0.171616375,-3.906315583333333,-0.0202458193231342,0.0551524043630208,0.1096066770252439,0.012208319984467766,279.4852703427429,0.005717858009802512
1403638536027829504,48.951865,227.4465361516993,9.430728416666666,0.3023717083333333,-4.159654041666666,-0.0083775804095727,0.0376991118430775,0.1110029404268393,0.017964157648653674,279.5015966314291,0.01632628868617303
1403638536077829376,50.779819,229.10893678836223,9.210078791666666,0.196133,-4.16782625,0.0013962634015954,0.0307177948351002,0.1061160185212552,0.03623061495228672,279.49107113516084,-0.010525496268257939
1403638536127829504,48.863411,230.2255158407368,9.1201845,0.3350605416666666,-3.881798958333333,-0.025830872929516,0.0223402144255274,0.0670206432765822,0.013418297806946701,279.49727795003736,0.006206814876520639
1403638536177829376,49.679518,228.3009668222257,8.646196416666667,0.0163444166666666,-3.7919046666666665,0.0034906585039886,0.0195476876223364,0.1172861257340189,0.029107644891281693,279.5152772841778,0.01799933414042698
1403638536227829504,51.125288,228.62728716023923,8.9240515,-0.1144109166666666,-3.726527,-0.0097738438111682,0.0034906585039886,0.0628318530717958,0.039765525834841324,279.50571077809536,-0.00956650608242171
1403638536277829376,69.387436,230.1587511353871,8.915879291666666,0.465815875,-4.110620791666666,-0.0069813170079773,0.0321140582366956,0.0788888821901436,0.03564835818322584,279.53092605686766,0.02521527877229346
1403638536327829504,31.472683,229.8985856661267,8.915879291666666,-0.3268883333333333,-3.8654545416666655,-0.0062831853071795,0.0209439510239319,0.0760963553869527,0.010371175882356696,279.510435794568,-0.020490262299631468
1403638536377829376,49.620151,228.9995926321227,8.989429166666666,0.171616375,-3.9390044166666662,0.0048869219055841,0.0223402144255274,0.0844739357965255,0.005494138478989978,279.5130495064055,0.0026137118374549573
1403638536427829504,49.957276,229.1805739025129,8.474580041666666,-0.171616375,-3.702010375,-0.007679448708775,0.0104719755119659,0.0684169066781777,0.018314754075066414,279.4925588358379,-0.02049067056759668
1403638536477829376,48.99168,229.49533749392103,9.291800875,-0.0326888333333333,-4.045243125,0.0034906585039886,0.0237364778271228,0.0956440430092892,0.01412972952187748,279.4810532773506,-0.011505558487272083
1403638536527829504,50.631761,229.91561204381367,9.16921775,-0.2124774166666666,-3.963521041666666,-0.0090757121103705,0.0223402144255274,0.08307767239493,0.04607772097926125,279.5132900021176,0.03223672476701722
1403638536577829376,49.148083,229.74256418451012,8.793296166666666,-0.220649625,-3.5957716666666664,-0.0104719755119659,-0.0062831853071795,0.0837758040957278,0.012852874963616777,279.513367641927,7.763980937625092e-05
1403638536627829504,61.553002,228.11931677740824,9.193734375,-0.220649625,-3.930832208333333,-0.0118682389135614,0.0342084533390888,0.0677187749773799,0.025742936185104037,279.50024150323264,-0.013126138694360634
1403638536677829376,49.833774,229.49272419399304,8.588990958333333,-0.5148491249999999,-3.693838166666666,-0.0328121899374933,0.0328121899374933,0.0460766922526503,0.02602025616809584,279.4999071092295,-0.0003343940031186321
1403638536727829504,55.960178,229.8543511306135,8.662540833333333,0.4821602916666666,-3.9390044166666662,0.0041887902047863,0.0223402144255274,0.1235693110411985,0.023770290234910587,279.505474468991,0.00556735976147138
1403638536777829376,32.959938,229.2758400918617,9.357178541666666,-0.0408610416666666,-4.053415333333333,0.0041887902047863,0.0272271363311115,0.0816814089933346,0.021018503863928478,279.52815230096724,0.02267783197623885
1403638536827829504,61.273337,228.2262030512135,9.430728416666666,0.0081722083333333,-4.159654041666666,-0.0034906585039886,0.0223402144255274,0.0900589894029074,0.01613778408703949,279.5119249015387,-0.01622739942854423
1403638536877829376,38.751364,228.37827979197635,8.989429166666666,0.1144109166666666,-4.020726499999999,-0.0104719755119659,0.0006981317007977,0.0614355896702004,0.012865671321419749,279.5080025024818,-0.003922399056875747
1403638536927829504,48.960209,226.54825320492745,8.785123958333333,0.0572054583333333,-3.930832208333333,0.0265290046303138,0.0251327412287183,0.1151917306316257,0.028643305044831487,279.4785601268529,-0.029442375628889295
1403638536977829376,51.077842,227.5351441133029,8.662540833333333,0.2778550833333333,-3.9390044166666662,0.0195476876223364,0.0390953752446729,0.0970403064108847,0.055849722670399525,279.52603616445384,0.04747603760091579
1403638537027829504,66.57672,228.9929044121038,9.161045541666669,-0.4739880833333333,-3.92266,0.0083775804095727,0.0300196631343024,0.1123992038284348,0.03769441094647615,279.5248163199722,-0.001219844481624932
1403638537077829376,44.347047,226.0645344459876,9.152873333333332,-0.4739880833333333,-3.734699208333333,0.0020943951023931,0.028623399732707,0.0488692190558412,0.05683738901703162,279.51192156309486,-0.012894756877358304
1403638537127829504,50.201893,227.78303618247324,9.226423208333332,-0.6864655000000001,-3.9880376666666666,-0.0020943951023931,0.0006981317007977,0.0551524043630208,0.016520953069019264,279.52108161773197,0.009160054637106896
1403638537177829376,45.470238,227.2931273259043,9.087495666666666,-0.3350605416666666,-3.979865458333333,0.0,0.0404916386462684,0.0677187749773799,0.04661674166590643,279.5224431024826,0.0013614847506460137
1403638537227829504,45.156717,227.7309574899117,9.046634625,-0.3105439166666667,-3.849110125,0.0160570291183478,0.0062831853071795,0.0788888821901436,0.03648519037284159,279.5139207403274,-0.008522362155190422
1403638537277829376,47.938586,227.0339270043477,9.250939833333334,-0.171616375,-4.069759749999999,0.0118682389135614,0.0265290046303138,0.0719075651821663,0.012990724921274148,279.51923358345414,0.005312843126716871
1403638537327829504,66.282987,227.5916181219356,8.760607333333333,-0.0980665,-3.8164212916666655,-0.0013962634015954,0.0383972435438752,0.08307767239493,0.02202817618962298,279.533356125061,0.014122541606866434
1403638537377829376,33.394814,228.27849706577345,9.005773583333333,-0.171616375,-3.77556025,0.0153588974175501,0.0,0.0865683308989187,0.02668275572971665,279.50318434766143,-0.03017177739957333
1403638537427829504,61.338186,228.8415324405232,9.022118,0.024516625,-4.143309625,0.0020943951023931,0.0321140582366956,0.0719075651821663,0.09408129124010028,279.5531128553728,0.04992850771134272
1403638537477829376,39.252043,228.4605714028913,8.401030166666667,0.0163444166666666,-4.086104166666667,-0.0055850536063818,0.0307177948351002,0.0705113017805709,0.052332377028687545,279.50445991806856,-0.04865293730421172
1403638537527829504,48.916816,226.76336898856675,9.430728416666666,0.24516625,-4.192342875,-0.0104719755119659,0.0502654824574366,0.08307767239493,0.05336891910908471,279.5496605923988,0.045200674330260426
1403638537577829376,51.190377,227.2027997321366,8.3356525,0.220649625,-3.342433208333333,0.0020943951023931,-0.0139626340159546,0.1019272283164688,0.012248788667571099,279.5567375630508,0.007076970651951342
1403638537627829504,48.781633,226.67638501669768,7.534776083333333,-0.53936575,-3.2035056666666666,-0.0272271363311115,0.025830872929516,0.0307177948351002,0.032347894098651436,279.5550071192203,-0.0017304438304677205
1403638537677829376,50.653458,227.12862902801177,8.883190458333333,-0.9479761666666666,-3.718354791666666,-0.0439822971502571,0.0195476876223364,0.0321140582366956,0.030328423864471085,279.55631471205066,0.0013075928303578621
1403638537727829504,49.334526,226.76436980569508,8.3356525,0.1062387083333333,-3.4323274999999995,-0.0251327412287183,0.0188495559215387,0.0607374579694026,0.013704218924392473,279.5540863694113,-0.002228342639341463
1403638537777829376,51.103592,227.4730051238877,7.918869874999999,0.612915625,-3.113611375,-0.0237364778271228,0.0083775804095727,0.0509636141582344,0.030631352998252745,279.5782140229862,0.024127653574851138
1403638537827829504,60.629368,226.839146797952,8.597163166666666,0.5230213333333333,-3.514049583333333,0.0027925268031909,0.0293215314335047,0.054454272662223,0.021137254570141092,279.55984229906784,-0.018371723918335192
1403638537877829376,50.000905,223.54697911800676,9.455245041666666,0.5148491249999999,-3.7919046666666665,0.0139626340159546,0.0349065850398865,0.093549647906896,0.0058191912670863145,279.55992853404695,8.623497910775768e-05
1403638537927829504,39.044381,223.4928060764957,8.809640583333332,-0.5720545833333333,-4.086104166666667,-0.0139626340159546,0.0523598775598298,0.0914552528045028,0.03366598061651863,279.57704325409225,0.017114720045299237
1403638537977829376,50.346851,223.22891744502843,8.621679791666667,-0.1470997499999999,-4.086104166666667,0.0195476876223364,-0.0530580092606276,0.0607374579694026,0.04333958877438896,279.5478037697874,-0.029239484304866892
1403638538027829504,49.95966,221.86540010904224,9.855683249999998,-0.220649625,-4.4211647083333325,0.0083775804095727,0.0851720674973232,0.0886627260013119,0.018742510286790942,279.5488405839393,0.0010368141519165874
1403638538077829376,50.555944,224.87984367877544,8.891362666666666,0.8825985,-4.2168595,0.0300196631343024,-0.0293215314335047,0.0628318530717958,0.03290798637521755,279.55711071781775,0.008270133878454544
1403638538127829504,49.957752,224.19141328354883,8.482752249999999,-0.3023717083333333,-3.6284605,0.0153588974175501,0.0034906585039886,0.0502654824574366,0.02998224810098294,279.55402447838094,-0.003086239436811411
1403638538177829376,49.821854,221.2572180342714,8.760607333333333,-0.7681875833333334,-3.554910625,0.0111701072127637,0.0670206432765822,0.0795870138909414,0.026979163039015507,279.55142629965127,-0.002598178729670053
1403638538227829504,50.122738,218.84832251036127,9.177389958333332,-0.220649625,-4.429336916666666,-0.0202458193231342,0.1389282084587486,0.057246799465414,0.021622373550083587,279.54862717405257,-0.0027991255986989927
1403638538277829376,49.584627,215.30540845931696,10.435910041666666,0.04903325,-5.262902166666666,-0.0055850536063818,0.0027925268031909,0.0942477796076938,0.023706252322295375,279.57144410401827,0.022816929965699728
1403638538327829504,61.527967,222.81237781007167,8.466407833333333,0.4985047083333333,-3.8164212916666655,-0.0216420827247296,0.1158898623324234,0.0656243798749867,0.08897371452863909,279.56449585110244,-0.006948252915833564
1403638538377829376,37.880183,223.77936364554523,9.013945791666666,-0.1307553333333333,-3.947176625,-0.0202458193231342,0.0502654824574366,0.0747000919853573,0.05328920019401852,279.5428922305096,-0.02160362059282761
1403638538427829504,61.807871,223.30122496277625,6.676694208333332,0.6537766666666667,-3.0809225416666663,-0.0160570291183478,0.0069813170079773,0.0893608577021096,0.04080894191922928,279.5507868529831,0.007894622473486379
1403638538477829376,38.8031,218.8704805466228,7.273265416666667,0.367749375,-2.778550833333333,-0.0013962634015954,0.1186823891356144,0.0865683308989187,0.04527038746586596,279.5447126963045,-0.006074156678607778
1403638538527829504,50.049305,223.89485554367545,8.172208333333334,-0.2533384583333333,-3.391466458333333,-0.0223402144255274,0.0223402144255274,0.0886627260013119,0.10442284775011229,279.53283473847637,-0.011877957828119179
1403638538577829376,61.016083,215.73863881449,11.244958666666667,-0.4086104166666666,-5.140319041666666,-0.0034906585039886,0.046774823953448,0.0816814089933346,0.042029253166410936,279.55905946622283,0.02622472774646667
1403638538627829504,49.878359,219.53130973282123,7.559292708333333,0.3023717083333333,-2.476179125,-0.0055850536063818,0.0083775804095727,0.0788888821901436,0.06211169809668551,279.5295869410711,-0.029472525151732043
1403638538677829376,53.427458,223.4516053596213,10.730109541666666,-0.1552719583333333,-5.066769166666667,0.0055850536063818,0.0747000919853573,0.0586430628670094,0.02921458696550786,279.55621202674774,0.026625085676641902
1403638538727829504,46.637058,216.34850394733297,6.341633666666666,0.1552719583333333,-3.1544724166666662,0.0272271363311115,-0.0097738438111682,0.1117010721276371,0.1232103754822854,279.5500678518032,-0.0061441749445521054
1403638538777829376,37.96792,202.0849576465489,8.564474333333333,0.024516625,-2.8439285,0.0307177948351002,-0.0321140582366956,0.0230383461263251,0.24763250447613067,279.5334867421549,-0.01658110964831394
1403638538827829504,66.127062,207.08846501582332,8.270274833333334,0.1552719583333333,-2.165635208333333,-0.0083775804095727,0.0230383461263251,0.1165879940332212,0.3696993327910808,279.64282853592533,0.10934179377045439
1403638538877829376,33.313513,148.61465624715103,7.314126458333333,-0.0081722083333333,-3.661149333333333,0.0111701072127637,0.1270599695451872,0.0747000919853573,0.854966157050203,280.00860210557386,0.3657735696485247
1403638538927829504,50.6742,130.9909884648314,8.539957708333333,-0.6456044583333332,-4.110620791666666,-0.0013962634015954,0.1661553447898601,0.1110029404268393,2.2028144552524775,279.50258440255527,-0.5060177030185855
1403638538977829376,50.544739,118.14932662997636,10.019127416666668,-0.34323275,-4.339442625,0.0020943951023931,0.2136283004441059,0.1424188669627373,3.4900732614031593,278.5158393549251,-0.9867450476301656
1403638539027829504,49.725055,173.55937492926668,11.42474725,0.367749375,-4.314926,-0.0349065850398865,0.3029891581462156,0.1158898623324234,2.8932463731715345,279.07150814611293,0.5556687911878271
1403638539077829376,48.894406,145.34361949645313,12.69961175,0.269682875,-3.906315583333333,0.0097738438111682,0.1787217154042193,0.0886627260013119,4.013225468395723,279.3062480192051,0.23473987309216682
1403638539127829504,50.331354,135.95357844966577,10.043644041666663,-0.6047434166666666,-2.6641399166666666,0.0006981317007977,0.2150245638457014,0.025830872929516,11.05603887325112,277.4299799310172,-1.876268088187885
1403638539177829376,61.250686,142.19882135805207,8.940395916666665,0.5230213333333333,-2.7867230416666664,0.0307177948351002,0.1424188669627373,0.046774823953448,5.565486375958899,277.2969442662962,-0.13303566472103512
1403638539227829504,39.197445,117.59804167645852,10.615698625,-0.171616375,-4.110620791666666,0.007679448708775,0.1165879940332212,0.0956440430092892,5.238237850762055,275.8339483025562,-1.4629959637399566
1403638539277829376,49.424887,187.85706793383736,10.051816249999998,0.3105439166666667,-3.546738416666667,0.0251327412287183,0.0851720674973232,0.1061160185212552,4.571619916402889,276.2269342549923,0.3929859524360495
1403638539327829504,51.029444,169.24004380746078,9.07115125,0.4821602916666666,-3.4568441249999995,0.0097738438111682,-0.0342084533390888,0.0167551608191455,5.031746669075198,276.11065293783787,-0.11628131715440304
1403638539377829376,49.833059,189.86098992096692,10.550320958333334,-0.4331270416666666,-3.8654545416666655,0.0195476876223364,0.0118682389135614,0.0942477796076938,4.056966382211331,278.64073662072565,2.5300836828877777
1403638539427829504,50.228357,194.75874767334355,9.332661916666666,0.7763597916666666,-3.18716125,0.0307177948351002,-0.0335103216382911,0.0565486677646162,8.251191968631627,281.91330692334236,3.272570302616714
1403638539477829376,56.570292,203.1271368544205,9.152873333333332,0.416782625,-3.3996386666666667,0.0062831853071795,-0.0788888821901436,0.0425860337486616,10.010589326301336,286.77250855102204,4.859201627679681
1403638539527829504,43.431044,216.29077365718484,9.75761675,-0.318716125,-3.563082833333333,0.0265290046303138,0.0097738438111682,0.0774926187885482,7.539243434764231,290.60382375436467,3.8313152033426263
1403638539577829376,50.064802,237.1165562098807,7.5511205,1.0950759166666666,-2.623278875,0.0230383461263251,0.0383972435438752,0.0356047167406843,6.023142657986891,293.29086678059224,2.6870430262275704
1403638539627829504,49.219131,247.2244670621666,6.366150291666666,0.0653776666666666,-1.91229675,0.0349065850398865,-0.0097738438111682,0.0691150383789754,2.4851445969742203,292.4030860658389,-0.887780714753319
1403638539677829376,51.07522,264.538993414595,6.22722275,0.024516625,-1.3565865833333333,0.0188495559215387,-0.0195476876223364,0.0635299847725936,1.3494961178835239,291.9985994355536,-0.4044866302853052
1403638539727829504,49.852133,300.3008291098393,10.182571583333331,0.6701210833333332,-4.609125499999999,0.0139626340159546,-0.028623399732707,0.0418879020478639,2.4232494695534026,292.6221873277075,0.6235878921538642
1403638539777829376,49.902439,326.63494445109257,7.84532,-0.4576436666666666,-2.525212375,0.0006981317007977,-0.0495673507566389,0.0809832772925368,2.9676510237235654,293.8230258721279,1.200838544420435
1403638539827829504,50.094366,340.1603514995952,9.970094166666666,-0.5557101666666666,-3.334261,0.025830872929516,-0.0893608577021096,0.0767944870877505,1.467688539172191,294.3022162933851,0.47919042125715805
1403638539877829376,49.998284,301.3954483293946,9.07115125,0.416782625,-3.3751220416666667,0.0230383461263251,-0.0991347015132779,0.0600393262686049,1.3334067121533455,294.8273355597055,0.5251192663204165
1403638539927829504,60.732603,307.53679179398665,8.9240515,-0.196133,-2.549729,-0.0300196631343024,-0.1396263401595463,0.1026253600172665,1.1800681717380135,295.1934636431063,0.366128083400838
1403638539977829376,38.910627,281.14311554413274,10.787315,-0.4494714583333333,-3.612116083333333,0.0202458193231342,-0.2450442269800038,0.0663225115757845,1.288316175190021,295.7437257150958,0.5502620719894935
1403638540027829504,50.657988,340.9150113525821,8.842329416666665,0.6946377083333333,-2.9256505833333333,0.0027925268031909,-0.1452113937659282,0.0,1.2642960279234985,296.2826762458163,0.5389505307204558
1403638540077829376,49.64447,324.9984109473585,8.294791458333332,-1.0133538333333332,-3.293399958333333,-0.0139626340159546,-0.2310815929640492,0.104021623418862,1.3392132094426563,296.9393960122866,0.6567197664703031
1403638540127829504,60.815811,372.4534826671823,9.839338833333333,-0.5965712083333333,-2.89296175,0.0153588974175501,-0.1068141502220529,0.1012290966156711,1.3861614570170921,297.67863675123596,0.7392407389493769
1403638540177829376,39.165735,422.02922986925256,10.084505083333331,-0.2369940416666666,-3.4568441249999995,-0.0104719755119659,0.0460766922526503,0.0376991118430775,1.601035215435021,298.5987073484926,0.9200705972566539
1403638540227829504,48.962117,267.7474051551248,8.883190458333333,-0.0735498749999999,-3.718354791666666,0.0160570291183478,0.2024581932313422,0.1340412865531645,2.424727740786168,300.0572985336844,1.4585911851917785
1403638540277829376,49.958705,202.4233519405981,8.049625208333332,0.24516625,-1.8632635,-0.0027925268031909,0.28623399732707,-0.0048869219055841,3.213992609036001,301.9766595984872,1.9193610648027857
1403638540327829504,63.19666,376.90777329428334,8.425546791666665,-0.93163175,-3.710182583333333,-0.0090757121103705,0.2206096174520832,0.0747000919853573,4.856114226659427,305.33941995044523,3.362760351958059
1403638540377829376,48.812866,533.6084959600198,10.909898125,0.2043052083333333,-4.993219291666667,0.0642281164733913,0.161268422884276,0.0244346095279206,3.417188316116432,307.0709395211376,1.7315195706923419
1403638540427829504,38.914442,488.51640774656784,7.935214291666666,-0.5720545833333333,-2.9338227916666666,0.140324471860344,0.08307767239493,-0.0132645023151569,2.5951128811288,308.92418424354156,1.8532447224039856
1403638540477829376,64.568043,1075.7436902979714,9.128356708333332,0.2533384583333333,-2.312734958333333,0.2192133540504878,-0.0153588974175501,-0.0062831853071795,3.6302839503871143,311.6614299936924,2.737245750150862
1403638540527829504,46.824455,1051.0662326128245,10.354187958333334,-0.0735498749999999,-3.9390044166666662,0.239459173373622,0.0202458193231342,-0.0551524043630208,1.7938890896562827,312.9129363266246,1.2515063329321947
1403638540577829376,49.020052,959.1273769558068,10.068160666666666,0.0326888333333333,-4.8052585,0.3371976114853044,0.0418879020478639,-0.0062831853071795,2.1662282676507547,314.20693569676973,1.2939993701451158
1403638540627829504,39.65187,893.4649178826098,6.880999416666667,0.5475379583333333,-3.097266958333333,0.3267256359733385,0.1165879940332212,-0.1263618378443894,1.5103271320888807,315.15305231817,0.9461166214002787
1403638540677829376,50.301552,959.3938549566992,10.125366125,-0.0163444166666666,-3.702010375,0.3728023282259888,0.0705113017805709,-0.2366666465704311,1.577669795831706,316.231983914017,1.0789315958469956
1403638540727829504,50.107479,915.667697785581,6.880999416666667,-1.2340034583333332,-3.563082833333333,0.3658210112180114,-0.0328121899374933,-0.2164208272472968,1.4937806594496548,317.19289747263264,0.9609135586156299
1403638540777829376,64.400196,854.8305133424047,10.697420708333333,0.1062387083333333,-4.184170666666667,0.5194099853935125,0.0663225115757845,-0.2436479635784084,1.3429867399768072,318.13265915310956,0.93976168047692
1403638540827829504,36.387206,855.018114461926,10.632043041666666,0.4331270416666666,-3.4404997083333333,0.4782202150464462,0.0558505360638185,-0.2303834612632515,1.965077917794907,319.54012841164337,1.4074692585338084
1403638540877829376,49.160719,826.6007571975863,8.098658458333333,0.612915625,-3.219850083333333,0.5215043804959056,0.0376991118430775,-0.3392920065876977,1.9835973542429979,321.1186436431318,1.5785152314884385
1403638540927829504,49.616575,840.6953363659942,8.327480291666665,0.3268883333333333,-3.309744375,0.5515240436302082,-0.0397935069454707,-0.1668534764906579,2.04663711444183,322.6914782584863,1.572834615354509
1403638540977829376,50.43149,858.5657043941405,10.076332875,-0.24516625,-3.57942725,0.43703044469938,0.0488692190558412,-0.1277581012459849,2.06878488598977,324.0925866320443,1.4011083735579746
1403638541027829504,61.003208,876.7744906175433,10.256121458333332,-0.6537766666666667,-2.8766173333333334,0.4523893421169302,0.0537561409614253,-0.0146607657167523,1.3992124427119474,325.3330828927892,1.2404962607449193
1403638541077829376,39.013386,954.8009443944076,9.447072833333332,-0.6292600416666666,-2.909306166666666,0.3211405823669566,-0.0006981317007977,-0.0684169066781777,2.8870464614941227,327.1335688954115,1.8004860026222786
1403638541127829504,60.451984,984.5346305362413,8.891362666666666,0.0163444166666666,-3.2525389166666665,0.3309144261781249,0.0788888821901436,-0.0111701072127637,1.382620554012411,328.46940969446376,1.3358407990522778
1403638541177829376,39.116621,992.828567715141,9.56148375,0.8172208333333333,-3.7837324583333327,0.179419847105017,-0.0272271363311115,0.0376991118430775,1.5764849030836667,330.0243265426878,1.5549168482240248
1403638541227829504,50.396681,1043.7214128439214,9.005773583333333,-0.956148375,-2.6641399166666666,0.1487020522699168,0.0223402144255274,-0.0293215314335047,3.2551751292473488,332.88917116254567,2.8648446198578768
1403638541277829376,50.542831,1140.9698196284414,9.152873333333332,0.7109821249999999,-3.726527,0.1647590813882647,0.0628318530717958,-0.0139626340159546,1.8411778411649489,334.539983658179,1.6508124956333177
1403638541327829504,50.033093,1105.877275376595,9.65955025,0.0,-4.527403416666666,0.064926248174189,0.0558505360638185,0.0781907504893459,2.00954528118214,336.2060723477052,1.666088689526191
1403638541377829376,48.897266,1108.279988946162,10.395049,-0.784532,-4.274064958333334,0.0677187749773799,-0.0397935069454707,0.1438151303643327,1.7925523239914927,337.5553022523254,1.3492299046202447
1403638541427829504,49.738646,1058.58631346548,11.563674791666667,0.7028099166666667,-3.955348833333333,0.0006981317007977,0.0,0.0837758040957278,1.8684119475819303,338.84692385700157,1.291621604676152
1403638541477829376,62.055111,888.038399811612,10.337843541666668,-0.1062387083333333,-4.625469916666667,-0.0453785605518525,0.0167551608191455,0.025830872929516,2.349911237298125,340.3253908584839,1.4784670014823291
1403638541527829504,52.381038,902.4445078683788,9.242767625,0.44129925,-3.5957716666666664,0.0279252680319092,0.0188495559215387,0.0523598775598298,2.2779559942825656,341.424292657503,1.0989017990190746
1403638541577829376,47.508955,888.3867515534492,8.556302125,0.4494714583333333,-3.113611375,0.0390953752446729,0.1242674427419962,-0.0125663706143591,2.913491439042835,342.81933565885475,1.3950430013517803
1403638541627829504,49.232245,866.8568296562221,10.2969825,0.0980665,-3.8409379166666655,0.1270599695451872,0.1277581012459849,0.1186823891356144,2.953735712761265,343.6916276776938,0.8722920188390617
1403638541677829376,38.496256,775.0454788346542,8.989429166666666,-0.318716125,-4.2168595,0.1640609496874669,0.0726056968829641,0.0635299847725936,3.697312064319707,344.91231846234786,1.220690784654039
1403638541727829504,56.622266,756.010994175077,10.484943291666664,-0.4249548333333333,-4.0125542916666666,0.2869321290278678,0.0356047167406843,0.1626646862858715,3.6998653328633986,345.5960896266399,0.6837711642920681
1403638541777829376,44.797659,656.8199941467832,10.084505083333331,0.24516625,-3.366949833333333,0.3078760800517997,-0.0370009801422797,0.1200786525372098,4.028149664812934,346.6288049680283,1.032715341388382
1403638541827829504,49.364329,603.1669439362632,10.059988458333333,0.44129925,-2.99102825,0.2925171826342496,0.0502654824574366,0.0670206432765822,4.036002710647399,347.31622269633823,0.6874177283099243
1403638541877829376,49.523353,619.2755651261418,6.791105125,0.3268883333333333,-1.838746875,0.3469714552964727,0.018151424220741,-0.0383972435438752,3.984303356461198,347.80054368825154,0.48432099191330735
1403638541927829504,60.900927,622.3724096038588,7.534776083333333,0.392266,-2.999200458333333,0.3630284844148205,-0.0013962634015954,-0.0740019602845595,3.880550560637929,348.11000046493683,0.3094567766852947
1403638541977829376,39.210081,570.2856111331909,8.360169125,-0.3595771666666666,-3.2770555416666665,0.3818780403363593,-0.0691150383789754,0.0104719755119659,3.648396241686009,348.28927219425225,0.1792717293154169
1403638542027829504,49.962044,568.9708048532997,9.80665,0.0081722083333333,-3.849110125,0.4712388980384689,-0.0726056968829641,-0.0328121899374933,3.1324594470036637,348.2981866698711,0.008914475618837514
1403638542077829376,49.657821,547.9597125886081,9.782133375,0.5720545833333333,-4.396648083333333,0.4286528642898072,0.0509636141582344,-0.0802851455917391,3.2804826904173154,348.41968294935214,0.12149627948105035
1403638542127829504,62.999011,367.3662110198995,9.226423208333332,0.1307553333333333,-3.211677875,0.5173155902911193,0.0223402144255274,-0.0502654824574366,3.245945667966054,347.43027320177197,-0.9894097475801686
1403638542177829376,37.154913,371.4034637415867,7.461226208333334,0.3595771666666666,-2.803067458333333,0.48939032225921,-0.0090757121103705,-0.1438151303643327,4.028403009039893,348.76073641914587,1.3304632173739037
1403638542227829504,61.12504,380.2858007738512,8.327480291666665,-0.1634441666666666,-2.909306166666666,0.5522221753310059,-0.0244346095279206,-0.208043246837724,3.04494822129297,348.6569248578607,-0.10381156128516977
1403638542277829376,38.957119,407.96691954395953,10.084505083333331,-0.1552719583333333,-2.69682875,0.5068436147791533,-0.0907571211037051,-0.0788888821901436,2.5260088258362483,349.2805612050204,0.6236363471596746
1403638542327829504,60.942173,393.2167534913791,9.921060916666669,-0.2124774166666666,-3.2035056666666666,0.4314453910929983,0.1675516081914556,-0.161268422884276,2.476877685759386,349.391761400847,0.11120019582659779
1403638542377829376,49.502372,361.2538380788712,8.196724958333332,0.0408610416666666,-3.4241552916666667,0.4000294645571003,0.2513274122871834,-0.21851522234969,2.09493302808206,349.57470245097346,0.18294105012648743
1403638542427829504,39.491177,314.79874424203854,9.357178541666666,0.2369940416666666,-4.519231208333333,0.278554548618295,0.2960078411382383,-0.28623399732707,2.19776573102086,349.48747632225616,-0.08722612871730462
1403638542477829376,49.881697,308.6431495673104,9.414383999999998,-0.3840937916666667,-3.391466458333333,0.1521927107739055,0.296705972839036,-0.3497639820996636,2.143772474753106,349.68922915340204,0.20175283114588183
1403638542527829504,49.881935,391.9386463224496,10.730109541666666,0.465815875,-4.257720541666666,0.1654572130890624,0.3532546406036522,-0.3120648702565861,1.9297078856095904,349.90552697985277,0.21629782645072737
1403638542577829376,50.592661,298.4784211558959,9.888372083333332,1.0869037083333333,-4.028898708333333,0.1396263401595463,0.0370009801422797,-0.0328121899374933,2.9010801320000774,348.8447066577738,-1.0608203220789392
1403638542627829504,60.652256,376.7611739439509,8.915879291666666,-0.7109821249999999,-2.4843513333333336,0.0977384381116824,-0.0111701072127637,-0.0432841654494593,2.420326415816779,348.7738410975114,-0.07086556026240487
1403638542677829376,50.627231,422.053382533906,8.180380541666665,0.6537766666666667,-3.3506054166666663,0.1682497398922533,-0.0900589894029074,0.1068141502220529,2.1827125338543514,348.8899010518953,0.11605995438389982
1403638542727829504,38.549185,378.9647749080095,7.608325958333333,0.1552719583333333,-2.5660734166666663,0.1989675347273535,-0.0321140582366956,0.3546509040052477,2.2207308823087786,349.13233284459085,0.24243179269552684
1403638542777829376,49.771547,403.7814984686226,11.089686708333334,0.171616375,-3.8164212916666655,0.1389282084587486,-0.0691150383789754,0.2254965393576673,3.1902409030697063,348.6662476070848,-0.4660852375060358
1403638542827829504,60.990334,440.5789923632576,8.221241583333333,-0.2941994999999999,-3.1217835833333334,0.0565486677646162,-0.0523598775598298,0.2869321290278678,3.3277749617170254,347.84626423850676,-0.8199833685780504
1403638542877829376,52.554846,436.515127030666,11.155064374999998,0.8417374583333332,-3.857282333333333,0.122173047639603,-0.0523598775598298,0.2645919146023404,3.462191902877408,346.9231853831154,-0.9230788553913385
1403638542927829504,46.975612,427.8049527808057,9.675894666666666,-0.220649625,-3.8899711666666654,-0.0174532925199432,-0.1047197551196597,0.1877974275145898,3.686276507625519,345.8042394539195,-1.1189459291959452
1403638542977829376,39.108277,477.29517221065794,10.109021708333332,0.1797885833333333,-3.734699208333333,0.1012290966156711,-0.1989675347273535,0.1926843494201739,4.667365052798457,345.5916537678006,-0.21258568611887085
1403638543027829504,49.826383,307.10803076535365,9.422556208333331,0.220649625,-3.734699208333333,-0.0118682389135614,-0.0376991118430775,0.1745329251994329,4.633090136371145,343.62155807913706,-1.9700956886635481
1403638543077829376,61.679364,308.4120962239286,7.902525458333333,-0.5311935416666667,-3.0400615,0.0034906585039886,-0.0397935069454707,0.2234021442552742,3.933452059909468,342.39715313541916,-1.2244049437179
1403638543127829504,38.472652,330.5862573934095,9.504278291666663,0.93163175,-3.759215833333333,-0.0272271363311115,0.0272271363311115,0.057246799465414,4.054102211732269,341.18733984245944,-1.2098132929597227
1403638543177829376,64.250946,418.79367888153246,8.793296166666666,0.5311935416666667,-3.309744375,-0.0125663706143591,-0.0376991118430775,0.0949459113084915,3.1331558224043494,340.41680841293265,-0.770531429526784
1403638543227829504,35.914898,413.1019590437308,10.313326916666666,0.1144109166666666,-3.18716125,0.0202458193231342,0.0788888821901436,0.1542871058762987,3.759784475814988,339.09305109874106,-1.323757314191596
1403638543277829376,50.101757,416.5808211955541,7.363159708333333,0.7436709583333333,-3.138128,-0.0886627260013119,-0.0474729556542457,0.0586430628670094,3.6066567483279757,338.10239720792555,-0.9906538908155085
1403638543327829504,50.034761,409.97813042240006,9.978266375,-1.2176590416666666,-4.437509125,0.0328121899374933,-0.0251327412287183,0.1172861257340189,3.3532461388857167,337.05438034879035,-1.0480168591352026
1403638543377829376,49.86167,395.7700114331317,6.709383041666666,0.8907707083333333,-2.2228406666666665,0.0712094334813686,0.0349065850398865,0.0055850536063818,3.5822269953814807,336.07634406390883,-0.9780362848815116
1403638543427829504,50.061464,356.23584059675795,10.484943291666664,-0.1062387083333333,-2.4925235416666665,0.0767944870877505,-0.0733038285837618,0.0719075651821663,3.6730654217186873,334.8102648960719,-1.2660791678369492
1403638543477829376,49.923897,348.27888249525586,8.572646541666666,0.2778550833333333,-3.57942725,0.2241002759560719,0.018151424220741,-0.0495673507566389,3.6214374217446026,333.6635288495051,-1.1467360465667866
1403638543527829504,49.982786,289.06025958971725,9.373522958333332,0.8662540833333333,-3.162644625,0.2597049926967562,0.0579449311662117,-0.0551524043630208,4.272935240568256,334.1111696100387,0.44764076053360213
1403638543577829376,50.053597,270.9213056706492,7.207887749999999,0.0653776666666666,-2.5660734166666663,0.2778564169174973,0.0160570291183478,-0.1500983156715123,3.4237263409244627,332.9941180104839,-1.1170515995548271
1403638543627829504,49.726724,256.1669231590746,9.496106083333332,-0.5720545833333333,-2.9174783749999995,0.3769911184307752,-0.0055850536063818,-0.1333431548523667,3.3618124742393083,331.91718438181994,-1.0769336286639373
1403638543677829376,50.041914,240.59842707339104,10.378704583333333,0.0653776666666666,-3.906315583333333,0.3951425426515162,-0.0495673507566389,-0.1103048087260416,3.317916543788561,330.8864169859725,-1.0307673958474197
1403638543727829504,60.761214,239.50418018336265,9.210078791666666,0.8662540833333333,-3.015544875,0.4461061568097506,0.0523598775598298,-0.1207767842380075,3.4076890119874643,329.769822878322,-1.116594107650542
1403638543777829376,39.431572,234.7261003197219,9.430728416666666,-0.1062387083333333,-3.2770555416666665,0.4384267081009756,0.0397935069454707,-0.2715732316103177,3.321714962312334,328.5761726767974,-1.1936502015245765
1403638543827829504,50.121545,240.16862283006225,12.029490666666666,0.5475379583333333,-4.184170666666667,0.5431464632206354,0.0167551608191455,-0.1103048087260416,3.589771268190442,327.1753561146364,-1.400816562161026
1403638543877829376,50.133229,225.75978659061911,8.18855275,1.103248125,-3.718354791666666,0.486597795456019,-0.0321140582366956,-0.104021623418862,3.8361936385215447,325.90374512138476,-1.2716109932516133
1403638543927829504,49.78466,251.1282085241906,8.164036124999999,-0.34323275,-2.909306166666666,0.4195771521794367,0.0397935069454707,-0.0802851455917391,3.511745298110349,324.35689413914196,-1.5468509822428018
1403638543977829376,49.934864,240.16437130995328,10.092677291666664,0.1552719583333333,-5.287418791666666,0.4768239516448508,0.0160570291183478,0.0251327412287183,3.5433312554032916,322.6738110310054,-1.6830831081365432
1403638544027829504,58.26807,239.63810595771284,9.65955025,0.4249548333333333,-3.7837324583333327,0.3797836452339661,-0.0984365698124801,0.0893608577021096,3.620597823677408,320.9007515601029,-1.773059470902524
1403638544077829376,41.702032,296.3794436565533,8.237585999999999,0.2124774166666666,-2.9011339583333333,0.3015928947446201,0.0376991118430775,0.0041887902047863,3.542786935463512,318.9906509601295,-1.9101005999733616
1403638544127829504,50.28987,279.29052422165023,9.528794916666666,0.7109821249999999,-3.734699208333333,0.2988003679414292,0.0432841654494593,0.1843067690106012,3.447401034407807,317.24323629235045,-1.7474146677790827
1403638544177829376,62.063694,325.3653356514228,6.578627708333332,0.2043052083333333,-2.6886565416666666,0.1452113937659282,0.1186823891356144,0.0418879020478639,3.6126558872953893,315.06069075605217,-2.182545536298278
1403638544227829504,38.075924,383.065175847931,9.56148375,0.1307553333333333,-3.489532958333333,0.208043246837724,0.018151424220741,0.1850049007113989,3.4128082962134694,313.08859679237395,-1.972093963678219
1403638544277829376,60.639619,406.8847477021667,9.316317499999998,0.220649625,-3.4241552916666667,0.0977384381116824,0.0774926187885482,0.1186823891356144,3.184983483415743,311.5604214670624,-1.5281753253115653
1403638544327829504,43.180466,470.6975464361768,9.308145291666667,-0.5066769166666666,-3.2280222916666665,0.0335103216382911,-0.0460766922526503,0.0565486677646162,3.2658550665316617,309.69512110242715,-1.8653003646352317
1403638544377829376,46.13328,480.68534676589366,8.621679791666667,0.8662540833333333,-2.754034208333333,0.0963421747100869,-0.007679448708775,0.1214749159388053,2.91544889955549,308.11806325954234,-1.5770578428848125
1403638544427829504,50.134659,491.8111818183717,7.542948291666666,0.0408610416666666,-3.726527,-0.0481710873550434,-0.0349065850398865,0.0146607657167523,2.9092689511466956,306.53223986701323,-1.5858233925291074
1403638544477829376,61.091423,465.30223158051626,9.888372083333332,-0.220649625,-3.4813607499999994,0.025830872929516,0.1452113937659282,0.0656243798749867,2.429987203362036,305.4095191419378,-1.1227207250754532
1403638544527829504,38.814783,574.7502101738437,10.043644041666663,0.7273265416666667,-3.6284605,-0.018151424220741,0.0230383461263251,0.0586430628670094,2.362852806914257,304.34427134861306,-1.0652477933247155
1403638544577829376,60.343504,350.7500708678229,8.940395916666665,0.0163444166666666,-2.165635208333333,0.0474729556542457,0.2366666465704311,0.0397935069454707,3.0870488935255773,302.4464535341914,-1.8978178144216713
1403638544627829504,38.94043,353.60680896008216,10.754626166666666,0.4903325,-3.4323274999999995,0.0502654824574366,0.2548180707911721,0.0376991118430775,2.858444122866904,300.9233839062764,-1.5230696279149925
1403638544677829376,66.118478,476.5357880705813,9.545139333333331,0.3105439166666667,-3.661149333333333,-0.0013962634015954,0.1130973355292325,0.0272271363311115,3.173508752518406,299.1597787422532,-1.763605164023204
1403638544727829504,34.588814,661.8120790981042,7.9433865,0.0,-2.9256505833333333,0.018151424220741,0.007679448708775,0.054454272662223,3.1203832161074736,297.39121563784886,-1.7685631044043362
1403638544777829376,49.976349,663.605157822712,8.392857958333332,0.8253930416666666,-3.669321541666666,-0.0090757121103705,-0.1424188669627373,0.0474729556542457,2.8636298951796544,295.83507636796486,-1.5561392698839995
1403638544827829504,50.172806,663.9686679879728,10.395049,0.3514049583333333,-3.5957716666666664,0.0272271363311115,-0.1514945790731078,0.15079644737231,2.501927300955417,294.48355235218787,-1.351524015776988
1403638544877829376,60.885906,761.9912851033886,7.567464916666665,0.1552719583333333,-1.91229675,0.0,-0.0432841654494593,0.0823795406941323,2.2057543089886433,293.33991119627865,-1.143641155909222
1403638544927829504,39.287567,774.2643132634047,9.112012291666666,-0.2369940416666666,-2.974683833333333,0.0349065850398865,-0.0376991118430775,0.0872664625997164,3.0142331915487093,291.68610476335675,-1.6538064329218969
1403638544977829376,49.875498,746.2151514058619,8.809640583333332,0.6537766666666667,-3.4486719166666666,-0.0125663706143591,0.0900589894029074,0.0760963553869527,2.862417094040232,290.14014765042054,-1.5459571129362075
1403638545027829504,49.979687,731.3703634795904,8.687057458333333,-0.4903325,-2.9174783749999995,0.0307177948351002,0.085870199198121,0.0900589894029074,2.2606725635138565,289.0517079992006,-1.0884396512199714
1403638545077829376,49.942493,744.9688632421503,8.008764166666666,-0.0572054583333333,-2.3454237916666667,-0.0188495559215387,-0.0097738438111682,0.0335103216382911,2.601495134155691,287.6494075269324,-1.4023004722681662
1403638545127829504,49.855948,844.9166094609361,8.7279185,0.2778550833333333,-4.527403416666666,0.0272271363311115,-0.0335103216382911,0.0851720674973232,2.32922450004048,286.52146333056015,-1.1279441963722547
1403638545177829376,50.156355,863.391646492914,8.237585999999999,-0.196133,-2.280046125,0.007679448708775,-0.0223402144255274,-0.0390953752446729,2.1950974568520634,285.5379922084552,-0.9834711221049588
1403638545227829504,50.243139,840.5636974473139,9.185562166666664,-0.0081722083333333,-4.445681333333333,0.0111701072127637,-0.0453785605518525,0.0509636141582344,9.119120273352427,280.97005105823325,-4.567941150221941
1403638545277829376,49.674749,733.1311883927061,8.278447041666666,0.1389275416666666,-3.0564059166666664,0.0006981317007977,0.1480039205691191,0.0474729556542457,2.1707742880615926,280.1846663782106,-0.7853846800226734
1403638545327829504,60.665369,799.5664431267578,7.976075333333333,-0.7600153749999999,-3.08909475,0.0188495559215387,0.132645023151569,0.0565486677646162,4.884193357820847,285.6022983965288,5.417632018318216
1403638545377829376,50.042629,853.9542877729837,9.438900625,-0.4331270416666666,-3.930832208333333,0.0272271363311115,0.007679448708775,0.1591740277818828,1.5333330865033978,285.9036684208552,0.3013700243263884
1403638545427829504,52.883864,937.9258961696038,8.466407833333333,0.220649625,-3.366949833333333,0.0677187749773799,0.0551524043630208,0.0488692190558412,1.8115259086807316,285.8943948648126,-0.009273556042558084
1403638545477829376,46.931028,896.1199851168822,10.109021708333332,-0.6456044583333332,-3.898143375,0.1277581012459849,0.007679448708775,0.0963421747100869,2.0301028708747904,285.6116295362821,-0.28276532853050185
1403638545527829504,39.421559,816.3300763448464,9.692239083333332,-0.2860272916666666,-2.705000958333333,0.1710422666954443,-0.0397935069454707,0.0055850536063818,2.226719179834908,285.1590898979122,-0.45253963836989897
1403638545577829376,49.935817,797.639475719889,10.681076291666663,-0.2369940416666666,-4.094276375,0.3344050846821135,-0.0460766922526503,0.0691150383789754,1.9972083975733426,284.7255443432741,-0.4335455546381013
1403638545627829504,49.793244,695.249739355653,9.479761666666668,0.3595771666666666,-3.0400615,0.2994984996422269,0.0425860337486616,-0.0153588974175501,2.4053333188591814,284.06294417709665,-0.6626001661774694
1403638545677829376,50.359964,704.8313080123412,10.64021525,-1.2176590416666666,-4.314926,0.3309144261781249,-0.0439822971502571,-0.0558505360638185,2.1645722671779013,283.44669591531175,-0.6162482617849037
1403638545727829504,62.285423,673.4576279094914,12.021318458333331,0.465815875,-3.8245935,0.468446371235278,0.0851720674973232,-0.054454272662223,2.1939531296181736,283.74596515354375,0.29926923823200013
1403638545777829376,37.314892,728.9840972794169,9.128356708333332,0.2533384583333333,-3.759215833333333,0.3958406743523139,0.0251327412287183,-0.1731366617978375,2.1105465342610263,282.9826341836039,-0.7633309699398296
1403638545827829504,50.279856,672.1032460266193,10.877209291666668,-0.4576436666666666,-3.415983083333333,0.4768239516448508,-0.0048869219055841,-0.0963421747100869,0.972490147882866,283.4765911078097,0.49395692420580417
1403638545877829376,50.159931,709.5615513697801,8.458235625,0.7600153749999999,-3.3015721666666664,0.5396558047166466,0.0914552528045028,-0.2401573050744197,1.8699849680271285,282.763615889472,-0.7129752183377036
1403638545927829504,49.700499,686.4237158541749,11.097858916666665,0.4576436666666666,-3.612116083333333,0.4858996637552213,0.0020943951023931,-0.1396263401595463,2.048031083420241,281.7922070976424,-0.9714087918296173
1403638545977829376,60.402631,746.2049508858024,9.455245041666666,-0.661948875,-3.67749375,0.4286528642898072,0.0509636141582344,-0.2366666465704311,2.094504982333874,280.68324963345697,-1.108957464185437
1403638546027829504,52.2995,796.7134791638849,9.814822208333332,0.3350605416666666,-3.514049583333333,0.4105014400690662,-0.0376991118430775,-0.1947787445225671,1.9742151362860068,279.65259742264845,-1.0306522108085119
1403638546077829376,47.915936,811.2952849600383,7.79628675,0.2369940416666666,-3.138128,0.3420845333908886,0.0488692190558412,-0.1270599695451872,1.9314283066634432,278.62573769494117,-1.02685972770729
1403638546127829504,39.43777,840.9536178265746,7.395848541666666,0.612915625,-2.89296175,0.2981022362406315,0.0321140582366956,-0.0530580092606276,1.4720925402433447,278.2051857827662,-0.4205519121749717
1403638546177829376,49.472809,870.4384262699733,9.46341725,-0.3350605416666666,-3.3996386666666667,0.2548180707911721,-0.0872664625997164,0.1005309649148733,1.7647134725235243,277.4814051757881,-0.7237806069780959
1403638546227829504,51.241875,949.6155470370668,9.136528916666666,0.5557101666666666,-2.50069575,0.2387610416728242,0.0209439510239319,-0.0013962634015954,1.844600962791047,276.7656915210171,-0.7157136547709797
1403638546277829376,56.3941,908.3570842163954,8.613507583333332,0.6292600416666666,-2.9174783749999995,0.1500983156715123,-0.0321140582366956,0.132645023151569,1.8544870291955302,276.12347794582485,-0.6422135751922724
1403638546327829504,56.006193,931.3038338416004,9.1201845,-0.7763597916666666,-3.3751220416666667,0.1438151303643327,0.0970403064108847,0.1452113937659282,1.8938388518952576,275.5602334471348,-0.5632444986900396
1403638546377829376,48.083782,1113.8017639426942,8.327480291666665,0.5475379583333333,-3.8164212916666655,0.1263618378443894,0.0027925268031909,0.122173047639603,1.9091117755108622,275.13550075700124,-0.42473269013356685
1403638546427829504,39.181471,1087.3883912196268,7.788114541666666,0.7436709583333333,-2.778550833333333,0.0174532925199432,0.0488692190558412,0.0174532925199432,2.074623547581059,274.65540049091334,-0.48010026608790213
1403638546477829376,49.796105,1200.925018392509,9.381695166666669,-0.6864655000000001,-3.9390044166666662,0.075398223686155,-0.0439822971502571,0.1389282084587486,1.7433053729458705,274.569747211462,-0.0856532794513214
1403638546527829504,50.338983,1151.5031793456956,10.158054958333333,-0.318716125,-4.976874874999999,0.0607374579694026,-0.018151424220741,-0.0635299847725936,2.0952663797566826,274.3106196134083,-0.25912759805373753
1403638546577829376,51.426173,1073.1950424726142,10.950759166666666,-0.1470997499999999,-4.690847583333333,0.161268422884276,0.0411897703470661,0.0209439510239319,2.2203357009075524,273.9109705151949,-0.3996490982133878
1403638546627829504,49.189329,1052.9849502248037,10.468598874999998,-0.122583125,-3.832765708333333,0.161268422884276,-0.0132645023151569,0.0097738438111682,2.162298445660363,273.5060848820959,-0.4048856330990134
1403638546677829376,49.702406,992.9053555462174,8.801468374999999,-0.1879607916666666,-2.705000958333333,0.1473057888683213,0.0656243798749867,-0.0342084533390888,2.2417300581093147,272.97672595922677,-0.5293589228691076
1403638546727829504,49.847602,1079.5601113214204,11.637224666666668,-0.8499096666666667,-2.99102825,0.1089085453244461,0.0055850536063818,-0.018151424220741,2.0150876147495147,272.8196876868234,-0.15703827240338342
1403638546777829376,50.642968,1029.7001289446805,8.401030166666667,-0.2369940416666666,-3.702010375,0.1110029404268393,-0.0048869219055841,0.0460766922526503,2.1018652047638766,272.08559653430723,-0.7340911525161573
1403638546827829504,49.485922,1029.3967966134028,8.490924458333334,-0.6537766666666667,-5.892162208333333,0.0656243798749867,0.0251327412287183,0.0,2.267508544011575,271.52546475276876,-0.5601317815384732
1403638546877829376,49.823999,1088.434666878576,8.87501825,-0.8253930416666666,-5.279246583333333,0.0488692190558412,0.0698131700797731,0.0111701072127637,2.993491507942496,270.176353938588,-1.349110814180733
1403638546927829504,50.408602,1147.5031744336566,7.036271375,0.5883989999999999,-1.81423025,0.0202458193231342,0.0167551608191455,-0.0705113017805709,19.672164175925378,258.84856957175646,-11.327784366831565
1403638546977829376,49.358129,1129.4681878863505,9.373522958333332,0.34323275,-3.268883333333333,0.0132645023151569,-0.0034906585039886,0.0202458193231342,2.9459702811407014,257.47722172888945,-1.37134784286701
1403638547027829504,61.106682,1118.3039987537588,7.755425708333333,-1.2176590416666666,-3.1544724166666662,-0.0153588974175501,-0.0411897703470661,-0.0314159265358979,2.1014786795498557,256.81381838240657,-0.6634033464828804
1403638547077829376,39.26754,1111.9458190310029,9.80665,0.024516625,-3.930832208333333,-0.0656243798749867,-0.0013962634015954,-0.1563815009786919,3.0310722371486896,255.79302157712488,-1.020796805281691
1403638547127829504,50.009251,1173.5754125476683,6.970893708333333,-0.1470997499999999,-2.525212375,0.0132645023151569,0.0272271363311115,-0.0244346095279206,3.1080471356419657,254.2595382309541,-1.533483346170783
1403638547177829376,49.893856,1181.6768597323694,9.299973083333333,0.2860272916666666,-3.3751220416666667,-0.0083775804095727,-0.0691150383789754,0.0356047167406843,3.282063492421119,252.85474960662273,-1.4047886243313599
1403638547227829504,49.912452,1125.2652882538985,8.458235625,-0.4576436666666666,-2.754034208333333,-0.0509636141582344,0.0970403064108847,0.046774823953448,3.222393160063318,252.1067852702568,-0.747964336365925
1403638547277829376,60.811997,1161.192725514541,7.616498166666665,0.0735498749999999,-3.8245935,-0.0439822971502571,0.0279252680319092,0.0614355896702004,3.254828780666515,251.08769175095017,-1.0190935193066366
1403638547327829504,39.285183,1070.2973563197852,10.24794925,-0.024516625,-3.195333458333333,0.0984365698124801,0.0069813170079773,0.3316125578789226,3.3394927197363358,250.33412014348917,-0.7535716074609979
1403638547377829376,49.962759,1099.6622347403008,9.095667875,-0.7028099166666667,-4.625469916666667,0.025830872929516,-0.0907571211037051,0.1696460032938488,3.5128020721598445,249.75945860713668,-0.5746615363524938
1403638547427829504,60.71496,1038.567342247767,9.7085835,0.6701210833333332,-3.293399958333333,0.0900589894029074,0.0558505360638185,0.2583087292951608,3.4951231722394143,249.24494770136482,-0.5145109057718571
1403638547477829376,38.604975,979.4368758314774,7.820803375,-0.2778550833333333,-2.778550833333333,-0.0097738438111682,-0.0495673507566389,0.2247984076568696,3.5815168491222042,248.92523509989263,-0.31971260147219027
