stamp,img_delta,blur,lin_acc.x,lin_acc.y,lin_acc.z,ang_vel.x,ang_vel.y,ang_vel.z,rpe,ate,drift
1403636580963555584,50.57311,295.075412051192,8.123175083333333,0.122583125,-3.751043625,-0.0726056968829641,0.3232349774693498,-0.0069813170079773,14.471118143808956,14.471118143808978,14.471118143808978
1403636581013555456,49.734831,317.76830118686155,7.9433865,-0.1389275416666666,-3.178989041666666,0.0293215314335047,0.2932153143350474,0.0747000919853573,6.030060523968908,20.48176208692075,6.010643943111772
1403636581063555584,59.819698,336.094721139486,8.213069375,0.0898942916666666,-2.827584083333333,-0.0397935069454707,0.2981022362406315,0.2038544566329376,7.914942125436151,28.33577076824345,7.8540086813227
1403636581113555456,44.092179,317.62326531878347,8.213069375,0.0898942916666666,-2.827584083333333,-0.0397935069454707,0.2981022362406315,0.2038544566329376,5.513005864741535,33.8004696949926,5.464698926749151
1403636581163555584,45.924902,333.8582387716372,7.976075333333333,0.416782625,-3.178989041666666,0.0013962634015954,0.3364994797845067,0.1466076571675237,4.581892291018103,38.332143649558205,4.531673954565605
1403636581213555456,49.942255,311.84774189481,7.918869874999999,-0.2288218333333333,-2.6477955,-0.0523598775598298,0.3553490357060455,0.1996656664281513,4.934661488681721,42.80165294397513,4.469509294416923
1403636581263555584,61.034202,368.18617940220105,6.235394958333333,-0.53936575,-2.0267076666666664,-0.0230383461263251,0.3092723434533951,0.057246799465414,6.147808903274551,48.89789146700349,6.0962385230283616
1403636581313555456,38.819313,423.3348107646747,6.235394958333333,-0.53936575,-2.0267076666666664,-0.0230383461263251,0.3092723434533951,0.057246799465414,3.452250603862045,52.24330898342105,3.3454175164175624
1403636581363555584,60.877085,706.9276681740287,5.810440125,-0.0653776666666666,-1.6834749166666665,-0.0928515162060983,0.0293215314335047,-0.0209439510239319,0.9524325740992594,51.326576990149064,-0.9167319932719877
1403636581413555456,50.985575,898.7292284889082,5.998400916666666,0.1307553333333333,-1.7161637499999998,-0.0488692190558412,-0.1096066770252439,-0.0705113017805709,0.8232141427631546,51.858974638876596,0.5323976487275317
1403636581463555584,38.339853,627.8675556700354,5.998400916666666,0.1307553333333333,-1.7161637499999998,-0.0488692190558412,-0.1096066770252439,-0.0705113017805709,1.361353181935321,50.51112822377398,-1.347846415102616
1403636581513555456,60.645342,477.68341668448966,7.2487487916666655,-0.171616375,-2.30456275,-0.0237364778271228,-0.2443460952792061,0.1633628179866692,4.045507860865066,46.48595588812922,-4.025172335644761
1403636581563555584,44.967651,403.2026616945042,7.2487487916666655,-0.171616375,-2.30456275,-0.0237364778271228,-0.2443460952792061,0.1633628179866692,4.945339178470158,41.62972560746992,-4.856230280659297
1403636581613555456,44.479609,403.1741312812884,7.9433865,0.0408610416666666,-2.378112625,0.0747000919853573,-0.2268928027592628,0.093549647906896,4.39449016162017,37.33810102758774,-4.291624579882182
1403636581663555584,60.447454,432.5322688743063,8.229413791666666,-0.2778550833333333,-3.0564059166666664,0.0747000919853573,-0.1089085453244461,-0.0153588974175501,5.653921406276689,31.967468353509542,-5.370632674078198
1403636581713555456,50.137043,367.6807377370697,9.430728416666666,-0.1307553333333333,-3.4568441249999995,0.0153588974175501,-0.0335103216382911,0.0956440430092892,6.200657551085356,25.86016196673842,-6.107306386771121
1403636581763555584,39.574147,404.2509303480711,9.430728416666666,-0.1307553333333333,-3.4568441249999995,0.0153588974175501,-0.0335103216382911,0.0956440430092892,5.405525838947617,20.611117370471767,-5.249044596266653
1403636581813555456,49.95346,366.736618190612,8.850501625,-0.1879607916666666,-3.260711125,0.1577777643802873,-0.0656243798749867,0.143116998663535,6.548928576732457,14.325176961198993,-6.285940409272774
1403636581863555584,50.074101,373.80182120812896,9.128356708333332,-0.392266,-3.415983083333333,-0.028623399732707,-0.0837758040957278,0.0823795406941323,6.465416009611092,8.259160059918587,-6.066016901280406
1403636581913555456,61.024666,322.51026076711,10.092677291666664,-0.5883989999999999,-3.268883333333333,-0.1186823891356144,-0.2771582852166995,0.1242674427419962,5.99273397997637,3.3845770788154343,-4.874582981103153
1403636581963555584,38.841486,291.0877900899805,10.092677291666664,-0.5883989999999999,-3.268883333333333,-0.1186823891356144,-0.2771582852166995,0.1242674427419962,5.70757901947524,4.526509219952362,1.1419321411369276
1403636582013555456,49.934864,273.7819191842833,10.019127416666668,-0.04903325,-4.175998458333333,-0.1193805208364121,-0.3197443189653611,0.0809832772925368,5.494912612740564,9.375007340015472,4.84849812006311
1403636582113555456,50.046444,256.7156031591092,11.024309041666667,-0.44129925,-4.95235825,0.0139626340159546,-0.3204424506661589,0.0111701072127637,4.216097514767208,13.110169770286284,3.7351624302708117
1403636582213555456,60.91094,404.3613294504831,12.405412249999998,-0.1634441666666666,-5.181180083333333,0.0244346095279206,-0.0949459113084915,0.0621337213709981,5.192238632794743,17.839567818479455,4.729398048193172
1403636582313555456,49.850703,397.5404395938473,12.119384958333333,-0.269682875,-5.606134916666666,0.0523598775598298,0.0034906585039886,0.0872664625997164,2.292567694686451,16.185480455558082,-1.6540873629213735
1403636582363555584,53.645372,279.69500766314184,10.419565625,0.0735498749999999,-4.748053041666666,-0.0097738438111682,0.3134611336581816,0.0600393262686049,4.597413455004044,11.717866109023943,-4.467614346534139
1403636582413555456,36.225319,249.5296830135814,10.419565625,0.0735498749999999,-4.748053041666666,-0.0097738438111682,0.3134611336581816,0.0600393262686049,5.204183718740674,6.784811262781116,-4.933054846242826
1403636582463555584,50.559759,257.97418645542274,10.158054958333333,0.0572054583333333,-4.135137416666667,0.0006981317007977,0.335801348083709,0.1026253600172665,5.98533215155198,2.8602877927088586,-3.9245234700722578
1403636582513555456,62.027216,290.7092629194779,9.005773583333333,0.2043052083333333,-3.8164212916666655,-0.0844739357965255,0.208043246837724,0.0670206432765822,7.432206342174133,7.941197140384785,5.080909347675927
1403636582713555456,59.791803,392.457236183335,8.360169125,0.0980665,-3.4241552916666667,-0.093549647906896,0.1682497398922533,0.1549852375770964,17.074696777939003,12.82811825162069,4.886921111235905
1403636582813555456,45.182943,321.8049680303617,9.586000375,0.367749375,-3.309744375,-0.1640609496874669,0.2324778563656447,0.1780235837034216,6.508567611501014,18.180351155610172,5.352232903989481
1403636582863555584,50.086022,291.991663156984,7.878008833333333,-0.3268883333333333,-3.554910625,-0.1591740277818828,0.3169517921621702,0.200363798128949,3.8724991813771834,21.56366082474747,3.3833096691372972
1403636582913555456,55.081844,307.52956291300427,8.3356525,0.0081722083333333,-2.99102825,-0.1158898623324234,0.3672172746196069,0.1940806128217694,3.1411479077549433,24.435119059977772,2.8714582352303033
1403636584563555584,49.929857,285.4863616634131,9.259112041666668,0.2778550833333333,-3.8654545416666655,-0.08307767239493,0.2932153143350474,0.0453785605518525,13.953350013031098,11.07577944305072,-13.359339616927052
1403636584663555584,58.361054,252.2727263460188,7.510259458333333,0.0898942916666666,-3.195333458333333,-0.1333431548523667,0.4656538444320871,0.1228711793404008,7.226059439233958,17.87600895786817,6.800229514817449
1403636584813555456,49.581051,326.06285646679504,7.346815291666666,0.220649625,-2.557901208333333,-0.0272271363311115,0.2715732316103177,0.1850049007113989,10.868446100622302,28.676200001909663,10.800191044041494
1403636584913555456,45.48192,610.8213042981412,6.22722275,-0.1144109166666666,-1.871435708333333,0.0397935069454707,0.1884955592153876,0.1759291886010284,4.783899758227599,32.87772311432725,4.20152311241759
1403636584963555584,49.986363,776.0558942147965,6.799277333333333,0.63743225,-1.5608917916666667,-0.0788888821901436,0.0914552528045028,0.2157226955464991,1.1307093818506337,33.97526008754361,1.0975369732163571
1403636585013555456,56.794881,1029.465479462413,7.036271375,0.3023717083333333,-1.8550912916666664,-0.0984365698124801,-0.0628318530717958,0.0949459113084915,0.6889704807014991,34.35152775816244,0.37626767061883015
1403636585063555584,43.640614,886.627514530518,7.036271375,0.3023717083333333,-1.8550912916666664,-0.0984365698124801,-0.0628318530717958,0.0949459113084915,0.3452684300963392,34.174571683814456,-0.17695607434798433
1403636585113555456,49.656153,810.3935523761095,6.652177583333333,0.2288218333333333,-2.0267076666666664,0.0153588974175501,-0.0760963553869527,0.1110029404268393,0.9959128687035668,33.32730190246621,-0.8472697813482455
1403636585163555584,55.822849,648.680786847138,7.722736874999999,0.1307553333333333,-2.0675687083333334,-0.1179842574348166,-0.1012290966156711,0.0390953752446729,1.6541973980532372,31.83857183894454,-1.4887300635216718
1403636585213555456,44.035673,598.4291784014974,7.79628675,0.2941994999999999,-2.329079375,-0.1214749159388053,-0.1117010721276371,0.0733038285837618,2.1541348797798334,29.892971912746596,-1.9455999261979429
1403636585263555584,50.119877,613.211880357615,8.719746291666667,-0.1470997499999999,-2.7131731666666665,-0.1061160185212552,-0.1047197551196597,-0.1207767842380075,2.499597225582744,27.754107343102767,-2.138864569643829
1403636585313555456,61.348438,451.351267242731,9.144701125,0.3105439166666667,-3.0400615,-0.0048869219055841,-0.114493598930828,-0.036302848441482,2.78823816052993,25.353671564998436,-2.400435778104331
1403636585363555584,49.831629,439.73543734926784,9.586000375,0.0163444166666666,-3.4486719166666666,-0.0027925268031909,-0.132645023151569,-0.0383972435438752,2.9862409238571277,22.898935252661275,-2.454736312337161
1403636585413555456,38.491011,406.6188253069632,9.586000375,0.0163444166666666,-3.4486719166666666,-0.0027925268031909,-0.132645023151569,-0.0383972435438752,2.762584718131136,20.810038184409837,-2.0888970682514376
1403636585463555584,55.174589,377.7254064132072,9.095667875,0.0572054583333333,-3.8082490833333327,0.143116998663535,-0.1745329251994329,0.0279252680319092,2.8299308519454938,18.680579094517906,-2.129459089891931
1403636585613555456,61.181545,322.8867570930013,10.419565625,-0.122583125,-4.797086291666667,0.2638937829015426,-0.2429498318776106,0.1459095254667259,7.774222754577869,10.878530684682536,-7.80204840983537
1403636585713555456,49.897194,338.08550058121097,10.533976541666666,0.5148491249999999,-3.832765708333333,0.2241002759560719,-0.2729694950119131,0.1864011641129944,4.529822852031581,10.264986406748486,-0.6135442779340501
1403636585763555584,50.089836,361.471019827733,10.468598874999998,-0.3595771666666666,-4.380303666666666,0.1661553447898601,-0.2953097094374406,0.1926843494201739,1.6106552493808504,10.565633225529123,0.3006468187806366
1403636585963555584,39.538146,352.5517791347333,9.136528916666666,-0.1062387083333333,-4.069759749999999,-0.0607374579694026,-0.4377285764001778,0.1459095254667259,4.653787349164318,6.199021930454938,-4.366611295074184
1403636586063555584,55.482149,344.68151569585,8.719746291666667,-0.416782625,-4.985047083333333,-0.3399901382884954,-0.4796164784480418,0.0991347015132779,0.7932388294826321,5.687806823804218,-0.5112151066507202
1403636586113555456,54.945707,405.4361015348146,8.294791458333332,-0.4086104166666666,-5.410001916666666,-0.2017600615305445,-0.3455751918948772,0.1891936909161853,0.16526211528928902,5.6573303699696815,-0.030476453834536343
1403636586163555584,40.039062,483.57960933951045,8.294791458333332,-0.4086104166666666,-5.410001916666666,-0.2017600615305445,-0.3455751918948772,0.1891936909161853,1.3753903105073335,6.445463536349373,0.7881331663796916
1403636586213555456,59.668065,391.9836730910905,7.788114541666666,0.2369940416666666,-5.475379583333333,-0.0383972435438752,-0.3741985916275842,0.1228711793404008,0.46735313098303616,6.021382168514,-0.424081367835373
1403636586263555584,51.542759,339.90127222783667,7.436709583333332,-0.04903325,-5.93302325,-0.0349065850398865,-0.3741985916275842,0.2143264321449036,0.5632371344526977,6.001806834200481,-0.019575334313518766
1403636586563555584,50.176621,499.0049409265588,7.673703624999999,0.24516625,-6.088295208333333,0.0516617458590321,-0.2227040125544764,0.0041887902047863,5.976121732712391,8.62496772135589,2.623160887155409
1403636586663555584,49.697161,742.7246038452411,7.739081291666666,-0.122583125,-6.145500666666667,-0.0188495559215387,0.025830872929516,0.0879645943005142,1.778078443565973,7.8908766243685,-0.7340910969873908
1403636586713555456,50.231934,630.6670337133876,7.1588545,-0.5311935416666667,-5.990228708333333,0.0635299847725936,0.1514945790731078,0.0984365698124801,0.970547066401838,7.57127563726792,-0.3196009871005794
1403636586763555584,60.564995,597.6050870402282,7.019926958333333,-0.4249548333333333,-6.039261958333333,0.0425860337486616,0.1870992958137921,0.064926248174189,0.8666408353945573,7.682969699763792,0.11169406249587155
1403636586813555456,49.990415,604.651314218035,7.142510083333334,-1.12776475,-6.129156249999999,0.0530580092606276,0.1570796326794896,0.0230383461263251,0.8502098309958566,7.584296186609646,-0.09867351315414563
1403636586863555584,39.34598,767.0270325810396,7.142510083333334,-1.12776475,-6.129156249999999,0.0530580092606276,0.1570796326794896,0.0230383461263251,0.8496999068476631,7.784067180238374,0.19977099362872774
1403636586913555456,55.022001,772.1579962334038,7.420365166666667,-0.7518431666666666,-6.153672874999999,0.0663225115757845,0.132645023151569,-0.0153588974175501,0.2838504125972291,7.986582191485415,0.20251501124704152
1403636586963555584,48.918247,854.0219501968643,7.788114541666666,-0.1879607916666666,-6.161845083333333,0.0747000919853573,0.0914552528045028,0.007679448708775,0.4019423909924135,8.090315950366382,0.10373375888096614
1403636587013555456,47.83535,857.6256281277333,7.256920999999999,-0.6047434166666666,-6.202706124999999,0.0823795406941323,0.054454272662223,-0.0342084533390888,0.357017743966023,8.024055822535587,-0.0662601278307946
1403636587063555584,49.561501,885.1513014338315,7.690048041666667,-0.0817220833333333,-6.390666916666666,0.018151424220741,-0.0432841654494593,-0.0167551608191455,0.363082689419343,8.143246981506612,0.1191911589710255
1403636587113555456,55.088043,890.1768316164939,7.240576583333333,0.1389275416666666,-6.080123,0.0237364778271228,-0.0774926187885482,0.0188495559215387,0.3379702367557789,8.224564769406973,0.08131778790036037
1403636587363555584,49.941301,526.9613084370557,7.469398416666666,0.2043052083333333,-6.366150291666666,-0.0370009801422797,-0.0020943951023931,0.1445132620651305,6.005076462116932,9.702910731312874,1.4783459619059016
1403636587463555584,39.477349,446.1231627914409,7.469398416666666,0.24516625,-6.537766666666666,-0.0153588974175501,-0.0237364778271228,0.1891936909161853,4.371873585601282,11.524508242512246,1.8215975111993714
1403636587513555456,50.036192,421.6803181901598,7.232404375,0.4249548333333333,-6.562283291666667,-0.0216420827247296,-0.018151424220741,0.1452113937659282,3.0040674898139117,13.391945623549745,1.8674373810374991
1403636587813555456,38.805247,324.8961989847588,7.10982125,-0.5475379583333333,-6.161845083333333,-0.1270599695451872,0.1270599695451872,0.1682497398922533,12.462616455460608,22.231616281469773,8.839670657920028
1403636587913555456,49.871445,320.7117298001232,7.044443583333333,-0.7273265416666667,-6.317117041666666,-0.1263618378443894,-0.0502654824574366,0.1382300767579508,6.99518205230497,28.42669554491115,6.195079263441379
1403636588113555456,38.34939,350.96324183898315,7.216059958333333,-0.7927042083333332,-6.725727458333332,-0.0265290046303138,-0.0970403064108847,0.1005309649148733,14.320251926946764,27.369164669730957,-1.0575308751801948
1403636588213555456,60.540676,445.212577508754,7.2487487916666655,-1.3811032083333332,-6.61948875,0.0404916386462684,0.0726056968829641,0.1179842574348166,3.6728982082095545,29.728672821580133,2.3595081518491767
1403636588263555584,39.62779,551.2900189010277,7.2487487916666655,-1.3811032083333332,-6.61948875,0.0404916386462684,0.0726056968829641,0.1179842574348166,1.5383260987738026,30.646576767348897,0.9179039457687637
1403636588313555456,49.983025,597.8364319868057,7.077132416666666,-1.0950759166666666,-6.701210833333333,0.0614355896702004,0.0837758040957278,0.0684169066781777,0.8524923928126954,31.191870198127138,0.5452934307782407
1403636588363555584,50.017357,589.3927631649217,7.175198916666666,-1.3157255416666664,-6.856482791666667,0.0677187749773799,0.0977384381116824,0.1172861257340189,0.5246974820823046,31.566203924015205,0.3743337258880679
1403636588413555456,49.810648,614.9364159344534,7.10982125,-1.2176590416666666,-6.594972124999999,0.0230383461263251,0.075398223686155,0.1130973355292325,0.21255987612204585,31.491188546921634,-0.07501537709357109
1403636588463555584,61.141014,622.5074856602536,7.534776083333333,-1.438308666666667,-6.815621749999999,-0.0621337213709981,0.0027925268031909,0.0328121899374933,0.3361175704607885,31.18819320384509,-0.30299534307654596
1403636588513555456,38.33723,579.4157890313378,7.534776083333333,-1.438308666666667,-6.815621749999999,-0.0621337213709981,0.0027925268031909,0.0328121899374933,0.6416643741683645,30.647724774103036,-0.5404684297420523
1403636588563555584,50.652981,489.1807320033692,7.232404375,-1.4056198333333334,-6.668522,-0.046774823953448,0.0307177948351002,0.0593411945678072,0.8909415920639832,29.98189445459843,-0.6658303195046074
1403636588613555456,54.361344,396.8798993264992,7.346815291666666,-1.22583125,-6.799277333333333,0.018151424220741,0.0342084533390888,0.0991347015132779,1.5409458070348716,28.959604769404358,-1.022289685194071
1403636588663555584,45.543909,377.2199158983914,6.676694208333332,-1.0869037083333333,-6.276256,0.0251327412287183,0.0356047167406843,0.0425860337486616,1.7337893121073151,27.70229031732428,-1.2573144520800774
1403636588713555456,49.71075,321.53284143731383,7.052615791666666,-0.907115125,-6.390666916666666,0.1019272283164688,-0.0237364778271228,0.0837758040957278,2.2421013522653888,26.076104225852564,-1.626186091471716
1403636588763555584,50.035,325.94614316238136,7.085304625,-0.956148375,-6.407011333333333,0.0712094334813686,-0.0460766922526503,0.0013962634015954,2.3541471868260873,24.419441291748743,-1.6566629341038208
1403636588813555456,50.183773,318.4361377078074,7.207887749999999,-0.956148375,-6.22722275,0.0712094334813686,-0.0411897703470661,0.0195476876223364,2.7915833295629495,22.71234587796976,-1.7070954137789833
1403636588863555584,60.079575,285.3374380638223,7.093476833333334,-0.83356525,-6.791105125,0.0907571211037051,0.0307177948351002,0.0244346095279206,3.0119342176257247,21.276184119613685,-1.436161758356075
1403636588913555456,44.086218,310.00023270831446,7.093476833333334,-0.83356525,-6.791105125,0.0907571211037051,0.0307177948351002,0.0244346095279206,3.207033128021334,20.242512193210022,-1.0336719264036631
1403636589013555456,59.999943,288.0721253878102,7.314126458333333,-0.4739880833333333,-6.415183541666666,0.1068141502220529,0.1207767842380075,0.0020943951023931,4.102022458799019,19.321987004098283,-0.9205251891117392
1403636589113555456,45.055628,305.4602198458944,7.461226208333334,-0.83356525,-6.390666916666666,0.1186823891356144,0.124965574442794,0.0048869219055841,7.8910287536897386,18.319383957382858,-1.002603046715425
1403636589513555456,50.679445,356.97205278995915,7.3549875,-0.5475379583333333,-6.537766666666666,0.0495673507566389,0.0656243798749867,0.0565486677646162,22.371237440259588,26.81258756475609,8.493203607373232
1403636589813555456,49.802542,331.25544112849866,7.134337875,0.2124774166666666,-6.1209840416666665,0.1514945790731078,-0.0795870138909414,-0.0048869219055841,18.103990306292214,26.943214102148684,0.1306265373925939
1403636589913555456,49.715996,342.97242939237685,7.199715541666666,0.0817220833333333,-6.439700166666666,0.1577777643802873,-0.1019272283164688,0.0446804288510548,7.358774675267635,33.78778758176688,6.8445734796181945
1403636590063555584,50.185919,502.959188643099,7.371331916666667,0.2288218333333333,-6.505077833333333,0.114493598930828,0.1424188669627373,0.0160570291183478,15.598004807724209,30.86406274906619,-2.923724832700689
1403636590163555584,49.996137,753.440421401189,7.428537374999999,0.6537766666666667,-6.439700166666666,0.0970403064108847,0.1389282084587486,0.0383972435438752,3.7091649114354928,33.70717456397354,2.843111814907349
1403636590213555456,50.333977,1043.3777235780235,7.616498166666665,0.5965712083333333,-6.456044583333333,0.028623399732707,0.0914552528045028,0.0614355896702004,0.8722483794589394,34.349767292544044,0.6425927285705058
1403636590263555584,60.686827,1138.4342258575898,7.485742833333332,0.4739880833333333,-6.268083791666666,-0.0614355896702004,-0.0223402144255274,0.0537561409614253,0.530790209928342,34.18564408480528,-0.16412320773876132
1403636590313555456,50.271988,876.8206102088677,7.477570624999999,0.5148491249999999,-6.431527958333334,-0.1082104136236484,-0.025830872929516,0.0879645943005142,0.5796339108360765,33.617686686447485,-0.5679573983577981
1403636590363555584,49.32189,659.4345540438189,7.428537374999999,0.465815875,-6.415183541666666,-0.1193805208364121,0.0048869219055841,0.0872664625997164,1.0576171904355272,33.02685933608738,-0.590827350360108
1403636590413555456,43.031215,520.5018033230878,7.428537374999999,0.465815875,-6.415183541666666,-0.1193805208364121,0.0048869219055841,0.0872664625997164,1.7391369229601896,31.845700962833316,-1.1811583732540605
1403636590463555584,56.362391,425.7964551472622,7.485742833333332,0.2778550833333333,-6.137328458333333,-0.1354375499547599,0.0809832772925368,0.0851720674973232,2.1220864807714817,30.25851139121408,-1.5871895716192377
1403636590513555456,39.931774,403.4597579769244,7.485742833333332,0.2778550833333333,-6.137328458333333,-0.1354375499547599,0.0809832772925368,0.0851720674973232,2.649196621165632,28.421970237243325,-1.836541153970753
1403636590563555584,59.326649,396.29427367494026,7.338643083333332,0.0980665,-5.93302325,-0.1235693110411985,0.0809832772925368,0.1130973355292325,3.028737621795026,26.521342571512797,-1.9006276657305285
1403636590613555456,40.327549,390.7587933510095,7.338643083333332,0.0980665,-5.93302325,-0.1235693110411985,0.0809832772925368,0.1130973355292325,4.050802926834207,25.289140788271048,-1.2322017832417487
1403636590663555584,50.459384,394.8338992069879,7.485742833333332,-0.1144109166666666,-6.022917541666666,-0.1242674427419962,0.0446804288510548,0.1054178868204575,3.925979548468271,24.167100235656193,-1.1220405526148554
1403636592013555456,49.945593,390.1762021274815,8.098658458333333,0.2941994999999999,-4.674503166666667,-0.1870992958137921,-0.1445132620651305,0.2052507200345331,40.33941436241751,19.230400224902912,-4.936700010753281
1403636592113555456,57.081699,432.52583823069,8.106830666666665,-0.4739880833333333,-5.222041125,-0.1815142422074102,-0.15079644737231,0.2261946710584651,3.487219025552358,22.746038247381627,3.515638022478715
1403636592163555584,38.825751,438.93969916436606,8.106830666666665,-0.4739880833333333,-5.222041125,-0.1815142422074102,-0.15079644737231,0.2261946710584651,1.8967362694277508,24.73519713057596,1.9891588831943317
1403636592213555456,50.681829,481.9101554643731,8.343824708333333,-0.5720545833333333,-5.516240625,-0.132645023151569,-0.1759291886010284,0.1500983156715123,2.515798527072053,27.324075776879663,2.588878646303705
1403636592263555584,49.870253,586.4826961433407,7.992419749999999,-0.93163175,-5.712373625,-0.0551524043630208,-0.1570796326794896,0.114493598930828,2.0715230400036826,29.537261010336746,2.2131852334570823
1403636592313555456,49.940347,524.2244759242296,7.9433865,-1.1604535833333331,-5.442690750000001,0.0132645023151569,-0.1305506280491758,0.1207767842380075,1.9477470269648203,31.59629347824614,2.059032467909393
1403636592363555584,49.610138,451.9098552968455,7.853492208333332,-0.9479761666666666,-5.990228708333333,0.0984365698124801,-0.124965574442794,0.1165879940332212,2.2312421768270796,33.722492757464465,2.1261992792183264
1403636592413555456,50.153017,352.1137832724033,7.9433865,-1.397447625,-5.720545833333333,0.1877974275145898,-0.0788888821901436,0.0788888821901436,2.4201891314992303,35.63800294409648,1.9155101866320123
1403636592513555456,59.738159,247.4758333951023,7.232404375,-1.52003075,-5.990228708333333,0.3204424506661589,0.2087413785385218,-0.1005309649148733,22.803357536198952,23.833665153930824,-11.804337790165654
1403636592763555584,49.968004,280.7809597592738,7.673703624999999,-1.7325081666666666,-6.447872374999999,0.4705407663376713,0.0223402144255274,-0.1500983156715123,12.386956594073906,24.783676710070313,0.95001155613949
1403636592963555584,55.092573,205.4157807747295,6.782932916666666,-1.6017528333333333,-6.880999416666667,0.5459389900238263,-0.1158898623324234,-0.1312487597499735,12.251633440817033,23.06049746044972,-1.7231792496205927
1403636593413555456,49.800158,389.0410181630198,7.273265416666667,0.73549875,-6.439700166666666,0.0642281164733913,-0.0593411945678072,0.0760963553869527,30.354363712039813,24.79613154756334,1.7356340871136204
1403636593613555456,49.930573,381.9249423371964,7.583809333333333,0.1797885833333333,-6.088295208333333,-0.2359685148696333,-0.1172861257340189,0.3106686068549906,12.018883993763843,24.11007750072705,-0.6860540468362899
1403636594363555584,43.691158,197.76315076582503,8.433719,-1.2176590416666666,-5.140319041666666,-0.3406882699892931,0.0747000919853573,0.0977384381116824,45.72367253210157,25.845861364033052,1.7357838633060005
1403636594563555584,49.508571,250.39087415308472,7.338643083333332,-2.533384583333333,-6.464216791666666,0.0530580092606276,0.1996656664281513,0.0991347015132779,14.12929060538825,28.530227583850476,2.6843662198174236
1403636594663555584,46.364308,258.5129118832001,6.9300326666666665,-2.7131731666666665,-6.505077833333333,0.1089085453244461,0.1556833692778942,0.1466076571675237,6.722280158459619,36.40709880577703,7.876871221926557
1403636595113555456,49.934625,181.2862434067848,7.50208725,-0.4821602916666666,-6.5704555,0.7302457590344275,-0.1019272283164688,-0.2820452071222836,39.55917145556684,17.198047969168737,-19.209050836608295
1403636595163555584,50.139905,173.6963139232434,7.273265416666667,-0.220649625,-6.684866416666666,0.718377520120866,-0.1165879940332212,-0.2492330171847902,8.68427637488956,22.41560237053964,5.217554401370904
1403636595363555584,42.762995,239.5373666763288,7.428537374999999,1.6017528333333333,-6.586799916666666,0.3637266161156182,-0.0740019602845595,-0.104021623418862,16.533089058687896,22.270535793560843,-0.14506657697879888
1403636595563555584,50.306559,506.15060809030535,7.837147791666666,1.6344416666666666,-6.219050541666666,0.0495673507566389,-0.0907571211037051,0.0013962634015954,15.319568765119113,18.728940092989426,-3.541595700571417
1403636595763555584,50.236225,267.8181350992062,7.886181041666666,0.5230213333333333,-5.93302325,-0.4440117617073574,0.007679448708775,0.1242674427419962,11.695945332948055,12.891997781584086,-5.836942311405339
1403636596263555584,42.962313,471.0946685202415,8.172208333333334,-2.50069575,-6.513250041666667,-0.0684169066781777,0.0677187749773799,0.2338741197672401,21.141147181888474,17.80105959448147,4.909061812897383
1403636596363555584,49.242497,364.1367602940621,7.583809333333333,-0.83356525,-6.063778583333333,-0.0328121899374933,0.1354375499547599,0.0132645023151569,7.753639893409847,10.105108385496653,-7.695951208984816
1403636596563555584,60.211182,357.8007807413276,8.7279185,0.44129925,-4.543747833333333,-0.0167551608191455,0.0041887902047863,0.0195476876223364,12.150100565357176,19.292884020719054,9.187775635222401
1403636596713555456,42.150259,474.99472741523016,9.112012291666666,1.12776475,-3.947176625,0.0272271363311115,-0.0195476876223364,0.0383972435438752,7.672366799056215,19.76009633532102,0.4672123146019658
1403636596963555584,49.068451,477.4977158064791,8.409202375,0.4331270416666666,-4.3721314583333335,-0.0516617458590321,-0.1130973355292325,0.1068141502220529,23.41262416772144,36.09205521221151,16.331958876890493
1403636597113555456,49.505234,364.5043300787804,8.523613291666665,0.1062387083333333,-5.311935416666666,0.1473057888683213,-0.208043246837724,0.1110029404268393,7.930366816415773,39.58127681238298,3.4892216001714687
1403636597513555456,36.47089,318.95962145637526,6.407011333333333,-1.6099250416666664,-7.003582541666666,0.3588396942100341,0.1172861257340189,-0.1494001839707146,39.9942837824256,4.662711117100298,-34.91856569528268
1403636597613555456,50.012589,362.54417413465467,6.153672874999999,-1.52003075,-7.50208725,0.5012585611727715,0.1968731396249603,-0.0237364778271228,5.528024018792439,9.103707328838771,4.440996211738473
1403636597763555584,53.77531,311.8357688781007,6.774760708333333,-0.7600153749999999,-7.436709583333332,0.3246312408709453,0.1884955592153876,-0.0565486677646162,14.92667210992298,12.36831826804391,3.264610939205138
1403636597963555584,50.040007,370.0774046907224,7.591981541666666,0.122583125,-5.875817791666666,0.0712094334813686,-0.0998328332140756,-0.0397935069454707,7.300526406943608,13.27628568001673,0.9079674119728214
1403636598313555456,71.746111,274.6141319439225,8.5317855,0.4331270416666666,-4.478370166666666,-0.1961750079241626,-0.1368338133563554,0.0272271363311115,16.328075082332873,16.505044994843555,3.2287593148268243
1403636598713555456,46.278715,285.7327042843932,7.649186999999999,-0.4985047083333333,-5.426346333333333,0.2687807048071267,0.4202752838802345,0.0684169066781777,21.59920144985589,19.938487071574944,3.4334420767313887
1403636599013555456,49.774647,419.1328639879253,9.185562166666664,-0.5066769166666666,-5.303763208333334,0.0265290046303138,0.3050835532486088,-0.0411897703470661,9.807715639308451,16.024969417376056,-3.9135176541988876
1403636599113555456,53.071499,303.76073126987905,9.504278291666663,-0.5883989999999999,-5.009563708333333,0.1514945790731078,0.4593706591249075,0.0998328332140756,3.2749653607659606,18.78848112846154,2.763511711085485
1403636599313555456,38.008928,264.82422136980534,9.177389958333332,-0.4576436666666666,-3.342433208333333,-0.0293215314335047,0.5326744877086693,0.1375319450571531,18.806337449413693,19.444056917746018,0.6555757892844767
1403636599563555584,60.958386,412.8304202680509,9.381695166666669,-0.1552719583333333,-3.18716125,-0.0865683308989187,-0.1137954672300302,0.1200786525372098,4.622958399109039,23.315029230910064,3.870972313164046
1403636600413555456,37.840128,644.4471793582645,9.46341725,-0.269682875,-2.6477955,0.0048869219055841,0.0174532925199432,0.0809832772925368,5.845326164611161,29.137050930575914,5.82202169966585
1403636600513555456,62.753916,639.4736627119592,9.937405333333334,-0.3840937916666667,-2.8357562916666668,-0.0167551608191455,0.025830872929516,0.0474729556542457,0.11296923608247306,29.158993381597366,0.021942451021452314
1403636600563555584,36.89003,635.7092298658218,9.937405333333334,-0.3840937916666667,-2.8357562916666668,-0.0167551608191455,0.025830872929516,0.0474729556542457,0.045831625475390325,29.13892169309707,-0.020071688500294727
1403636600613555456,51.766634,637.9074354469567,9.814822208333332,-0.5720545833333333,-2.852100708333333,0.0279252680319092,0.028623399732707,0.122173047639603,0.023459430274595298,29.138381829796156,-0.0005398633009150444
1403636600663555584,58.201551,637.4237542361425,9.144701125,-0.171616375,-2.40262925,-0.0083775804095727,0.0104719755119659,0.046774823953448,0.024980201954614045,29.11783798191305,-0.020543847883107702
1403636600713555456,39.357424,640.9540628884121,9.528794916666666,-0.6701210833333332,-2.639623291666666,0.0195476876223364,0.0,0.1186823891356144,0.04534376876211567,29.122115442972973,0.004277461059924548
1403636600763555584,49.825907,640.0238588416693,9.7085835,-0.1470997499999999,-2.7131731666666665,-0.0013962634015954,0.0328121899374933,0.0684169066781777,0.11536982598110562,29.12486187662489,0.0027464336519180677
1403636600813555456,50.802469,646.1945871433257,9.177389958333332,-0.7028099166666667,-2.508867958333333,0.0027925268031909,0.0195476876223364,0.0851720674973232,0.13152416020113944,29.15267633625905,0.02781445963415763
1403636600863555584,50.263882,642.9933418653533,9.398039583333333,-0.2778550833333333,-2.4680069166666665,-0.0069813170079773,0.0132645023151569,0.0684169066781777,0.07824889310479734,29.141635114016523,-0.01104122224252535
1403636600913555456,49.619913,646.4423952470124,9.389867375,-0.7109821249999999,-2.6886565416666666,-0.0020943951023931,0.0244346095279206,0.0872664625997164,0.02550628938883757,29.132705864792403,-0.008929249224120639
1403636600963555584,61.562538,644.1762213389577,9.406211791666664,-0.7927042083333332,-2.5660734166666663,-0.0034906585039886,0.0125663706143591,0.0677187749773799,0.056530518755212575,29.10078100670217,-0.03192485809023182
1403636601013555456,46.193361,647.1653261697677,9.406211791666664,-0.7927042083333332,-2.5660734166666663,-0.0034906585039886,0.0125663706143591,0.0677187749773799,0.0950417466620265,29.165954961256634,0.06517395455446362
1403636601063555584,42.207957,645.6689253695521,9.455245041666666,-0.3840937916666667,-2.6151066666666667,-0.0034906585039886,0.0188495559215387,0.0879645943005142,0.034425125760206295,29.142752512050784,-0.023202449205850684
1403636601113555456,50.299406,647.3219609081799,9.389867375,-0.661948875,-2.6151066666666667,-0.0090757121103705,0.0202458193231342,0.0684169066781777,0.028158205372154268,29.170494647706814,0.027742135656030342
1403636601163555584,50.006151,644.7754352680599,9.406211791666664,-0.3595771666666666,-2.6151066666666667,-0.0006981317007977,0.0244346095279206,0.0914552528045028,0.06646319918101547,29.140949068078527,-0.0295455796282873
1403636601213555456,57.218075,648.1278188374439,9.357178541666666,-0.6456044583333332,-2.525212375,-0.007679448708775,0.0216420827247296,0.0663225115757845,0.03171023234058632,29.142916693714294,0.001967625635767689
1403636601263555584,53.921461,647.1112577408137,9.324489708333331,-0.5802267916666666,-2.525212375,-0.0090757121103705,0.0216420827247296,0.0628318530717958,0.07616161272608979,29.09726139629078,-0.04565529742351515
1403636601313555456,39.286136,647.8730740336337,9.324489708333331,-0.5802267916666666,-2.525212375,-0.0090757121103705,0.0216420827247296,0.0628318530717958,0.04744083108126455,29.14324144283596,0.04598004654518206
1403636601363555584,50.305844,646.053478360667,9.536967125,-0.5230213333333333,-2.606934458333333,0.0,0.0216420827247296,0.1033234917180643,0.019531847571018897,29.137304705475884,-0.00593673736007716
1403636601413555456,60.129642,646.415717462068,9.308145291666667,-0.5557101666666666,-2.549729,-0.0069813170079773,0.0251327412287183,0.0621337213709981,0.037065980736071924,29.12697682491865,-0.010327880557234437
1403636601463555584,39.1891,646.1873849659072,9.438900625,-0.44129925,-2.549729,0.0006981317007977,0.0209439510239319,0.0956440430092892,0.074744425923875,29.150247079984382,0.023270255065732215
1403636601513555456,50.279618,644.9033335587652,9.553311541666666,-0.5720545833333333,-2.680484333333333,-0.0062831853071795,0.0223402144255274,0.0684169066781777,0.06629385835588476,29.135670496250853,-0.014576583733528992
1403636601563555584,60.543298,645.6622667112283,9.357178541666666,-0.5311935416666667,-2.508867958333333,0.0048869219055841,0.0230383461263251,0.1005309649148733,0.06654789668318775,29.194746127445814,0.059075631194961176
1403636601613555456,39.236308,646.7195873485492,9.299973083333333,-0.416782625,-2.476179125,-0.0069813170079773,0.0167551608191455,0.0663225115757845,0.12190425232919942,29.08557654686649,-0.10916958057932291
1403636601663555584,58.534383,645.1666465044343,9.414383999999998,-0.563882375,-2.705000958333333,-0.0020943951023931,0.0342084533390888,0.0893608577021096,0.10452353616645811,29.143160528834105,0.05758398196761405
1403636601713555456,41.567803,644.3012121051456,9.332661916666666,-0.4739880833333333,-2.459834708333333,-0.0006981317007977,0.0237364778271228,0.0760963553869527,0.08588475281108378,29.16752420639124,0.0243636775571332
1403636601763555584,50.30179,645.2917818103821,9.373522958333332,-0.6047434166666666,-2.680484333333333,-0.0027925268031909,0.0216420827247296,0.0809832772925368,0.061572412043756984,29.163218436139903,-0.0043057702513351614
1403636601813555456,49.595356,646.0217292920263,9.471589458333332,-0.4576436666666666,-2.4843513333333336,-0.0020943951023931,0.0244346095279206,0.08307767239493,0.03374675061031263,29.139756890531938,-0.023461545607965206
1403636601863555584,50.023317,646.8871149051884,9.438900625,-0.5475379583333333,-2.655967708333333,-0.0041887902047863,0.0209439510239319,0.0781907504893459,0.03017327524826822,29.142651702953764,0.0028948124218253213
1403636601913555456,57.887316,646.2981760603934,9.438900625,-0.4576436666666666,-2.533384583333333,-0.0062831853071795,0.0174532925199432,0.0788888821901436,0.04849058212914938,29.17778202025235,0.035130317298587954
1403636601963555584,41.847468,645.1818637512998,9.430728416666666,-0.5720545833333333,-2.6477955,0.0006981317007977,0.0153588974175501,0.0795870138909414,0.053226825687148524,29.14215260405801,-0.03562941619434312
1403636602013555456,60.51898,644.6045463316485,9.357178541666666,-0.5720545833333333,-2.435318083333333,-0.0041887902047863,0.0146607657167523,0.0795870138909414,0.034779597588961625,29.173169256072818,0.03101665201480941
1403636602063555584,46.687126,645.2931439143515,9.357178541666666,-0.5720545833333333,-2.435318083333333,-0.0041887902047863,0.0146607657167523,0.0795870138909414,0.024859290796489523,29.1661029394438,-0.007066316629018132
1403636602113555456,42.627573,646.1450543024697,9.414383999999998,-0.3840937916666667,-2.6151066666666667,-0.0055850536063818,0.0202458193231342,0.0802851455917391,0.053621060886357236,29.131098604470058,-0.03500433497374189
1403636602163555584,60.985803,645.3015810670166,9.357178541666666,-0.5965712083333333,-2.533384583333333,-0.0006981317007977,0.0230383461263251,0.0914552528045028,0.06632947947302227,29.162896908631364,0.031798304161306135
1403636602213555456,46.486378,645.9392573970566,9.308145291666667,-0.4004382083333333,-2.655967708333333,-0.0013962634015954,0.0230383461263251,0.0823795406941323,0.09036764185006195,29.08581326035516,-0.07708364827620429
1403636602263555584,42.367697,645.1407008088432,9.46341725,-0.6782932916666666,-2.50069575,-0.0034906585039886,0.0167551608191455,0.0670206432765822,0.08765424493881337,29.158687286974455,0.07287402661929576
1403636602313555456,50.233125,645.9817989065505,9.389867375,-0.5066769166666666,-2.623278875,0.0,0.0153588974175501,0.0942477796076938,0.037327406838943665,29.144935998762207,-0.013751288212247914
1403636602363555584,49.657107,646.1289143504133,9.430728416666666,-0.5557101666666666,-2.50069575,-0.0090757121103705,0.0223402144255274,0.0698131700797731,0.058042874355875886,29.13593683384485,-0.008999164917359082
1403636602413555456,50.024986,646.5180372964007,9.414383999999998,-0.4821602916666666,-2.631451083333333,0.0006981317007977,0.0160570291183478,0.0914552528045028,0.0764294279112377,29.161975414643553,0.026038580798704913
1403636602463555584,60.103178,645.7016210500865,9.406211791666664,-0.53936575,-2.582417833333333,-0.0034906585039886,0.0160570291183478,0.08307767239493,0.012830115581846283,29.17179145822275,0.009816043579196077
1403636602513555456,40.019989,647.2818103688318,9.406211791666664,-0.53936575,-2.582417833333333,-0.0034906585039886,0.0160570291183478,0.08307767239493,0.059424457577915944,29.176533844431958,0.00474238620920886
1403636602563555584,50.145388,646.4357787536327,9.373522958333332,-0.5311935416666667,-2.5170401666666664,-0.0020943951023931,0.0223402144255274,0.0809832772925368,0.032209722225300746,29.184513522247325,0.007979677815367126
1403636624363555584,62.284947,475.3638466846486,7.722736874999999,0.7436709583333333,-1.2585200833333332,-0.1514945790731078,-0.0747000919853573,0.0097738438111682,2.056156486939697,27.828953430310545,-1.3555600919367805
1403636624463555584,50.627947,376.38737527588944,7.89435325,-1.7488525833333333,-3.947176625,-0.0600393262686049,-0.2227040125544764,0.1047197551196597,2.19041545280822,29.519029026389447,1.690075596078902
1403636624513555456,49.380779,443.7751849539227,9.16921775,0.9970094166666666,-2.2718739166666664,-0.0712094334813686,0.0453785605518525,0.0523598775598298,0.8677424308506508,29.584253621928607,0.06522459553915994
1403636624563555584,58.038474,510.9732638271125,11.939596375,-2.459834708333333,-4.184170666666667,-0.132645023151569,-0.0998328332140756,0.0774926187885482,2.0878319480169334,31.329633225461556,1.7453796035329496
1403636624613555456,49.815654,486.6496107498798,6.071950791666666,-0.6456044583333332,-1.1604535833333331,-0.0202458193231342,-0.0293215314335047,-0.0174532925199432,1.853968839740992,32.60518431451827,1.2755510890567123
1403636624663555584,41.937352,495.88870767857713,8.556302125,0.7109821249999999,-2.3944570416666666,-0.1158898623324234,0.1549852375770964,-0.0621337213709981,2.037379252450001,34.310570298449065,1.705385983930796
1403636624713555456,51.456213,452.3445752873825,8.834157208333334,-1.22583125,-3.3506054166666663,-0.0502654824574366,0.036302848441482,-0.1626646862858715,2.4187983040060237,36.4249756572931,2.1144053588440386
1403636627013555456,42.182684,523.9907425334229,10.117193916666666,0.0081722083333333,-4.797086291666667,0.0160570291183478,-0.1410226035611418,0.0111701072127637,43.37351018483021,20.41152787443202,-16.013447782861082
1403636627163555584,49.91746,862.634388516696,9.921060916666669,0.1797885833333333,-2.745862,0.0090757121103705,0.2478367537831947,0.0663225115757845,3.5253098398764617,18.649207472193396,-1.7623204022386254
1403636627213555456,49.704074,764.407884427841,10.591182,0.4494714583333333,-3.219850083333333,-0.0055850536063818,0.2324778563656447,0.0635299847725936,0.9102405310162922,18.651845636319823,0.002638164126427256
1403636627413555456,49.597025,764.4223537881203,11.089686708333334,-0.53936575,-5.189352291666666,0.0314159265358979,0.0949459113084915,0.1089085453244461,11.382982302506345,25.45298906648914,6.801143430169315
1403636627563555584,48.607349,721.6427272000997,6.42335575,0.1307553333333333,-1.61809725,-0.200363798128949,-0.0907571211037051,0.1466076571675237,5.921920627651247,30.620812037309626,5.167822970820488
1403636627613555456,42.405128,736.2474994623083,6.42335575,0.1307553333333333,-1.61809725,-0.200363798128949,-0.0907571211037051,0.1466076571675237,1.1478183676107054,31.210325796865213,0.5895137595555866
1403636627913555456,49.637795,534.7807529743303,10.975275791666666,-0.7518431666666666,-3.5957716666666664,-0.2227040125544764,-0.15079644737231,0.0767944870877505,10.540853768691196,25.95124733791681,-5.259078458948402
1403636628013555456,48.253298,594.2948637792081,10.370532375,0.3105439166666667,-3.5957716666666664,-0.2073451151369263,0.0523598775598298,0.1354375499547599,1.4559967045950912,26.41036028078629,0.4591129428694778
1403636628063555584,47.001123,496.2517834735987,11.106031125,-1.4709975,-4.200515083333333,-0.1228711793404008,0.1487020522699168,0.132645023151569,0.7898383852306555,27.110651940249763,0.700291659463474
1403636628113555456,49.648047,313.4818391726227,10.828176041666667,0.7109821249999999,-2.557901208333333,-0.0949459113084915,0.3162536604613725,0.122173047639603,0.9476721425546022,28.021059680068362,0.9104077398185986
1403636628163555584,49.899578,294.49088927567976,9.536967125,0.4576436666666666,-2.5660734166666663,-0.0740019602845595,0.4419173666049642,0.1054178868204575,1.1354983637393516,29.092294647721495,1.0712349676531332
1403636628213555456,60.817718,305.8924325932843,8.915879291666666,-0.5720545833333333,-3.3260887916666664,-0.0111701072127637,0.1829105056090057,0.2345722514680378,1.3357998605289247,30.356496780028202,1.264202132306707
1403636628263555584,38.671017,398.7414178904275,8.915879291666666,-0.5720545833333333,-3.3260887916666664,-0.0111701072127637,0.1829105056090057,0.2345722514680378,1.4503791397075758,31.727882632556824,1.371385852528622
1403636628313555456,50.931692,513.791226265633,9.945577541666664,-0.0817220833333333,-4.257720541666666,0.0411897703470661,0.1926843494201739,0.2666863097047335,1.4668322177125455,33.09939139615022,1.3715087635933934
1403636628363555584,50.034523,620.4341908959675,9.978266375,-0.5148491249999999,-3.072750333333333,0.0013962634015954,0.0383972435438752,0.1808161105066125,1.6150401861318195,34.649808854209866,1.5504174580596484
1403636628713555456,49.981117,700.6648020097557,7.89435325,0.1552719583333333,-2.8766173333333334,-0.0663225115757845,0.0383972435438752,-0.0139626340159546,9.517561365590504,44.00045482106872,9.350645966858856
1403636628813555456,49.649954,564.92340335911,8.482752249999999,-0.6292600416666666,-2.803067458333333,-0.1996656664281513,-0.0879645943005142,-0.0383972435438752,2.6457437085519175,45.79554843546286,1.7950936143941405
1403636628863555584,50.12846,596.0260804297471,10.8853815,-0.1634441666666666,-2.231012875,-0.189891822616983,-0.1158898623324234,0.0244346095279206,1.4573107607310034,46.67907053825678,0.8835221027939184
1403636628913555456,50.070286,585.0796530720088,9.504278291666663,0.3759215833333333,-4.699019791666666,-0.2066469834361286,-0.1982694030265558,0.1061160185212552,1.5497997470918459,47.78119177210459,1.1021212338478108
1403636628963555584,59.967279,704.2415768595787,8.597163166666666,0.3023717083333333,-3.7673880416666665,-0.1054178868204575,-0.0621337213709981,0.0523598775598298,1.4439924367038253,48.92152942868405,1.1403376565794616
1403636629013555456,50.650359,673.2097589701003,8.736090708333332,0.0572054583333333,-3.6284605,-0.140324471860344,-0.0230383461263251,0.0921533845053006,1.4916973577759487,50.22312757740481,1.3015981487207569
1403636629063555584,39.547443,679.6085929190596,8.736090708333332,0.0572054583333333,-3.6284605,-0.140324471860344,-0.0230383461263251,0.0921533845053006,1.6046113211588324,51.71694868191927,1.4938211045144598
1403636629113555456,50.17066,720.8536912755588,10.991620208333332,-0.5557101666666666,-2.9338227916666666,-0.1242674427419962,-0.0495673507566389,0.1193805208364121,1.7080250223465185,53.31965739504512,1.6027087131258497
1403636629163555584,49.951553,621.2039674607614,8.115002875,1.1604535833333331,-3.67749375,-0.1877974275145898,-0.0698131700797731,0.1389282084587486,1.6660119453235072,54.90221312214915,1.5825557271040296
1403636629213555456,49.710274,611.2644720147377,8.368341333333333,-0.6047434166666666,-2.974683833333333,-0.2541199390903744,0.1766273203018261,0.1605702911834783,1.6941243064234506,56.50508739430116,1.6028742721520075
1403636629263555584,49.756527,679.2762471107924,9.839338833333333,-0.53936575,-3.28522775,-0.1445132620651305,0.0900589894029074,0.1870992958137921,1.590325728877288,57.995114687724445,1.4900272934232888
1403636629313555456,50.114393,654.2971564696664,8.368341333333333,1.0705592916666666,-2.5415567916666664,-0.1417207352619395,0.1731366617978375,0.1780235837034216,1.645240214107741,59.51523880769039,1.520124119965942
1403636629663555584,38.20467,690.8297298446938,7.706392458333333,0.1389275416666666,-2.01036325,-0.4098033083682685,-0.2024581932313422,0.1263618378443894,12.546660054178869,70.94050592337629,11.425267115685905
1403636629713555456,50.538778,716.5860136413959,8.899534874999999,-0.1062387083333333,-3.5222217916666665,-0.3937462792499207,-0.1123992038284348,0.1438151303643327,2.23193900987812,72.3080793932939,1.3675734699176019
1403636629763555584,60.820341,713.8761296604367,8.139519499999999,-0.392266,-2.950167208333333,-0.4572762640225143,-0.0586430628670094,0.2122320370425104,2.238987020166899,73.6886881105929,1.3806087172990118
1403636629813555456,38.801671,740.2550326800114,8.139519499999999,-0.392266,-2.950167208333333,-0.4572762640225143,-0.0586430628670094,0.2122320370425104,2.3523813505142805,75.17125301070358,1.482564900110674
1403636629913555456,39.286613,774.6179902364794,10.133538333333334,1.0133538333333332,-3.6284605,-0.3476695869972704,-0.0006981317007977,0.2275909344600605,5.072239948877922,78.4198772683689,3.2486242576653126
1403636629963555584,50.082922,764.8455198175237,10.109021708333332,-0.122583125,-4.020726499999999,-0.3637266161156182,-0.0020943951023931,0.1912880860185785,3.666377065553789,80.86327407474761,2.443396806378715
1403636630413555456,49.987316,1157.223827262446,11.302164125,-0.0898942916666666,-4.3721314583333335,-0.0335103216382911,-0.0663225115757845,0.1082104136236484,28.464452525840844,108.22947537313898,27.366201298391374
1403636630513555456,39.858341,1146.360212347912,10.460426666666669,0.0408610416666666,-2.950167208333333,0.0223402144255274,0.0300196631343024,0.0132645023151569,5.523110421203014,114.0722027511649,5.842727378025913
1403636630563555584,50.039053,1175.4016664293842,9.332661916666666,0.0898942916666666,-2.8357562916666668,-0.0083775804095727,-0.0998328332140756,-0.0593411945678072,2.8454048266647334,117.0647672978018,2.992564546636899
1403636630613555456,53.040743,1190.810967766688,8.948568125,0.0735498749999999,-3.407810875,0.0027925268031909,0.0314159265358979,-0.0335103216382911,2.806082441724458,120.03565493133156,2.9708876335297703
1403636630663555584,46.878099,1169.8053895746752,8.343824708333333,0.0980665,-3.113611375,0.0132645023151569,0.0244346095279206,-0.0593411945678072,2.7443554542094337,122.92241820875765,2.886763277426084
1403636630963555584,50.181389,1096.4449708274535,9.054806833333332,0.4331270416666666,-3.832765708333333,0.0851720674973232,0.0851720674973232,0.1675516081914556,18.55755320576819,139.51660746004242,16.594189251284774
1403636631063555584,42.35816,1103.1558291511544,9.422556208333331,-1.3892754166666663,-4.26589275,0.0628318530717958,0.0719075651821663,0.0928515162060983,5.005664788415982,144.69860890188318,5.182001441840754
1403636631113555456,46.796561,986.8043231935832,8.245758208333333,1.0378704583333334,-1.642613875,0.0223402144255274,0.1256637061435917,0.0600393262686049,2.470418282257188,147.17108465464622,2.472475752763046
1403636631163555584,49.93534,1112.9914975748695,10.231604833333332,-0.7191543333333333,-4.077931958333333,-0.0223402144255274,-0.0048869219055841,0.1207767842380075,2.443420971510951,149.64124530567008,2.4701606510238605
1403636631213555456,59.951783,1118.445392565471,9.684066875,0.5475379583333333,-3.4650163333333333,0.0006981317007977,0.0998328332140756,0.0816814089933346,2.4946473046523834,152.1525130929986,2.5112677873285065
1403636631263555584,39.800644,1100.711421138882,9.684066875,0.5475379583333333,-3.4650163333333333,0.0006981317007977,0.0998328332140756,0.0816814089933346,2.4438165849231814,154.53105694358962,2.3785438505910292
1403636631313555456,60.604572,1108.1820851944744,9.847511041666666,0.6456044583333332,-2.5170401666666664,0.0111701072127637,0.0586430628670094,0.0663225115757845,2.3941372030114825,156.9685597297864,2.4375027861967737
1403636631363555584,42.69886,1106.671111362577,9.847511041666666,0.6456044583333332,-2.5170401666666664,0.0111701072127637,0.0586430628670094,0.0663225115757845,2.3782985221649415,159.23990116131006,2.271341431523666
1403636631713555456,46.42868,1121.8898368065177,9.07115125,0.93163175,-5.115802416666666,0.0055850536063818,-0.018151424220741,0.0230383461263251,23.318334234812628,178.19586863108825,18.955967469778187
1403636631813555456,49.521208,1021.0475287663442,10.329671333333332,0.4576436666666666,-2.803067458333333,0.0446804288510548,-0.0607374579694026,0.0551524043630208,4.255436292672147,182.41559048547754,4.219721854389292
1403636631863555584,49.754858,1130.8683587596984,9.226423208333332,-0.1389275416666666,-3.170816833333333,-0.0390953752446729,0.0069813170079773,0.0446804288510548,2.22498514234971,184.68139469878048,2.2658042133029426
1403636631913555456,50.86422,1136.2430735925632,8.311135875,-0.8172208333333333,-4.2168595,-0.0272271363311115,-0.0747000919853573,0.0083775804095727,2.208223063381393,186.99621251709104,2.3148178183105586
1403636631963555584,49.663782,1087.1331243423317,10.010955208333332,-0.122583125,-3.138128,0.0300196631343024,0.1075122819228507,0.0488692190558412,2.2060225844002503,189.2278435711197,2.231631054028668
1403636632013555456,49.7756,1101.1761002019327,12.503478749999998,0.7518431666666666,-3.1463002083333333,-0.0195476876223364,0.0663225115757845,0.132645023151569,2.195303834041706,191.51396000076338,2.28611642964367
1403636632063555584,50.30942,1137.3820976992977,8.000591958333333,-1.046042666666667,-4.184170666666667,-0.0404916386462684,0.0446804288510548,0.1082104136236484,2.2800415722193828,193.8769971263249,2.363037125561533
1403636632113555456,49.580097,991.2939585882376,9.349006333333334,0.122583125,-3.7837324583333327,0.0090757121103705,0.0740019602845595,-0.0328121899374933,1.9958075907348518,195.9065315201571,2.0295343938321935
1403636632163555584,50.189972,1028.95924037955,8.662540833333333,0.3023717083333333,-3.4650163333333333,-0.1207767842380075,0.1417207352619395,-0.0670206432765822,2.0215494901200524,198.05723486097392,2.1507033408168184
1403636632213555456,59.878826,1090.2806601132204,9.545139333333331,0.2615106666666666,-3.4650163333333333,-0.0188495559215387,0.0335103216382911,0.0733038285837618,1.9661575496359152,200.08708169215393,2.0298468311800093
1403636632263555584,51.073075,1116.1370986913075,9.283628666666663,-0.5557101666666666,-3.652977125,-0.0321140582366956,0.0034906585039886,0.1459095254667259,1.953353417696548,202.09597442016764,2.0088927280137057
1403636632313555456,49.911737,1140.8187322457338,7.134337875,0.4985047083333333,-2.909306166666666,0.0097738438111682,0.0139626340159546,0.1019272283164688,1.9124440236408815,203.91234293722448,1.8163685170568442
1403636632363555584,49.830675,1112.6368871228435,7.542948291666666,0.2043052083333333,-3.072750333333333,-0.0202458193231342,-0.0390953752446729,0.1186823891356144,1.7726531792022489,205.67131776803683,1.758974830812349
1403636632413555456,42.50598,1054.309835220459,7.542948291666666,0.2043052083333333,-3.072750333333333,-0.0202458193231342,-0.0390953752446729,0.1186823891356144,1.783625975090174,207.2844839996721,1.6131662316352617
1403636632463555584,51.242828,991.0325187201416,9.888372083333332,-0.3105439166666667,-2.9338227916666666,0.0495673507566389,-0.0593411945678072,0.2164208272472968,1.8277453699819781,208.92366073975964,1.6391767400875494
1403636632513555456,48.585892,854.751323842431,7.837147791666666,0.2860272916666666,-2.69682875,0.1333431548523667,-0.1752310569002306,0.2436479635784084,1.932072518413051,210.33517505711092,1.4115143173512763
1403636632563555584,57.798385,782.7001954635141,7.927042083333333,0.3595771666666666,-2.5660734166666663,0.2324778563656447,-0.1745329251994329,0.189891822616983,1.863173935100133,211.8647825401744,1.5296074830634723
1403636632613555456,38.937569,756.7030618814563,7.927042083333333,0.3595771666666666,-2.5660734166666663,0.2324778563656447,-0.1745329251994329,0.189891822616983,1.927883627975913,213.28632602703826,1.421543486863868
1403636632913555456,60.529232,690.8996256915583,8.891362666666666,-0.1144109166666666,-3.849110125,0.2855358656262722,0.1864011641129944,-0.2366666465704311,22.635512692092384,229.76945367018553,16.48312764314727
1403636633063555584,48.64955,643.072054664923,10.460426666666669,0.5883989999999999,-4.682675375,0.2911209192326541,-0.0279252680319092,-0.1207767842380075,6.787783251916227,236.69193414311388,6.922480472928356
1403636633113555456,60.08625,714.9793465666539,7.60015375,-0.63743225,-1.7161637499999998,0.1912880860185785,0.0090757121103705,-0.0307177948351002,2.125381392843098,238.86402232746855,2.1720881843546636
1403636633163555584,43.912411,908.2631513677036,7.60015375,-0.63743225,-1.7161637499999998,0.1912880860185785,0.0090757121103705,-0.0307177948351002,2.2194327855085243,241.17631816428738,2.3122958368188335
1403636633213555456,46.150684,939.163873886416,8.033280791666666,1.0215260416666667,-3.636632708333333,0.1884955592153876,0.0474729556542457,0.0272271363311115,2.2681261730868627,243.42678884385484,2.2504706795674565
1403636633263555584,49.628019,994.8239510242116,7.714564666666666,0.0,-2.40262925,0.1263618378443894,-0.0879645943005142,0.0663225115757845,1.9604499390195003,245.37555283873957,1.9487639948847288
1403636633313555456,52.414656,875.1903542557711,10.24794925,-0.5311935416666667,-5.009563708333333,0.0998328332140756,-0.064926248174189,0.1172861257340189,2.1781351725075524,247.5095075433759,2.1339547046363236
1403636633363555584,58.718205,947.9216958170324,10.395049,0.8989429166666666,-3.898143375,0.0202458193231342,-0.0069813170079773,0.200363798128949,2.067675339377619,249.45517178551583,1.9456642421399408
1403636633413555456,49.014806,970.8182586074644,8.049625208333332,-0.4331270416666666,-1.830574666666667,0.0502654824574366,-0.1075122819228507,0.1584758960810851,2.1659214044006507,251.389861765867,1.9346899803511803
1403636633463555584,43.50853,933.347008155434,8.049625208333332,-0.4331270416666666,-1.830574666666667,0.0502654824574366,-0.1075122819228507,0.1584758960810851,2.124716967227467,253.36599267603086,1.976130910163846
1403636633513555456,46.740055,838.5076408616175,8.87501825,0.7436709583333333,-3.530394,0.0146607657167523,-0.0628318530717958,0.1284562329467826,2.303555254647545,255.408918337199,2.042925661168141
1403636633563555584,49.846649,810.7176513468564,7.240576583333333,-1.299381125,-3.3996386666666667,-0.0844739357965255,-0.1026253600172665,0.1165879940332212,2.2766901004987137,257.4978193955854,2.088901058386398
1403636633613555456,60.612202,909.2091184047772,9.978266375,0.53936575,-3.979865458333333,-0.0656243798749867,-0.0195476876223364,0.093549647906896,2.265412912721985,259.5646142224126,2.06679482682722
1403636633663555584,39.312363,896.1416057932317,9.978266375,0.53936575,-3.979865458333333,-0.0656243798749867,-0.0195476876223364,0.093549647906896,2.4583011163489092,261.7613394739555,2.196725251542887
1403636633913555456,50.074816,896.5905916295708,9.577828166666666,-0.171616375,-4.788914083333333,0.0132645023151569,0.0376991118430775,0.2946115777366427,27.610543569771735,283.0515506769362,21.290211202980686
1403636634013555456,60.526133,862.6509029506813,9.700411291666663,-0.465815875,-3.857282333333333,-0.0663225115757845,0.054454272662223,0.1773254520026238,5.841946313007597,288.8015566963981,5.750006019461921
1403636634063555584,42.198658,915.1062548525956,9.700411291666663,-0.465815875,-3.857282333333333,-0.0663225115757845,0.054454272662223,0.1773254520026238,2.8988225618401606,291.62176467692353,2.8202079805254243
1403636634113555456,47.504663,940.618655568995,10.460426666666669,-0.3023717083333333,-3.881798958333333,0.0097738438111682,0.0488692190558412,0.0481710873550434,3.065704998950855,294.67179628522547,3.0500316083019356
1403636634163555584,60.526371,897.2173610606936,10.386876791666666,-0.7763597916666666,-3.7837324583333327,-0.093549647906896,-0.0202458193231342,-0.1019272283164688,3.073864968333676,297.732664740257,3.060868455031539
1403636634213555456,41.619063,890.2382587429674,10.386876791666666,-0.7763597916666666,-3.7837324583333327,-0.093549647906896,-0.0202458193231342,-0.1019272283164688,3.268398008528237,300.9980031088576,3.265338368600567
1403636634263555584,47.647237,799.4507114735554,10.909898125,-0.1144109166666666,-4.233203916666667,-0.0097738438111682,0.0118682389135614,-0.0823795406941323,3.3161249353162345,304.3423374497334,3.3443343408758324
1403636634313555456,60.667754,664.7862185645384,10.501287708333331,-1.1522813749999998,-3.1544724166666662,-0.0216420827247296,0.2115339053417127,-0.0237364778271228,3.6297972924793074,307.9798530202812,3.637515570547805
1403636634363555584,49.705267,586.8773519531053,9.536967125,0.83356525,-2.4680069166666665,0.0202458193231342,0.2227040125544764,0.0188495559215387,3.511516686811716,311.47759645747,3.497743437188774
1403636634413555456,40.199279,637.4002100674978,9.536967125,0.83356525,-2.4680069166666665,0.0202458193231342,0.2227040125544764,0.0188495559215387,3.5636514541594,315.0598939241354,3.582297466665409
1403636634713555456,61.236381,840.7079332845861,10.395049,-0.4739880833333333,-3.67749375,0.1815142422074102,-0.036302848441482,0.0265290046303138,32.076145877012614,342.9223934868685,27.862499562733092
1403636634863555584,46.236992,851.7352449081233,7.567464916666665,-0.1389275416666666,-4.641814333333333,0.1103048087260416,-0.0502654824574366,0.0397935069454707,8.609335335929828,351.5378830046744,8.61548951780594
1403636634913555456,50.005197,854.8938328808288,9.496106083333332,0.2043052083333333,-5.3936575,0.1417207352619395,0.0111701072127637,0.0705113017805709,2.893767551250426,354.4295322971551,2.891649292480679
1403636634963555584,50.424338,836.4595662556161,8.785123958333333,0.3840937916666667,-3.3751220416666667,0.0893608577021096,-0.2192133540504878,-0.0237364778271228,2.968662779634263,357.38652895349594,2.9569966563408343
1403636635013555456,49.458503,874.3677566235208,7.436709583333332,-0.3840937916666667,-3.113611375,0.104021623418862,0.1019272283164688,0.0125663706143591,3.0263560128098232,360.3690513258658,2.9825223723698855
1403636635063555584,49.997807,839.3832827896711,9.079323458333333,0.44129925,-3.170816833333333,0.0900589894029074,-0.0237364778271228,0.0411897703470661,2.8256351877230697,363.147141683888,2.7780903580221548
1403636635113555456,50.290346,829.2911007180883,9.242767625,0.8989429166666666,-2.8602729166666667,0.0774926187885482,-0.007679448708775,-0.0167551608191455,2.8851910353418453,365.9849719139364,2.8378302300484393
1403636635163555584,49.985647,827.9592504705902,7.305954249999999,-0.8662540833333333,-3.1463002083333333,0.054454272662223,-0.0509636141582344,0.0837758040957278,2.7381021578712907,368.6788073594217,2.693835445485263
1403636635213555456,50.022841,821.4659724510925,9.577828166666666,0.2533384583333333,-2.7622064166666664,0.064926248174189,0.018151424220741,0.1012290966156711,2.8598169749543496,371.51117449390466,2.832367134482979
1403636635263555584,60.652017,799.1152895009656,8.294791458333332,0.122583125,-3.603943875,0.0656243798749867,-0.0034906585039886,0.1633628179866692,2.6927050420817213,374.12236464360586,2.6111901497012013
1403636635463555584,59.986353,737.7202079827903,9.193734375,-0.2615106666666666,-4.2168595,0.0153588974175501,0.0600393262686049,0.2171189589480945,25.192488613659048,394.5861699171976,20.46380527359173
1403636635563555584,49.035073,589.4968788825909,9.880199875,-0.4004382083333333,-4.175998458333333,0.0244346095279206,0.0942477796076938,0.1912880860185785,6.000277901129061,400.4469364702895,5.860766553091878
1403636635613555456,67.137241,636.261081282132,9.716755708333332,0.1144109166666666,-2.827584083333333,-0.054454272662223,0.0837758040957278,0.0663225115757845,2.880945791806832,403.22938874852997,2.7824522782404983
1403636635663555584,46.551943,583.212334848272,10.272465875,0.24516625,-3.023717083333333,-0.0097738438111682,0.0907571211037051,0.114493598930828,3.1187565546117306,406.2394346404302,3.0100458919002335
1403636635713555456,39.755821,597.4902710730822,10.272465875,0.24516625,-3.023717083333333,-0.0097738438111682,0.0907571211037051,0.114493598930828,3.2864706936626638,409.37287304504616,3.1334384046159585
1403636635763555584,47.749043,529.8257853952699,10.983448,-0.5230213333333333,-4.641814333333333,0.0390953752446729,0.1514945790731078,0.2303834612632515,3.4866834514504035,412.7158973869071,3.3430243418609393
1403636635913555456,57.974577,580.5525108753696,7.722736874999999,-0.6210878333333334,-2.811239666666667,-0.0488692190558412,-0.1598721594826805,0.0788888821901436,19.88576853180046,429.245680857532,16.52978347062492
1403636636013555456,49.713612,589.8174774984935,10.574837583333332,0.6047434166666666,-3.3751220416666667,-0.054454272662223,-0.1291543646475804,-0.0307177948351002,7.640165495311529,436.12499303733597,6.8793121798039465
1403636636063555584,50.102234,587.4373123207396,7.575637124999999,-0.2941994999999999,-3.5222217916666665,-0.093549647906896,-0.1298524963483781,-0.1542871058762987,3.947504989944776,439.78107712942335,3.656084092087383
1403636636163555584,50.02594,356.6909371163005,11.212269833333332,-0.318716125,-4.870636166666666,-0.0586430628670094,0.0963421747100869,-0.1214749159388053,12.49458588612108,450.79864213016714,11.017565000743787
1403636636263555584,60.213804,351.2162516054923,8.809640583333332,-0.0408610416666666,-3.293399958333333,-0.0223402144255274,0.2366666465704311,0.0125663706143591,8.498979191376884,458.76164806413595,7.963005933968816
1403636636313555456,49.498082,330.8552434690265,9.684066875,-0.4903325,-2.1166019583333333,-0.0279252680319092,0.3658210112180114,0.0383972435438752,4.369882677806934,462.67910615189044,3.9174580877544827
1403636636463555584,60.264111,381.5282402180103,9.381695166666669,1.1604535833333331,-4.339442625,-0.0321140582366956,0.1647590813882647,-0.0998328332140756,16.953208646734012,477.4027303479869,14.723624196096466
1403636636563555584,50.06671,437.5712218086944,8.883190458333333,0.2860272916666666,-3.08909475,-0.0712094334813686,0.0209439510239319,-0.0879645943005142,7.7033293489191195,484.81660189303744,7.41387154505054
1403636636613555456,49.947023,445.5661528033942,9.316317499999998,-0.3023717083333333,-3.6202882916666654,-0.0530580092606276,0.0174532925199432,-0.0886627260013119,3.449260249137499,488.17405176739845,3.3574498743610093
1403636636663555584,50.107956,522.1296478985189,6.382494708333334,0.73549875,-2.2718739166666664,-0.0691150383789754,0.0921533845053006,-0.0733038285837618,3.5235616250678814,491.6572679882334,3.4832162208349473
1403636636713555456,38.78355,501.9235586563968,6.382494708333334,0.73549875,-2.2718739166666664,-0.0691150383789754,0.0921533845053006,-0.0733038285837618,3.2695172005721624,494.90517858258744,3.247910594354039
1403636636763555584,50.63653,502.5171928789821,8.5317855,-0.6537766666666667,-3.4241552916666667,-0.085870199198121,-0.0747000919853573,-0.0726056968829641,2.8147247648880613,497.7004819451109,2.795303362523441
1403636636813555456,60.703516,452.68692833607975,5.892162208333333,0.1307553333333333,-1.52003075,-0.0279252680319092,-0.0251327412287183,-0.064926248174189,2.737952639366929,500.45275900079037,2.7522770556794853
1403636637163555584,50.123453,463.1120480493504,9.749444541666666,0.8989429166666666,-3.3751220416666667,0.0726056968829641,-0.1158898623324234,0.1996656664281513,21.574164526947577,519.1128173507659,18.660058349975543
1403636637263555584,49.746037,457.9752432689759,9.496106083333332,0.0572054583333333,-2.1738074166666665,0.0342084533390888,-0.1061160185212552,0.1298524963483781,3.33268085144565,521.8309189994213,2.71810164865542
1403636637313555456,50.224781,536.4770242678355,10.117193916666666,0.7109821249999999,-2.631451083333333,0.0726056968829641,-0.0314159265358979,0.1389282084587486,1.6782024404909142,523.296761122125,1.4658421227036342
1403636637363555584,53.434848,573.8857649886944,9.275456458333332,0.73549875,-2.4516625,-0.0279252680319092,-0.0237364778271228,0.085870199198121,1.754021429072445,524.9177982705692,1.621037148444202
1403636637413555456,46.818495,522.9122284703361,9.586000375,-1.2666922916666667,-3.18716125,0.0328121899374933,-0.0118682389135614,0.1298524963483781,1.836065656570343,526.6087580868034,1.6909598162342263
1403636637463555584,50.089359,548.9042656741495,9.945577541666664,0.3759215833333333,-4.519231208333333,0.0705113017805709,0.0356047167406843,0.0383972435438752,2.0019111070085764,528.4510460337626,1.8422879469592317
1403636637513555456,53.385735,550.2962128853615,10.452254458333334,0.9398039583333332,-3.726527,0.025830872929516,0.1354375499547599,0.0914552528045028,1.8174974146756093,530.1019468199861,1.650900786223474
1403636637563555584,46.532631,546.4422924947137,10.280638083333333,-0.0817220833333333,-4.95235825,-0.0118682389135614,-0.0677187749773799,0.1186823891356144,1.8672772154827437,531.8133519978071,1.7114051778210069
1403636637613555456,60.767889,540.775463744847,9.56148375,1.1767979999999998,-2.7131731666666665,0.0125663706143591,0.0586430628670094,0.0502654824574366,1.8611877999995234,533.4688973246803,1.6555453268731526
1403636637663555584,43.749571,476.3666570677362,9.56148375,1.1767979999999998,-2.7131731666666665,0.0125663706143591,0.0586430628670094,0.0502654824574366,1.9501193023549166,535.1879885133857,1.7190911887054199
1403636637713555456,46.434641,432.9163279883225,10.002783,0.3023717083333333,-2.427145875,-0.0055850536063818,0.0914552528045028,0.0837758040957278,2.203282188839774,537.0198281801034,1.8318396667177694
1403636637763555584,61.168193,494.2639078871518,9.250939833333334,0.8008764166666666,-4.600953291666666,-0.0034906585039886,0.0963421747100869,0.0719075651821663,2.4645118524307303,539.1173629135043,2.0975347334008347
1403636637813555456,38.307906,447.5210271261635,9.250939833333334,0.8008764166666666,-4.600953291666666,-0.0034906585039886,0.0963421747100869,0.0719075651821663,2.4330474189993234,541.0949257514225,1.9775628379181853
1403636638013555456,45.983315,434.4379430174157,7.314126458333333,0.2369940416666666,-2.623278875,-0.0069813170079773,0.0404916386462684,0.0837758040957278,19.135346875521382,556.2691803298568,15.17425457843433
1403636638113555456,49.714804,531.64932564763,8.97308475,0.0817220833333333,-3.955348833333333,0.0090757121103705,0.0733038285837618,0.1075122819228507,3.8865648169014597,559.8562111239423,3.5870307940855355
1403636638163555584,50.152302,519.8711783494282,8.981256958333333,-0.416782625,-3.097266958333333,-0.0020943951023931,0.1270599695451872,0.0970403064108847,1.8449393744093192,561.5550219981449,1.698810874202536
1403636638213555456,49.85404,543.9692556469967,8.719746291666667,0.5720545833333333,-2.770378625,0.0125663706143591,-0.0153588974175501,0.0684169066781777,1.7020058843832966,563.0925966665246,1.5375746683797615
1403636638263555584,55.884838,514.2065029417636,8.883190458333333,0.5148491249999999,-3.097266958333333,-0.0139626340159546,0.1291543646475804,0.0893608577021096,1.7353970533630316,564.5942041171287,1.5016074506040695
1403636638313555456,56.513309,399.3703161486548,9.161045541666669,1.1604535833333331,-4.208687291666666,0.1089085453244461,-0.2310815929640492,0.2988003679414292,1.602973366733957,565.984382169763,1.390178052634269
1403636638363555584,49.791813,305.07407612905894,8.736090708333332,0.0572054583333333,-2.239185083333333,0.0439822971502571,-0.3574434308084387,0.2974041045398337,1.666278694960058,567.2631958423013,1.2788136725383765
1403636638413555456,38.288832,294.1750645201251,8.736090708333332,0.0572054583333333,-2.239185083333333,0.0439822971502571,-0.3574434308084387,0.2974041045398337,1.7561416010702626,568.5374158308002,1.274219988498885
1403636638463555584,49.561262,300.3783233126506,10.223432625,-0.9152873333333332,-3.718354791666666,0.0635299847725936,-0.3804817769347638,0.2506292805863857,1.855086310923006,569.8276627422816,1.290246911481404
1403636638513555456,60.695887,357.2580472255968,9.536967125,-0.2124774166666666,-3.955348833333333,-0.0132645023151569,-0.1005309649148733,0.0879645943005142,1.9509116606764398,571.2626451121611,1.4349823698794353
1403636638563555584,43.736219,427.49291557076,9.536967125,-0.2124774166666666,-3.955348833333333,-0.0132645023151569,-0.1005309649148733,0.0879645943005142,1.8514554977676692,572.7318751342623,1.4692300221012147
1403636638763555584,48.430204,311.9049370679293,9.5124505,-0.8008764166666666,-3.2770555416666665,-0.028623399732707,0.1494001839707146,-0.0062831853071795,17.173238380352057,587.6392499835641,14.907374849301846
1403636638863555584,52.474022,402.9102331872381,7.591981541666666,-0.5066769166666666,-3.4404997083333333,-0.0453785605518525,0.208043246837724,0.0404916386462684,4.934586157537275,592.3163433540715,4.67709337050735
1403636638913555456,48.026085,384.3163757757016,9.398039583333333,-0.661948875,-2.459834708333333,0.0726056968829641,0.2513274122871834,0.2241002759560719,2.6951320111256405,594.8753954141794,2.559052060107888
1403636638963555584,49.917698,385.48208661347024,10.386876791666666,0.122583125,-3.4241552916666667,0.0942477796076938,0.1843067690106012,0.2220058808536787,2.877332057649558,597.6464666988663,2.7710712846869683
1403636639013555456,51.950216,398.1821798526842,8.915879291666666,0.5720545833333333,-2.8439285,0.0740019602845595,0.0453785605518525,0.3260275042725407,4.9499522216480605,600.7818597590766,3.1353930602102764
1403636639063555584,59.974194,393.51930264465045,6.349805875,-0.1389275416666666,-1.871435708333333,0.0879645943005142,0.028623399732707,0.2722713633111154,3.4821866710258047,603.3380417479951,2.5561819889185244
1403636639113555456,38.064718,412.6190573718005,6.349805875,-0.1389275416666666,-1.871435708333333,0.0879645943005142,0.028623399732707,0.2722713633111154,2.6225711067261974,605.8521139497298,2.5140722017346206
1403636639263555584,49.442053,410.7372925845349,6.71755525,-0.416782625,-1.6589582916666663,-0.0879645943005142,0.0230383461263251,-0.1123992038284348,20.06610948212987,621.2238920168907,15.371778067160903
1403636639363555584,46.860933,355.2734105392832,9.896544291666666,0.416782625,-3.6284605,-0.1012290966156711,0.0460766922526503,-0.1780235837034216,5.772036670025887,626.3840790948217,5.1601870779310275
1403636639413555456,57.610989,349.14257252478416,9.782133375,0.4331270416666666,-3.661149333333333,-0.1005309649148733,-0.0551524043630208,-0.122173047639603,3.247643114294622,629.1481084436813,2.7640293488595944
1403636639463555584,49.415111,367.55117471167193,8.883190458333333,0.0735498749999999,-3.170816833333333,-0.0977384381116824,0.0705113017805709,-0.2429498318776106,3.214499084713511,631.9346699509979,2.7865615073166055
1403636639513555456,39.886475,335.83376700594,8.883190458333333,0.0735498749999999,-3.170816833333333,-0.0977384381116824,0.0705113017805709,-0.2429498318776106,3.0695445924712312,634.5749886916738,2.640318740675866
1403636639563555584,60.809135,350.8152019155623,8.237585999999999,-0.0163444166666666,-3.366949833333333,-0.0684169066781777,0.1033234917180643,-0.1256637061435917,3.1380419123340726,637.3035226024084,2.7285339107346545
1403636639713555456,39.164543,373.73121257612553,10.043644041666663,0.5475379583333333,-2.745862,0.0474729556542457,0.2220058808536787,0.2101376419401172,19.906989135724583,655.977131652031,18.67360904962254
1403636639813555456,57.512998,375.57801905833713,8.016936375,-0.3759215833333333,-3.4650163333333333,0.0027925268031909,0.0453785605518525,0.1137954672300302,6.3538319561500645,661.6196630174313,5.642531365400373
1403636639863555584,39.161444,432.0737873817768,8.016936375,-0.3759215833333333,-3.4650163333333333,0.0027925268031909,0.0453785605518525,0.1137954672300302,3.127888663421109,664.5284001003512,2.908737082919856
1403636640063555584,42.206526,418.9713474450324,9.724927916666667,-1.1931424166666666,-2.7867230416666664,0.075398223686155,-0.0216420827247296,-0.0118682389135614,18.122916596030073,682.3409254872226,17.81252538687147
1403636640213555456,50.201178,439.78112461624073,7.763597916666666,-1.5527195833333332,-3.3260887916666664,0.1417207352619395,0.0251327412287183,-0.0837758040957278,8.884765217558142,691.065882177993,8.724956690770341
1403636640263555584,49.810409,484.22268448390986,10.983448,0.3514049583333333,-3.8899711666666654,0.1647590813882647,0.0167551608191455,-0.028623399732707,2.718245728112528,693.646693269556,2.580811091562964
1403636640313555456,50.049782,490.868495446397,8.915879291666666,0.024516625,-2.8602729166666667,0.0837758040957278,-0.0614355896702004,0.0397935069454707,2.77886018098519,696.3105777349712,2.663884465415208
1403636640363555584,50.074816,490.9172968806656,9.046634625,-0.44129925,-2.3372515833333334,0.1089085453244461,0.0376991118430775,-0.0293215314335047,2.693508858561233,698.8887940327963,2.578216297825179
1403636640413555456,60.148239,505.3087482433319,9.087495666666666,0.2288218333333333,-3.742871416666666,0.0656243798749867,0.1054178868204575,-0.0090757121103705,2.612117874085096,701.3474673913694,2.458673358573037
1403636640463555584,39.903164,509.958491981268,9.087495666666666,0.2288218333333333,-3.742871416666666,0.0656243798749867,0.1054178868204575,-0.0090757121103705,2.550431743140363,703.8267273612863,2.4792599699169386
1403636640513555456,49.880504,565.5871849570912,7.265093208333333,-0.4249548333333333,-1.4628252916666666,0.0579449311662117,-0.0670206432765822,0.0879645943005142,2.46250532715187,706.1315733877427,2.304846026456403
1403636640563555584,49.894572,534.2800737087622,7.959730916666666,0.196133,-2.852100708333333,0.0684169066781777,0.0439822971502571,0.0027925268031909,2.3301456053199057,708.3824978175293,2.2509244297865507
1403636640613555456,50.309658,548.7372832851238,8.997601374999999,-0.0326888333333333,-2.8357562916666668,0.007679448708775,0.0153588974175501,0.0963421747100869,2.321086758544689,710.5934432308886,2.2109454133593545
1403636640663555584,60.073614,546.5539717129835,9.929233125,0.2615106666666666,-4.274064958333334,0.0579449311662117,-0.0272271363311115,0.1165879940332212,2.241104449266915,712.7102711158652,2.116827884976601
1403636640713555456,39.687633,527.6373138118505,9.929233125,0.2615106666666666,-4.274064958333334,0.0579449311662117,-0.0272271363311115,0.1165879940332212,2.3199512101453714,714.7699522168391,2.059681100973876
1403636640963555584,50.159932,634.3638212697273,9.602344791666663,0.3840937916666667,-4.388475875,-0.0188495559215387,0.0698131700797731,0.0949459113084915,19.102238765045705,733.2265207091945,18.45656849235536
1403636641113555456,50.159216,634.8133079028396,10.027299625,-0.1144109166666666,-3.726527,-0.0202458193231342,-0.0279252680319092,0.0851720674973232,5.7908591532971645,738.8017469682806,5.575226259086094
1403636641163555584,49.711704,628.5886362563,8.155863916666666,-0.2124774166666666,-3.881798958333333,-0.0216420827247296,-0.0635299847725936,0.0390953752446729,1.8133906447358077,740.5391134074832,1.737366439202674
1403636641213555456,50.204039,648.0099799222166,8.597163166666666,-0.5148491249999999,-3.178989041666666,-0.0425860337486616,0.0300196631343024,0.1438151303643327,1.8602306756225397,742.2618882765272,1.722774869043974
1403636641263555584,50.039291,626.3982881640635,7.453054,-0.4331270416666666,-2.476179125,0.0607374579694026,0.0370009801422797,0.1759291886010284,1.841253094439026,743.931674875555,1.669786599027816
1403636641313555456,60.072184,592.2927211591586,7.804458958333332,-0.4249548333333333,-2.974683833333333,-0.0230383461263251,-0.025830872929516,0.2492330171847902,1.7706887235696571,745.4953932485666,1.5637183730116249
1403636641363555584,39.716244,584.2260118515409,7.804458958333332,-0.4249548333333333,-2.974683833333333,-0.0230383461263251,-0.025830872929516,0.2492330171847902,1.7765596819411391,747.0647449340129,1.569351685446236
1403636641413555456,60.827016,608.0090902479864,8.997601374999999,0.612915625,-3.87362675,-0.0293215314335047,0.057246799465414,0.0774926187885482,1.7975829070399691,748.5865103574406,1.5217654234277234
1403636641463555584,38.855315,621.9983403012989,8.997601374999999,0.612915625,-3.87362675,-0.0293215314335047,0.057246799465414,0.0774926187885482,1.875317176760632,750.1152170256289,1.5287066681883061
1403636641513555456,61.012506,616.6823286749211,9.414383999999998,-0.2043052083333333,-2.827584083333333,0.0586430628670094,0.0537561409614253,0.0446804288510548,1.8363461247625963,751.5168079847705,1.401590959141572
1403636641563555584,42.350054,602.3323395982753,9.414383999999998,-0.2043052083333333,-2.827584083333333,0.0586430628670094,0.0537561409614253,0.0446804288510548,1.6567145394799987,752.8650488876539,1.34824090288339
1403636641613555456,51.917553,609.8794724214542,10.190743791666666,0.9724927916666666,-2.827584083333333,-0.0509636141582344,0.0474729556542457,0.054454272662223,1.6829633429564097,754.2738171327676,1.4087682451137198
1403636641663555584,58.503628,638.9616932513286,10.664731875,0.5802267916666666,-3.18716125,-0.0006981317007977,0.0139626340159546,0.0816814089933346,1.5543637448339143,755.6866435383537,1.4128264055860882
1403636641963555584,49.933672,579.5249862953802,10.068160666666666,0.2615106666666666,-4.323098208333334,-0.1549852375770964,0.0062831853071795,0.1891936909161853,16.172461325806733,771.9028246886741,16.21618115032038
1403636642063555584,49.506902,532.5978080347031,7.2487487916666655,0.7518431666666666,-2.89296175,-0.1752310569002306,0.0083775804095727,0.1843067690106012,3.3702297064168163,774.6824433136176,2.7796186249435095
1403636642113555456,50.81892,540.7117871089989,8.139519499999999,0.0081722083333333,-3.3751220416666667,-0.1787217154042193,0.1200786525372098,0.0767944870877505,1.6505577093203228,776.0590124052987,1.3765690916811764
1403636642163555584,60.738087,572.7057407544048,7.649186999999999,0.3595771666666666,-3.407810875,-0.104021623418862,0.1117010721276371,0.1228711793404008,1.6156684758741897,777.4135118037335,1.3544993984347684
1403636642213555456,39.097309,573.8835327118965,7.649186999999999,0.3595771666666666,-3.407810875,-0.104021623418862,0.1117010721276371,0.1228711793404008,1.4787220744040073,778.6432959034187,1.229784099685162
1403636642263555584,50.076246,630.3358006056142,8.809640583333332,-0.8825985,-3.7919046666666665,-0.161268422884276,0.018151424220741,0.1661553447898601,1.2594437198970063,779.7182468992082,1.0749509957895498
1403636642313555456,50.110102,591.8115268773936,9.496106083333332,0.53936575,-2.7131731666666665,-0.1284562329467826,0.0977384381116824,0.1514945790731078,1.225477716864688,780.819946485971,1.1016995867627202
1403636642363555584,50.030947,601.205925963063,7.698220249999999,0.122583125,-2.8602729166666667,-0.210835773640915,0.018151424220741,0.1487020522699168,1.0490223498047557,781.7602339098181,0.9402874238471668
1403636642413555456,49.790621,615.1108035471501,9.635033625,0.1144109166666666,-2.639623291666666,-0.1556833692778942,0.0809832772925368,0.1256637061435917,1.0734731863279143,782.6573209791022,0.8970870692841117
1403636642463555584,49.869537,566.2368104316677,7.788114541666666,0.318716125,-1.7815414166666663,-0.1836086373098034,-0.1438151303643327,0.1137954672300302,1.0047078664339812,783.4615185355917,0.8041975564894983
1403636642513555456,49.91293,541.7897606859138,8.5317855,-0.2124774166666666,-3.4813607499999994,-0.0726056968829641,-0.0244346095279206,0.132645023151569,0.943818804845274,784.1575066112977,0.6959880757059409
1403636642563555584,50.064086,521.5865972034337,6.987238125,0.2043052083333333,-2.909306166666666,-0.140324471860344,-0.0886627260013119,0.0802851455917391,1.050990575687208,784.8255330574559,0.668026446158251
1403636642613555456,53.364993,450.39301029476826,8.7279185,-1.2176590416666666,-4.5519200416666665,-0.0691150383789754,-0.2087413785385218,0.1787217154042193,1.1101377178576572,785.3192294888992,0.49369643144325437
1403636642663555584,57.542085,454.9218120372906,9.545139333333331,-0.8499096666666667,-2.79489525,-0.0977384381116824,-0.1912880860185785,0.1494001839707146,1.2083081228749892,785.801127995582,0.4818985066827963
1403636642713555456,49.721718,455.0276193093781,9.7085835,-0.6292600416666666,-1.871435708333333,0.0209439510239319,-0.1340412865531645,0.0781907504893459,1.1314796359198567,786.3330964199492,0.5319684243672782
1403636642763555584,42.431831,608.096342686126,9.7085835,-0.6292600416666666,-1.871435708333333,0.0209439510239319,-0.1340412865531645,0.0781907504893459,1.177391163929045,786.9240171538913,0.5909207339420846
1403636642813555456,58.217049,615.8349025890373,11.539158166666668,-0.24516625,-3.8082490833333327,-0.0209439510239319,0.0048869219055841,0.1263618378443894,0.956612490160191,787.5866519379169,0.662634784025613
1403636642863555584,39.103746,673.3815369821945,11.539158166666668,-0.24516625,-3.8082490833333327,-0.0209439510239319,0.0048869219055841,0.1263618378443894,0.9087479157607445,788.2213327330251,0.6346807951081246
1403636642913555456,49.952269,686.1493929382451,10.370532375,-0.0408610416666666,-3.979865458333333,0.0174532925199432,-0.0698131700797731,0.1235693110411985,0.8633128344119633,789.0002894919934,0.7789567589683202
1403636642963555584,59.916496,737.5975995914628,10.215260416666666,-0.1634441666666666,-2.2473572916666664,0.0034906585039886,0.0607374579694026,0.0244346095279206,0.8617515117603485,789.6860426418665,0.6857531498731078
1403636643013555456,39.808035,625.2751155090255,10.215260416666666,-0.1634441666666666,-2.2473572916666664,0.0034906585039886,0.0607374579694026,0.0244346095279206,0.9459779706577277,790.5392203870482,0.8531777451817106
1403636643063555584,59.938669,434.9679798507173,5.957539875,-0.4004382083333333,-2.819411875,-0.0132645023151569,0.0698131700797731,0.0984365698124801,1.1416082233486515,791.5292248140278,0.9900044269795671
1403636643113555456,40.137291,617.698108364942,5.957539875,-0.4004382083333333,-2.819411875,-0.0132645023151569,0.0698131700797731,0.0984365698124801,1.1188421366732844,792.5612687591665,1.0320439451387529
1403636643163555584,49.910784,659.1980465286705,9.487933875,0.980665,-3.219850083333333,0.0579449311662117,0.1284562329467826,0.1005309649148733,1.0704736860594388,793.5439638642295,0.9826951050629305
1403636643213555456,53.508282,687.292718826178,7.5511205,-0.0817220833333333,-2.239185083333333,-0.018151424220741,0.1179842574348166,0.0453785605518525,1.108930836801094,794.5487011391502,1.0047372749207852
1403636643263555584,46.410084,723.1467639171822,9.07115125,0.2533384583333333,-3.6448049166666654,-0.0216420827247296,0.018151424220741,0.0481710873550434,1.0827938255245328,795.5075868832172,0.9588857440669472
1403636643313555456,60.282707,727.2247480211115,11.727118958333332,0.122583125,-3.849110125,0.0488692190558412,-0.0216420827247296,0.104021623418862,1.1138073951381644,796.4752829389736,0.9676960557563916
1403636643363555584,42.413235,728.3185513268978,11.727118958333332,0.122583125,-3.849110125,0.0488692190558412,-0.0216420827247296,0.104021623418862,0.9770944606607126,797.262847792476,0.7875648535024311
1403636643413555456,57.395696,677.8091900321316,10.133538333333334,0.8417374583333332,-2.6151066666666667,0.0209439510239319,-0.1640609496874669,0.1089085453244461,1.1588451676062916,798.2280145983273,0.9651668058512541
1403636643463555584,39.914608,641.4227949092204,10.133538333333334,0.8417374583333332,-2.6151066666666667,0.0209439510239319,-0.1640609496874669,0.1089085453244461,1.1829250879336888,799.3279127921048,1.0998981937775625
1403636643513555456,50.396204,545.2376566448052,10.656559666666666,0.1307553333333333,-4.249548333333333,0.0356047167406843,-0.1815142422074102,0.0460766922526503,1.1844880322318614,800.4057554653767,1.0778426732719026
1403636643563555584,50.410033,639.3802970244902,9.577828166666666,0.809048625,-3.546738416666667,0.0747000919853573,-0.0928515162060983,0.1089085453244461,1.4058951268006146,801.7421381416691,1.3363826762923736
1403636643613555456,48.963785,686.9322325440666,10.166227166666664,0.4985047083333333,-3.2361945,-0.0705113017805709,-0.1452113937659282,0.046774823953448,1.6624729486808594,803.2197580356003,1.4776198939312053
1403636643663555584,50.253391,664.9914829180583,10.059988458333333,-0.9724927916666666,-3.603943875,0.0586430628670094,-0.1982694030265558,0.0795870138909414,1.7442411298827356,804.7076330711302,1.4878750355298962
1403636643713555456,49.811125,751.0770420457947,8.883190458333333,0.5720545833333333,-3.930832208333333,0.036302848441482,-0.1110029404268393,0.0279252680319092,1.9339944822682131,806.3213028660855,1.6136697949552854
1403636643763555584,50.215006,723.4512545334973,7.019926958333333,0.6292600416666666,-3.097266958333333,-0.0097738438111682,-0.0488692190558412,0.0083775804095727,1.8563605103437348,807.8394353013193,1.518132435233838
1403636643813555456,50.139188,693.9268924648088,9.349006333333334,0.0408610416666666,-3.3996386666666667,-0.0174532925199432,-0.1242674427419962,-0.0111701072127637,1.9024357408175385,809.4649226465837,1.6254873452643324
1403636643863555584,50.122977,719.9048830923635,7.788114541666666,0.2941994999999999,-3.334261,-0.0041887902047863,-0.0942477796076938,0.0425860337486616,1.9790890136374972,811.1544804801175,1.6895578335338541
1403636643913555456,54.558754,761.9680307594593,8.87501825,-1.3157255416666664,-3.702010375,-0.0160570291183478,-0.0774926187885482,0.085870199198121,2.0381419926732964,812.951853355723,1.797372875605447
1403636643963555584,51.416635,713.3833169944714,6.733899666666666,1.1767979999999998,-1.9940188333333333,0.0160570291183478,0.0062831853071795,0.0027925268031909,2.092633608628814,814.8866422662627,1.9347889105397371
1403636644013555456,43.86735,777.6275675896585,9.921060916666669,-0.44129925,-3.211677875,-0.0321140582366956,-0.0621337213709981,0.1061160185212552,2.023444508397995,816.7732949225405,1.8866526562777608
1403636644063555584,60.281515,694.0953944858551,10.395049,-0.4739880833333333,-3.881798958333333,-0.0356047167406843,-0.075398223686155,0.0928515162060983,2.2006022033261985,818.872454928836,2.099160006295506
1403636644113555456,43.157339,758.4880196762718,10.395049,-0.4739880833333333,-3.881798958333333,-0.0356047167406843,-0.075398223686155,0.0928515162060983,2.149163397715174,820.9455847191155,2.073129790279495
1403636644163555584,57.344675,628.2464543545817,10.027299625,0.2533384583333333,-3.636632708333333,0.0677187749773799,0.2722713633111154,0.2303834612632515,2.3646669020488877,823.2739303654913,2.328345646375851
1403636644213555456,39.204836,421.4824493495623,10.027299625,0.2533384583333333,-3.636632708333333,0.0677187749773799,0.2722713633111154,0.2303834612632515,2.5096541194304662,825.7314748591057,2.457544493614364
1403636644263555584,50.026178,376.8828144049425,8.9240515,-0.7436709583333333,-2.8847895416666667,0.0642281164733913,0.3406882699892931,0.3169517921621702,2.576258031922551,828.2482484991974,2.516773640091742
1403636644313555456,50.043106,375.82668235363207,9.479761666666668,-0.0572054583333333,-3.587599458333333,0.1151917306316257,0.317649923862968,0.3092723434533951,2.6186083468995243,830.7970725790436,2.548824079846213
1403636644363555584,49.801112,448.47329746976806,8.28661925,0.63743225,-3.0564059166666664,0.0446804288510548,0.3169517921621702,0.2799508120198904,2.76015649254779,833.4718736400948,2.6748010610511983
1403636644413555456,49.946785,461.1160444388988,8.834157208333334,-0.4494714583333333,-1.9531577916666665,0.0321140582366956,0.179419847105017,0.200363798128949,2.617338897421709,835.9978332803428,2.5259596402479474
1403636644463555584,59.928417,619.4836991635187,6.840138375,-0.5311935416666667,-2.4108014583333333,0.0621337213709981,0.293913446035845,0.2848377339254746,2.771943694988487,838.5988100250888,2.600976744746049
1403636644513555456,39.874792,563.8891762387573,6.840138375,-0.5311935416666667,-2.4108014583333333,0.0621337213709981,0.293913446035845,0.2848377339254746,2.821283639594387,841.2188110198578,2.6200009947689296
1403636644563555584,59.835434,605.3946985339135,9.455245041666666,0.4249548333333333,-3.1463002083333333,-0.0244346095279206,0.0698131700797731,0.0390953752446729,3.0430847671657815,843.8908232211026,2.6720122012447973
1403636644613555456,40.523529,630.095204644323,9.455245041666666,0.4249548333333333,-3.1463002083333333,-0.0244346095279206,0.0698131700797731,0.0390953752446729,3.031421517936777,846.4683523065357,2.5775290854331843
1403636644663555584,60.106039,459.5965947307131,7.886181041666666,0.1634441666666666,-2.124774166666666,-0.122173047639603,0.0272271363311115,-0.1549852375770964,3.1443175850553997,849.082969889459,2.6146175829233016
1403636644713555456,42.173386,443.9041643707488,7.886181041666666,0.1634441666666666,-2.124774166666666,-0.122173047639603,0.0272271363311115,-0.1549852375770964,3.2683424762456075,851.6451219675085,2.5621520780495075
1403636644763555584,47.514677,395.2616689650637,7.420365166666667,0.3759215833333333,-2.1492907916666666,-0.1096066770252439,0.0034906585039886,-0.3755948550291797,3.3911914266466545,854.2430197501719,2.597897782663381
1403636644813555456,64.542293,413.27845990623575,7.869836625,0.1389275416666666,-4.184170666666667,-0.0963421747100869,-0.1291543646475804,-0.1172861257340189,3.4218568174694104,856.5806329992048,2.33761324903287
1403636644863555584,37.982941,441.0117029675876,7.869836625,0.1389275416666666,-4.184170666666667,-0.0963421747100869,-0.1291543646475804,-0.1172861257340189,3.5032698112251524,858.8567529717699,2.276119972565084
1403636644913555456,47.518968,383.619918942812,8.278447041666666,0.196133,-1.3402421666666664,-0.0167551608191455,-0.0907571211037051,0.085870199198121,3.544081558498429,861.5009536554024,2.6442006836325618
1403636644963555584,49.851656,422.8323565888116,9.316317499999998,0.0653776666666666,-3.67749375,-0.0272271363311115,-0.1228711793404008,0.1165879940332212,3.4165755812502043,863.8646614664653,2.363707811062909
1403636645013555456,61.662198,342.304950580949,11.490124916666666,0.4249548333333333,-4.4211647083333325,0.0167551608191455,-0.4482005519121438,0.1745329251994329,3.2239530306684756,866.1516770987573,2.2870156322919684
1403636645063555584,49.687623,277.94249937469743,10.820003833333333,-0.1389275416666666,-4.625469916666667,-0.0411897703470661,-0.3469714552964727,0.0984365698124801,3.245581933755618,868.8490828559,2.697405757142633
1403636645113555456,38.347245,313.5838428935062,10.820003833333333,-0.1389275416666666,-4.625469916666667,-0.0411897703470661,-0.3469714552964727,0.0984365698124801,2.9409973950848394,871.156710646327,2.307627790427091
1403636645163555584,52.664518,313.7192676271149,10.730109541666666,-0.4494714583333333,-3.514049583333333,-0.0174532925199432,-0.4349360495969869,0.1061160185212552,2.793207991426111,873.4502283610403,2.293517714713289
1403636645213555456,57.355642,441.8893663027128,9.455245041666666,0.7763597916666666,-2.974683833333333,-0.007679448708775,-0.247138622082397,0.1207767842380075,2.917161590230565,875.9782726337086,2.5280442726682395
1403636645263555584,51.193476,598.4997199866841,9.643205833333331,0.1879607916666666,-3.6202882916666654,-0.0293215314335047,-0.1514945790731078,-0.0090757121103705,3.5717208135599594,879.3039270709057,3.3256544371971586
1403636645313555456,39.503098,561.017628909644,9.610517,0.5802267916666666,-2.9174783749999995,-0.0062831853071795,0.1186823891356144,0.0502654824574366,3.1181373023474084,882.2752866780914,2.9713596071857182
1403636645363555584,49.737692,439.2045243585856,10.149882749999998,0.2941994999999999,-3.334261,0.0111701072127637,0.2757620218151041,0.0795870138909414,3.6190552557139224,885.7090576407785,3.433770962687049
1403636645413555456,50.218105,433.5181518020196,9.684066875,-0.0980665,-3.7919046666666665,-0.0481710873550434,0.15079644737231,0.0795870138909414,3.5070592931818174,889.0874995087371,3.3784418679585997
1403636645463555584,52.089453,562.6563323017606,9.814822208333332,0.5148491249999999,-3.407810875,-0.0509636141582344,0.2331759880664424,0.0349065850398865,3.7323483248036777,892.6811726180256,3.5936731092884884
1403636645513555456,47.791957,569.8351359893046,7.9433865,-1.2176590416666666,-2.20649625,-0.0104719755119659,0.1445132620651305,0.0795870138909414,3.424562143753144,896.031526261835,3.350353643809399
1403636645563555584,49.860955,588.1243565680336,9.332661916666666,1.642613875,-4.56009225,0.0216420827247296,0.1277581012459849,0.0663225115757845,4.010577896829029,899.9151851599274,3.883658898092449
1403636645613555456,52.955627,591.6682060928233,7.763597916666666,-0.318716125,-2.1411185833333333,-0.0788888821901436,0.1186823891356144,0.0335103216382911,4.084175103995916,903.8364660328047,3.921280872877219
1403636645663555584,57.839632,627.0703776243598,9.259112041666668,1.046042666666667,-3.9880376666666666,-0.0160570291183478,0.0565486677646162,0.0872664625997164,3.7817097184880377,907.44615544293,3.609689410125384
1403636645713555456,39.129257,604.6824018866541,9.259112041666668,1.046042666666667,-3.9880376666666666,-0.0160570291183478,0.0565486677646162,0.0872664625997164,3.9784890084049076,911.2982714387629,3.8521159958328326
1403636645763555584,59.868575,625.6845361867146,11.048825666666666,1.2421756666666668,-3.138128,0.08307767239493,0.018151424220741,0.1033234917180643,4.381801386814466,915.614710269117,4.316438830354173
1403636645813555456,50.758838,625.6402531998989,9.528794916666666,1.0133538333333332,-4.731708625,-0.0453785605518525,0.0083775804095727,0.1319468914507713,4.7200848201467664,920.2932335302586,4.6785232611415495
1403636645863555584,50.155163,615.1093861367899,11.016136833333332,-0.6782932916666666,-4.257720541666666,0.0097738438111682,-0.0062831853071795,0.1075122819228507,4.411103845769626,924.646473022192,4.3532394919334365
1403636645913555456,49.390316,477.86461164138433,9.259112041666668,0.392266,-3.9144877916666654,-0.0537561409614253,0.1556833692778942,0.1459095254667259,4.569279264773559,929.1377544110343,4.491281388842253
1403636645963555584,39.739609,395.63535603840376,9.259112041666668,0.392266,-3.9144877916666654,-0.0537561409614253,0.1556833692778942,0.1459095254667259,4.402344373241775,933.4354784218303,4.29772401079606
1403636646013555456,50.359487,409.273355615072,9.26728425,-0.5720545833333333,-2.729517583333333,-0.1514945790731078,0.1598721594826805,0.1808161105066125,5.038470892518811,938.3062861570747,4.870807735244398
1403636646063555584,49.806357,360.9870673268398,9.961921958333331,-0.1470997499999999,-3.4241552916666667,-0.1068141502220529,0.153588974175501,0.3267256359733385,4.203490323670691,942.3741947563539,4.0679085992791215
1403636646113555456,60.75859,388.1286942043624,10.721937333333331,0.196133,-3.170816833333333,-0.4118977034706618,0.2206096174520832,0.3246312408709453,4.662386634414381,946.9843603600007,4.610165603646806
1403636648363555584,56.352854,335.1856376542723,10.076332875,0.563882375,-3.87362675,-0.5619960191421741,0.0118682389135614,0.2296853295624537,190.88750764091654,1136.4057918861272,189.42143152612653
1403636648463555584,39.351701,335.5463057695424,9.340834125,-0.4576436666666666,-2.3372515833333334,-0.5969026041820606,-0.0656243798749867,0.2513274122871834,5.770922147063099,1138.5390229912962,2.1332311051689885
1403636648513555456,55.436612,339.7104622196819,9.471589458333332,-0.7927042083333332,-2.8766173333333334,-0.5529203070318035,0.0293215314335047,0.257610597594363,2.579021053988875,1139.296930668698,0.7579076774018176
1403636648563555584,58.115005,347.97850157404304,10.926242541666667,-0.1879607916666666,-3.906315583333333,-0.4251622057858186,0.0097738438111682,0.2213077491528809,2.9436628816729855,1140.4289263300252,1.1319956613272097
1403636648613555456,40.937662,376.8334609686715,10.926242541666667,-0.1879607916666666,-3.906315583333333,-0.4251622057858186,0.0097738438111682,0.2213077491528809,2.907469487486512,1141.57879601688,1.1498696868547995
1403636648913555456,52.050591,491.13719707995,10.632043041666666,-0.7273265416666667,-3.5957716666666664,-0.1319468914507713,-0.1891936909161853,0.0558505360638185,18.440740996181848,1152.1866445162366,10.607848499356578
1403636649013555456,39.249658,549.4186999178007,8.548129916666667,0.73549875,-4.004382083333333,-0.0516617458590321,0.046774823953448,0.0418879020478639,5.068256387601367,1154.361102227853,2.174457711616469
1403636649063555584,52.119494,455.3929524120589,10.435910041666666,-0.0980665,-3.0809225416666663,-0.0132645023151569,0.1996656664281513,0.0677187749773799,2.6348593744933235,1155.5784631315812,1.2173609037281494
1403636649113555456,48.098564,346.23373342076275,10.035471833333334,0.34323275,-2.7376897916666665,0.0230383461263251,0.3022910264454179,0.0216420827247296,2.833382900373605,1157.02270350945,1.4442403778687094
1403636649163555584,49.546957,454.49772667788847,7.902525458333333,0.563882375,-3.38329425,0.0139626340159546,0.2534218073895766,0.0474729556542457,2.9051932687637967,1158.4090366937317,1.3863331842817388
1403636649213555456,49.9928,491.2841433259386,9.970094166666666,-0.6537766666666667,-5.034080333333333,0.0265290046303138,0.2548180707911721,0.0907571211037051,2.7334034977356216,1159.6207776017047,1.2117409079730805
1403636649263555584,50.315618,454.8508377686513,8.049625208333332,-0.0163444166666666,-2.157463,0.057246799465414,0.2506292805863857,0.1012290966156711,2.9695969385689733,1161.0427099559838,1.421932354279079
1403636649313555456,49.625635,615.9689105271275,10.2969825,0.2778550833333333,-3.391466458333333,0.0307177948351002,0.0370009801422797,0.0453785605518525,2.8775650526045333,1162.3310599278154,1.2883499718316216
1403636649363555584,50.205946,600.1912701788717,7.363159708333333,-0.4903325,-3.162644625,0.0565486677646162,-0.2429498318776106,0.0446804288510548,2.931944270212262,1163.5194671825693,1.1884072547538835
1403636649413555456,61.059952,617.2067814635924,11.383886208333331,0.3595771666666666,-5.115802416666666,0.0628318530717958,-0.0411897703470661,0.0460766922526503,3.034373408020072,1164.7836571786643,1.2641899960949559
1403636649463555584,49.832582,667.5254892528435,11.367541791666666,-0.367749375,-3.857282333333333,0.0893608577021096,0.0230383461263251,0.0816814089933346,3.0648014852114867,1166.0296058902425,1.245948711578194
1403636649513555456,42.41705,525.3874980645875,11.367541791666666,-0.367749375,-3.857282333333333,0.0893608577021096,0.0230383461263251,0.0816814089933346,3.180866450146106,1167.1960597932932,1.1664539030507513
1403636649563555584,57.422876,480.5147037936559,10.231604833333332,0.2288218333333333,-3.0400615,0.0069813170079773,0.1312487597499735,0.1368338133563554,3.318348517337729,1168.4999572453235,1.3038974520302418
1403636649613555456,39.161205,528.80704342191,10.231604833333332,0.2288218333333333,-3.0400615,0.0069813170079773,0.1312487597499735,0.1368338133563554,3.3245854127327217,1169.6161805551717,1.1162233098482375
1403636649663555584,49.790144,492.461817570948,5.843128958333333,-0.0898942916666666,-2.89296175,-0.0579449311662117,0.1096066770252439,0.2590068609959585,3.349081467173974,1170.8122751799842,1.196094624812531
1403636649713555456,50.134898,460.1925585045888,10.533976541666666,-0.3759215833333333,-3.603943875,-0.1151917306316257,0.132645023151569,0.1598721594826805,3.3796174270068624,1171.7928836293256,0.9806084493413891
1403636649763555584,49.827337,438.4385565191686,9.193734375,0.2860272916666666,-2.868445125,-0.1843067690106012,0.0530580092606276,0.1312487597499735,2.9883757088539786,1172.6678741669596,0.8749905376339484
1403636649813555456,50.010204,479.9765797655029,8.221241583333333,-0.5475379583333333,-2.1983240416666665,-0.1452113937659282,0.1333431548523667,0.0747000919853573,3.0923796222248763,1173.6898743735205,1.0220002065609606
1403636649863555584,49.078226,470.6461050936713,8.891362666666666,0.2043052083333333,-3.195333458333333,-0.15079644737231,0.0314159265358979,0.122173047639603,2.679109351894653,1174.3824417473834,0.6925673738628575
1403636649913555456,50.96817,513.5325643648971,9.340834125,-0.2615106666666666,-2.4434902916666665,-0.1521927107739055,0.1117010721276371,0.0837758040957278,2.7130754499387204,1175.1330637894114,0.7506220420279988
1403636649963555584,49.855471,509.6420538359779,7.167026708333333,-0.4739880833333333,-2.353596,-0.1305506280491758,0.0160570291183478,0.0663225115757845,2.4085454771600348,1175.7157150833698,0.5826512939584063
1403636650013555456,49.393177,542.5021801324018,9.528794916666666,-0.0326888333333333,-3.366949833333333,-0.1061160185212552,0.0027925268031909,0.1047197551196597,2.416071895521972,1176.2648487911931,0.54913370782333
1403636650063555584,50.715685,548.6920693027997,9.479761666666668,0.7109821249999999,-3.8082490833333327,-0.1172861257340189,0.0390953752446729,0.114493598930828,2.035862207427066,1176.5430225949683,0.2781738037751893
1403636650113555456,50.03047,517.0068508599986,7.371331916666667,-0.7927042083333332,-3.3996386666666667,-0.1996656664281513,0.0642281164733913,0.1542871058762987,2.2110539093626653,1176.885679795926,0.34265720095777397
1403636650163555584,49.698353,453.628799102186,9.46341725,0.53936575,-3.652977125,-0.2694788365079245,0.0607374579694026,0.1745329251994329,1.756719068185525,1176.8376563453387,-0.04802345058737956
1403636650213555456,50.04549,421.2317037856492,6.6603497916666665,-0.416782625,-2.745862,-0.3832743037379548,-0.028623399732707,0.1752310569002306,2.2126137608391248,1176.7272793747813,-0.11037697055735407
1403636650263555584,59.709787,410.7274972809331,7.477570624999999,-0.2124774166666666,-2.7867230416666664,-0.4663519761328848,-0.0027925268031909,0.3120648702565861,1.9747074641065676,1176.4141889605164,-0.3130904142649342
1403636650563555584,42.591094,419.8361084542428,9.921060916666669,0.0980665,-2.1002575416666667,-0.4244640740850209,-0.0223402144255274,0.249931148885588,7.763736912321412,1174.3763218025747,-2.0378671579417187
1403636650713555456,42.118549,503.9291720010184,9.586000375,-0.1552719583333333,-3.4731885416666666,-0.2848377339254746,-0.1103048087260416,0.171740398396242,6.030119800633825,1171.6613540380824,-2.7149677644922576
1403636650763555584,47.101021,572.812379882837,8.785123958333333,-0.2533384583333333,-2.533384583333333,-0.2122320370425104,0.093549647906896,0.1724385300970397,2.4123982254973306,1170.556913127267,-1.104440910815356
1403636650813555456,55.371046,591.8241127070496,11.146892166666666,0.0653776666666666,-4.486542375,-0.1738347934986352,0.0495673507566389,0.1598721594826805,1.9422516002767367,1169.6549820840983,-0.9019310431688154
1403636650863555584,48.76399,546.8738364250875,9.095667875,-0.0898942916666666,-3.366949833333333,-0.1619665545850737,0.1089085453244461,0.085870199198121,1.8110220164248805,1168.8459850856593,-0.8089969984389427
1403636650913555456,46.4046,505.4013821446283,8.662540833333333,0.1552719583333333,-0.9724927916666666,-0.0928515162060983,0.2366666465704311,0.0607374579694026,1.701485154178561,1168.0471395922027,-0.7988454934566107
1403636650963555584,60.082436,602.0975510746154,9.929233125,-0.4249548333333333,-2.508867958333333,-0.0760963553869527,0.1577777643802873,-0.0167551608191455,1.8115597605188605,1167.271775332681,-0.7753642595216661
1403636651013555456,43.060303,577.6606059277723,9.929233125,-0.4249548333333333,-2.508867958333333,-0.0760963553869527,0.1577777643802873,-0.0167551608191455,1.7058261452120707,1166.5357379863865,-0.7360373462945518
1403636651063555584,47.212839,735.0529548659295,11.293991916666666,-0.6292600416666666,-3.759215833333333,0.018151424220741,0.1110029404268393,0.2010619298297467,1.6788622729901712,1165.6784989426362,-0.857239043750269
1403636651113555456,60.103416,704.2930720415178,8.850501625,0.6782932916666666,-4.2822371666666665,-0.0125663706143591,0.0321140582366956,0.0635299847725936,1.786146833045078,1164.8498981176201,-0.8286008250161103
1403636651163555584,43.613196,762.22194590771,8.850501625,0.6782932916666666,-4.2822371666666665,-0.0125663706143591,0.0321140582366956,0.0635299847725936,1.6908086693696727,1164.013393594052,-0.83650452356801
1403636651213555456,57.794809,726.2984649693203,9.724927916666667,0.2860272916666666,-3.9390044166666662,0.0104719755119659,-0.0984365698124801,0.0027925268031909,1.951696123341549,1163.1299286783526,-0.8834649156995056
1403636651263555584,40.121555,726.4143321773879,9.724927916666667,0.2860272916666666,-3.9390044166666662,0.0104719755119659,-0.0984365698124801,0.0027925268031909,1.8171684474978085,1162.1921838138474,-0.9377448645052482
1403636651313555456,49.659491,716.5901007212934,9.26728425,0.0572054583333333,-2.999200458333333,0.054454272662223,-0.0265290046303138,0.0579449311662117,1.8430017267510794,1161.1446029977685,-1.0475808160788347
1403636651363555584,61.531305,759.8249476795304,9.046634625,0.0653776666666666,-3.857282333333333,0.0635299847725936,-0.0726056968829641,0.1130973355292325,1.84851007544522,1160.098852662187,-1.0457503355814879
1403636651413555456,37.434101,759.1540209785868,9.046634625,0.0653776666666666,-3.857282333333333,0.0635299847725936,-0.0726056968829641,0.1130973355292325,1.7430095461583646,1159.0342883451028,-1.064564317084205
1403636651463555584,53.534985,770.0847434137111,9.234595416666666,0.83356525,-2.190151833333333,0.0949459113084915,0.0439822971502571,0.0272271363311115,1.6000625146432326,1157.9168235435552,-1.1174648015476123
1403636651513555456,46.19503,723.9860174102116,7.216059958333333,-0.269682875,-1.9449855833333327,0.0383972435438752,0.0488692190558412,0.0488692190558412,1.8280383547551022,1156.8663951611074,-1.0504283824477625
1403636651563555584,61.103106,639.4013205923575,8.744262916666667,0.5965712083333333,-2.4108014583333333,0.0781907504893459,0.2778564169174973,0.0474729556542457,1.5886354568702192,1155.6075969583655,-1.2587982027419002
1403636651613555456,51.07975,627.5431315558222,7.828975583333331,-0.392266,-3.554910625,0.0509636141582344,0.104021623418862,0.1172861257340189,1.853590966513853,1154.4789020383978,-1.1286949199677565
1403636651663555584,49.903631,680.4997944365657,10.149882749999998,0.1634441666666666,-3.4404997083333333,0.0349065850398865,0.1445132620651305,0.1298524963483781,1.2639828677509595,1153.202852314334,-1.276049724063796
1403636651713555456,49.586296,734.8565057808606,8.605335375,1.2094868333333333,-3.2361945,0.0034906585039886,0.0614355896702004,0.2415535684760151,1.810855917906808,1151.9315741699477,-1.271278144386315
1403636651763555584,40.511608,660.1109517497027,8.605335375,1.2094868333333333,-3.2361945,0.0034906585039886,0.0614355896702004,0.2415535684760151,1.5639777115443447,1150.5371106722073,-1.3944634977403894
1403636651813555456,48.197031,631.7577885921154,8.270274833333334,-0.0980665,-2.623278875,-0.0949459113084915,0.0411897703470661,0.3406882699892931,1.7790393757360399,1148.9123038312805,-1.6248068409267944
1403636651863555584,61.061621,588.5895158270569,8.417374583333332,0.2288218333333333,-3.538566208333333,-0.28623399732707,0.0153588974175501,0.2848377339254746,1.96997844525151,1147.1841718451133,-1.7281319861672273
1403636651913555456,40.696382,523.4654329920052,8.417374583333332,0.2288218333333333,-3.538566208333333,-0.28623399732707,0.0153588974175501,0.2848377339254746,2.2253359072494727,1145.475080724078,-1.7090911210352715
1403636651963555584,59.332133,515.3790548783571,7.837147791666666,1.005181625,-3.1217835833333334,-0.4125958351714595,0.054454272662223,0.1857030324121966,2.261245241560268,1143.301407725827,-2.1736729982510496
1403636652013555456,38.040399,465.6900712768729,7.837147791666666,1.005181625,-3.1217835833333334,-0.4125958351714595,0.054454272662223,0.1857030324121966,2.4684951736663137,1141.1516846859274,-2.149723039899527
1403636652063555584,49.839259,422.1538800415389,7.9433865,0.9479761666666666,-3.77556025,-0.5703735995517468,-0.0411897703470661,0.1354375499547599,2.5734666693265558,1138.717132851912,-2.4345518340153376
1403636652113555456,61.758279,402.5848834181467,9.75761675,0.73549875,-2.9338227916666666,-0.6736970912698113,0.0272271363311115,0.1179842574348166,2.9429532034322325,1136.1945104108208,-2.5226224410912437
1403636652163555584,39.069176,375.3799805681883,9.75761675,0.73549875,-2.9338227916666666,-0.6736970912698113,0.0272271363311115,0.1179842574348166,2.9409234487010143,1133.4501170307071,-2.7443933801137064
1403636652213555456,49.590826,355.5453402382543,9.381695166666669,0.1879607916666666,-4.707191999999999,-0.7860962950982461,-0.1061160185212552,0.249931148885588,3.5535435282166676,1130.685522208424,-2.764594822283243
1403636652263555584,60.759306,297.0301065568342,7.191543333333333,0.661948875,-2.655967708333333,-0.7274532322312365,-0.2673844414055313,0.2415535684760151,3.204357920103181,1127.69690144845,-2.9886207599738555
1403636652313555456,48.694611,300.4675118359268,7.624670374999999,0.4576436666666666,-2.034879875,-0.6618288523562498,-0.2282890661608583,0.2450442269800038,3.675796846568512,1124.3914756996792,-3.3054257487708583
1403636652363555584,41.754245,330.9681713126392,7.624670374999999,0.4576436666666666,-2.034879875,-0.6618288523562498,-0.2282890661608583,0.2450442269800038,3.7495464090216757,1121.2832507973897,-3.108224902289521
1403636652413555456,48.242808,361.3496621020483,9.112012291666666,0.196133,-2.778550833333333,-0.6122615015996108,-0.1137954672300302,0.2981022362406315,4.049471893939237,1118.250481964744,-3.0327688326456155
1403636652463555584,49.971103,445.64269317225546,10.027299625,-0.1797885833333333,-2.8602729166666667,-0.48939032225921,-0.1012290966156711,0.3064798166502042,3.0247296274185977,1115.0117068928832,-3.2387750718608004
1403636652513555456,50.029278,377.8892853404806,10.517632125,0.2288218333333333,-2.3699404166666667,-0.3972369377539094,-0.182212373908208,0.2373647782712288,2.9457414773234323,1112.4307452378791,-2.580961655004103
1403636652563555584,50.184965,414.5823502426104,8.466407833333333,-0.2124774166666666,-4.045243125,-0.3776892501315729,-0.0844739357965255,0.3078760800517997,3.264741795291947,1109.4818426454526,-2.9489025924265206
1403636652613555456,49.576998,535.1733345338355,9.316317499999998,-0.6701210833333332,-2.30456275,-0.2617993877991494,-0.0928515162060983,0.1996656664281513,3.157272823091343,1107.1869638809085,-2.294878764544137
1403636652663555584,50.35305,515.1027750650964,10.942586958333331,0.7763597916666666,-3.178989041666666,-0.1919862177193762,-0.1556833692778942,0.1975712713257581,2.743579837890185,1104.5232010709346,-2.663762809973832
1403636655013555456,50.567388,647.5709801295537,10.484943291666664,0.0408610416666666,-4.094276375,-0.0914552528045028,0.2520255439879811,0.143116998663535,109.13487831433784,1031.3684607770267,-73.15474029390793
1403636655113555456,50.589085,740.5482922061116,11.285819708333332,-0.2615106666666666,-4.151481833333333,-0.0642281164733913,0.0349065850398865,0.1151917306316257,3.74328665420523,1027.5990157675244,-3.7694450095023058
1403636655163555584,38.859844,914.4629958673952,11.285819708333332,-0.2615106666666666,-4.151481833333333,-0.0642281164733913,0.0349065850398865,0.1151917306316257,1.9360207374891831,1025.6401515961247,-1.9588641713996822
1403636655213555456,61.1341,940.4311815897546,8.245758208333333,0.6701210833333332,-1.569064,-0.0788888821901436,0.0942477796076938,0.1487020522699168,1.8348975335586923,1023.7695901155734,-1.8705614805513733
1403636655263555584,39.201021,875.2265640362093,8.245758208333333,0.6701210833333332,-1.569064,-0.0788888821901436,0.0942477796076938,0.1487020522699168,1.9863827969993482,1021.8005350665292,-1.9690550490441865
1403636655313555456,50.150156,806.4976650545537,10.019127416666668,-0.4903325,-4.9114972083333335,-0.1417207352619395,0.093549647906896,0.1870992958137921,2.0569562556115484,1019.7070954221978,-2.093439644331397
1403636655363555584,54.875374,835.2563160876105,9.398039583333333,0.0163444166666666,-2.8439285,-0.1480039205691191,0.0516617458590321,0.1110029404268393,2.1894746483635585,1017.4913246580898,-2.215770764108015
1403636655413555456,59.790373,848.1361618993777,9.75761675,0.7600153749999999,-3.930832208333333,-0.1940806128217694,0.0516617458590321,0.1528908424747032,2.2667841795863897,1015.2184460543033,-2.2728786037864666
1403636655463555584,46.731949,772.9365793185073,8.638024208333333,0.784532,-3.2525389166666665,-0.268082573106329,-0.0760963553869527,0.1570796326794896,2.0750558665717933,1012.94924309754,-2.2692029567632517
1403636655513555456,38.929224,674.5380407324951,8.638024208333333,0.784532,-3.2525389166666665,-0.268082573106329,-0.0760963553869527,0.1570796326794896,2.226630646402389,1010.6911498885119,-2.258093209028175
1403636655563555584,60.863256,513.5745949470441,8.458235625,0.9888372083333332,-3.3751220416666667,-0.2904227875318564,-0.2213077491528809,0.2708750999095199,2.3927266593990875,1008.3153446246996,-2.3758052638122535
1403636655613555456,38.290024,418.5808204734232,8.458235625,0.9888372083333332,-3.3751220416666667,-0.2904227875318564,-0.2213077491528809,0.2708750999095199,2.547989453314474,1005.6692929518016,-2.646051672898011
1403636655863555584,49.824476,490.3646554798599,7.297782041666666,-0.367749375,-2.3699404166666667,-0.3155555287605747,0.0041887902047863,0.2534218073895766,13.286376086763383,993.4034036137679,-12.26588933803373
1403636656013555456,46.466589,565.6344627242221,11.498297125,-0.196133,-3.113611375,-0.2750638901143063,0.08307767239493,0.1933824811209717,9.740896906564108,984.0211452952695,-9.382258318498316
1403636656063555584,61.277628,531.657658648917,10.73828175,-1.22583125,-3.317916583333333,-0.289026524130261,-0.0432841654494593,0.0614355896702004,3.183251470930525,980.5744718494285,-3.446673445841043
1403636656113555456,53.95031,608.5340118544746,11.334852958333332,0.0408610416666666,-3.669321541666666,-0.2178170906488923,0.0265290046303138,0.0740019602845595,3.23486525231564,977.4339622053517,-3.1405096440768148
1403636656163555584,36.003589,477.01504338993726,11.334852958333332,0.0408610416666666,-3.669321541666666,-0.2178170906488923,0.0265290046303138,0.0740019602845595,3.232708766919935,974.0849173764793,-3.3490448288723655
1403636656213555456,49.966097,568.9856223097298,11.514641541666665,-0.122583125,-5.385485291666667,-0.2457423586808016,-0.0174532925199432,0.0516617458590321,3.17378138789376,970.6697070261537,-3.4152103503256512
1403636656263555584,49.584866,689.2794634147396,8.588990958333333,-0.3105439166666667,-2.966511625,-0.1354375499547599,-0.0446804288510548,0.0844739357965255,2.9225243567738834,967.5092351645624,-3.1604718615913043
1403636656413555456,41.660309,791.3095135187359,9.545139333333331,-0.269682875,-3.3751220416666667,-0.025830872929516,-0.0488692190558412,0.0174532925199432,13.524501529184748,960.765589163702,-6.7436460008603945
1403636656563555584,41.593074,735.1114096432366,11.32668075,-0.6782932916666666,-4.126965208333333,0.0230383461263251,0.0677187749773799,0.0474729556542457,9.581090856478564,951.7782161722813,-8.98737299142067
1403636656613555456,47.663451,709.1169800556154,9.373522958333332,-0.269682875,-3.563082833333333,0.0251327412287183,0.1961750079241626,-0.0132645023151569,3.154403305007735,949.0983804482955,-2.679835723985775
1403636656663555584,50.226927,490.6418682933166,8.368341333333333,0.4576436666666666,-3.28522775,0.0272271363311115,0.2220058808536787,0.0523598775598298,3.0184082192869233,946.0902082695993,-3.0081721786962135
1403636656713555456,61.133146,535.9381326116652,8.801468374999999,0.6292600416666666,-3.138128,0.0579449311662117,0.3700098014227978,0.0272271363311115,3.1974684164686207,943.2300567836342,-2.8601514859651616
1403636656963555584,49.535274,926.7287193174386,7.9433865,0.122583125,-2.868445125,0.0279252680319092,0.1277581012459849,0.0621337213709981,13.941914272232522,928.6234450520183,-14.606611731615885
1403636657063555584,38.17153,972.520598833744,9.961921958333331,0.269682875,-3.742871416666666,0.0446804288510548,0.0551524043630208,0.1270599695451872,6.097514215687707,922.2239736253815,-6.399471426636751
1403636657113555456,50.724268,955.6157900408,8.38468575,0.1389275416666666,-1.985846625,0.064926248174189,0.0747000919853573,0.0900589894029074,3.164808061437937,918.9267781489987,-3.2971954763828535
1403636657163555584,49.814224,904.9678917756148,10.803659416666664,-0.0081722083333333,-5.311935416666666,0.0621337213709981,0.0809832772925368,0.2164208272472968,3.231322303647593,915.614615566086,-3.3121625829127197
1403636657213555456,62.418938,922.5505585124808,10.051816249999998,0.6292600416666666,-1.6916471249999998,0.0314159265358979,-0.1075122819228507,0.140324471860344,3.257600610093228,911.9351644043581,-3.6794511617277976
1403636657263555584,37.702798,754.7714990821902,10.051816249999998,0.6292600416666666,-1.6916471249999998,0.0314159265358979,-0.1075122819228507,0.140324471860344,3.2748193226371196,908.4182766872273,-3.516887717130885
1403636657313555456,50.390482,722.8311598195588,10.779142791666663,-0.1062387083333333,-2.754034208333333,0.0174532925199432,-0.0670206432765822,0.1186823891356144,3.3426341174641085,904.8690585009025,-3.549218186324765
1403636657363555584,49.67165,619.3356334318836,10.967103583333332,-0.3268883333333333,-4.0125542916666666,0.0041887902047863,-0.2310815929640492,0.122173047639603,3.502112901000448,901.101407224906,-3.7676512759965135
