stamp,img_delta,blur,lin_acc.x,lin_acc.y,lin_acc.z,ang_vel.x,ang_vel.y,ang_vel.z,rpe,ate,drift
1403636580913555456,38.660288,263.6663576010954,8.940395916666665,-0.612915625,-3.8245935,-0.1905899543177807,0.3239331091701475,-0.036302848441482,10.585967194075465,16.209650217665896,2.8240519930528656
1403636580963555584,50.57311,295.075412051192,8.123175083333333,0.122583125,-3.751043625,-0.0726056968829641,0.3232349774693498,-0.0069813170079773,7.796085480233195,18.132184925531238,1.922534707865342
1403636581013555456,49.734831,317.76830118686155,7.9433865,-0.1389275416666666,-3.178989041666666,0.0293215314335047,0.2932153143350474,0.0747000919853573,5.7000912376171735,18.055060279883303,-0.07712464564793464
1403636581063555584,59.819698,336.094721139486,8.213069375,0.0898942916666666,-2.827584083333333,-0.0397935069454707,0.2981022362406315,0.2038544566329376,6.162689683721153,20.311387219575025,2.2563269396917214
1403636581113555456,44.092179,317.62326531878347,8.213069375,0.0898942916666666,-2.827584083333333,-0.0397935069454707,0.2981022362406315,0.2038544566329376,5.557922898519011,22.084868978322017,1.7734817587469927
1403636581163555584,45.924902,333.8582387716372,7.976075333333333,0.416782625,-3.178989041666666,0.0013962634015954,0.3364994797845067,0.1466076571675237,4.234431641913708,22.638115227334062,0.5532462490120444
1403636581213555456,49.942255,311.84774189481,7.918869874999999,-0.2288218333333333,-2.6477955,-0.0523598775598298,0.3553490357060455,0.1996656664281513,3.6021329125374133,23.460266910540504,0.8221516832064424
1403636581263555584,61.034202,368.18617940220105,6.235394958333333,-0.53936575,-2.0267076666666664,-0.0230383461263251,0.3092723434533951,0.057246799465414,2.763151277747762,24.15251036222981,0.6922434516893041
1403636581313555456,38.819313,423.3348107646747,6.235394958333333,-0.53936575,-2.0267076666666664,-0.0230383461263251,0.3092723434533951,0.057246799465414,2.182920531285983,24.819414316894207,0.6669039546643987
1403636581363555584,60.877085,706.9276681740287,5.810440125,-0.0653776666666666,-1.6834749166666665,-0.0928515162060983,0.0293215314335047,-0.0209439510239319,1.2376526320339216,25.296602170546862,0.47718785365265504
1403636581413555456,50.985575,898.7292284889082,5.998400916666666,0.1307553333333333,-1.7161637499999998,-0.0488692190558412,-0.1096066770252439,-0.0705113017805709,0.20891665856397415,25.42900588220164,0.13240371165477782
1403636581463555584,38.339853,627.8675556700354,5.998400916666666,0.1307553333333333,-1.7161637499999998,-0.0488692190558412,-0.1096066770252439,-0.0705113017805709,0.8969607072941875,25.21913343004247,-0.20987245215917127
1403636581513555456,60.645342,477.68341668448966,7.2487487916666655,-0.171616375,-2.30456275,-0.0237364778271228,-0.2443460952792061,0.1633628179866692,21.720991713724935,17.843426455452356,-7.375706974590113
1403636581563555584,44.967651,403.2026616945042,7.2487487916666655,-0.171616375,-2.30456275,-0.0237364778271228,-0.2443460952792061,0.1633628179866692,3.166728841261136,17.2933123354103,-0.550114120042057
1403636581613555456,44.479609,403.1741312812884,7.9433865,0.0408610416666666,-2.378112625,0.0747000919853573,-0.2268928027592628,0.093549647906896,3.786007700934541,16.81368991343607,-0.47962242197423066
1403636581663555584,60.447454,432.5322688743063,8.229413791666666,-0.2778550833333333,-3.0564059166666664,0.0747000919853573,-0.1089085453244461,-0.0153588974175501,4.293616465013956,16.35153606545595,-0.4621538479801188
1403636581713555456,50.137043,367.6807377370697,9.430728416666666,-0.1307553333333333,-3.4568441249999995,0.0153588974175501,-0.0335103216382911,0.0956440430092892,4.470347587800319,15.707893622698691,-0.6436424427572582
1403636581763555584,39.574147,404.2509303480711,9.430728416666666,-0.1307553333333333,-3.4568441249999995,0.0153588974175501,-0.0335103216382911,0.0956440430092892,4.375945028358788,14.97986245171572,-0.7280311709829714
1403636581813555456,49.95346,366.736618190612,8.850501625,-0.1879607916666666,-3.260711125,0.1577777643802873,-0.0656243798749867,0.143116998663535,4.567282577015407,14.550515466519709,-0.4293469851960108
1403636581863555584,50.074101,373.80182120812896,9.128356708333332,-0.392266,-3.415983083333333,-0.028623399732707,-0.0837758040957278,0.0823795406941323,4.405760251801401,14.12452943445949,-0.42598603206021934
1403636581913555456,61.024666,322.51026076711,10.092677291666664,-0.5883989999999999,-3.268883333333333,-0.1186823891356144,-0.2771582852166995,0.1242674427419962,4.310228247070335,13.562052215684576,-0.5624772187749141
1403636581963555584,38.841486,291.0877900899805,10.092677291666664,-0.5883989999999999,-3.268883333333333,-0.1186823891356144,-0.2771582852166995,0.1242674427419962,5.29370988741293,13.16637866094501,-0.3956735547395649
1403636582013555456,49.934864,273.7819191842833,10.019127416666668,-0.04903325,-4.175998458333333,-0.1193805208364121,-0.3197443189653611,0.0809832772925368,5.090912717775187,13.731062994335522,0.5646843333905114
1403636582063555584,49.88265,265.27589428368776,11.13054775,-0.3595771666666666,-4.151481833333333,-0.0195476876223364,-0.3218387140677544,0.1061160185212552,3.440360518356788,13.279185875775335,-0.4518771185601871
1403636582113555456,50.046444,256.7156031591092,11.024309041666667,-0.44129925,-4.95235825,0.0139626340159546,-0.3204424506661589,0.0111701072127637,3.2494843478479813,13.025873450446065,-0.2533124253292698
1403636582163555584,50.304174,286.09970191007307,11.759807791666669,-0.0163444166666666,-4.927841624999999,0.0851720674973232,-0.2345722514680378,0.1410226035611418,2.3961921791946827,13.029053855267778,0.003180404821712557
1403636582213555456,60.91094,404.3613294504831,12.405412249999998,-0.1634441666666666,-5.181180083333333,0.0244346095279206,-0.0949459113084915,0.0621337213709981,1.0652302386543604,12.764356376288669,-0.2646974789791088
1403636582263555584,48.648119,669.9820275994263,12.119384958333333,-0.269682875,-5.606134916666666,0.0523598775598298,0.0034906585039886,0.0872664625997164,0.1910053445304058,12.77774788079316,0.013391504504491891
1403636582313555456,49.850703,397.5404395938473,12.119384958333333,-0.269682875,-5.606134916666666,0.0523598775598298,0.0034906585039886,0.0872664625997164,1.1899752068444185,13.208636075511004,0.4308881947178431
1403636582363555584,53.645372,279.69500766314184,10.419565625,0.0735498749999999,-4.748053041666666,-0.0097738438111682,0.3134611336581816,0.0600393262686049,1.8954736862268995,13.890461512886121,0.6818254373751174
1403636582413555456,36.225319,249.5296830135814,10.419565625,0.0735498749999999,-4.748053041666666,-0.0097738438111682,0.3134611336581816,0.0600393262686049,3.896764815540018,13.71880385853089,-0.17165765435523106
1403636582463555584,50.559759,257.97418645542274,10.158054958333333,0.0572054583333333,-4.135137416666667,0.0006981317007977,0.335801348083709,0.1026253600172665,2.6091400607409105,15.440428810302462,1.721624951771572
1403636582513555456,62.027216,290.7092629194779,9.005773583333333,0.2043052083333333,-3.8164212916666655,-0.0844739357965255,0.208043246837724,0.0670206432765822,7.009015240125217,13.727904870893601,-1.712523939408861
1403636582563555584,37.98008,333.02032996963646,9.005773583333333,0.2043052083333333,-3.8164212916666655,-0.0844739357965255,0.208043246837724,0.0670206432765822,4.740531331847266,13.680578900538713,-0.047325970354888725
1403636582613555456,55.294037,370.36355367321767,9.381695166666669,-0.1552719583333333,-3.7919046666666665,-0.132645023151569,0.1270599695451872,-0.0020943951023931,3.9184872741663197,14.533767324361682,0.853188423822969
1403636582663555584,44.916153,397.3712351749055,8.588990958333333,0.0817220833333333,-3.693838166666666,-0.1054178868204575,0.1165879940332212,0.0628318530717958,4.792103150452631,14.538395059298995,0.004627734937313832
1403636582713555456,59.791803,392.457236183335,8.360169125,0.0980665,-3.4241552916666667,-0.093549647906896,0.1682497398922533,0.1549852375770964,4.519939013435199,14.765764264207586,0.22736920490859092
1403636582763555584,44.897318,380.9905771296919,8.360169125,0.0980665,-3.4241552916666667,-0.093549647906896,0.1682497398922533,0.1549852375770964,4.696924125293203,14.86279120501082,0.09702694080323404
1403636582813555456,45.182943,321.8049680303617,9.586000375,0.367749375,-3.309744375,-0.1640609496874669,0.2324778563656447,0.1780235837034216,4.744427382330871,14.914645769538717,0.05185456452789694
1403636582863555584,50.086022,291.991663156984,7.878008833333333,-0.3268883333333333,-3.554910625,-0.1591740277818828,0.3169517921621702,0.200363798128949,5.264271856734351,15.269296821213171,0.35465105167445365
1403636582913555456,55.081844,307.52956291300427,8.3356525,0.0081722083333333,-2.99102825,-0.1158898623324234,0.3672172746196069,0.1940806128217694,3.9352289866259507,16.245378042880397,0.9760812216672257
1403636582963555584,44.628143,320.58394099769583,6.913688249999999,-0.3514049583333333,-2.729517583333333,-0.0439822971502571,0.3665191429188092,0.104021623418862,3.600853025320499,17.03511427329224,0.7897362304118438
1403636583013555456,59.900522,377.2399080743498,6.562283291666667,-0.2941994999999999,-1.8224024583333327,0.025830872929516,0.2073451151369263,0.0579449311662117,3.390017202839986,17.04510444748552,0.00999017419328041
1403636583063555584,46.414614,634.2064112424738,6.562283291666667,-0.2941994999999999,-1.8224024583333327,0.025830872929516,0.2073451151369263,0.0579449311662117,1.5678704360236666,18.021747837398998,0.9766433899134768
1403636583113555456,44.164896,860.8256963254792,6.1209840416666665,0.04903325,-1.5608917916666667,-0.0851720674973232,0.0760963553869527,-0.0069813170079773,1.0053417422599993,18.095446137856207,0.0736983004572096
1403636583163555584,49.842596,838.4443457552464,6.006573125,-0.0653776666666666,-1.830574666666667,-0.0865683308989187,0.0069813170079773,0.0104719755119659,0.48857539367196895,18.218672307965562,0.12322617010935488
1403636583213555456,60.213089,770.1130998773762,7.681875833333333,0.3350605416666666,-1.8060580416666667,-0.0237364778271228,-0.0663225115757845,0.0502654824574366,2.0195011672110224,18.447260150876485,0.2285878429109225
1403636583263555584,39.687634,708.0751010700483,7.681875833333333,0.3350605416666666,-1.8060580416666667,-0.0237364778271228,-0.0663225115757845,0.0502654824574366,2.4355724023210192,18.089760402212033,-0.357499748664452
1403636583313555456,59.799671,614.1682367520524,7.861664416666666,-0.0653776666666666,-2.6477955,-0.0111701072127637,-0.0802851455917391,0.0104719755119659,3.0997974494165703,17.67006243066875,-0.4196979715432825
1403636583363555584,44.081211,437.2350852445632,7.861664416666666,-0.0653776666666666,-2.6477955,-0.0111701072127637,-0.0802851455917391,0.0104719755119659,3.612358144790407,16.924164922796752,-0.745897507871998
1403636583413555456,56.750774,408.593072548256,9.430728416666666,-0.2615106666666666,-2.5170401666666664,0.1291543646475804,-0.1165879940332212,0.0656243798749867,4.124951758084524,16.27864769220721,-0.6455172305895438
1403636583463555584,39.526225,382.86205560585495,9.430728416666666,-0.2615106666666666,-2.5170401666666664,0.1291543646475804,-0.1165879940332212,0.0656243798749867,4.6216338037398526,15.87422961213187,-0.4044180800753381
1403636583513555456,49.57962,392.6439635203239,8.605335375,0.4004382083333333,-3.2770555416666665,-0.028623399732707,-0.132645023151569,-0.028623399732707,4.695964552338083,15.509780848625674,-0.36444876350619637
1403636583563555584,60.572386,371.9869446247163,9.161045541666669,0.196133,-3.563082833333333,-0.1584758960810851,-0.228987197861656,-0.0719075651821663,4.721432234370646,15.062968461530273,-0.4468123870954006
1403636583613555456,39.632797,319.8223207004329,9.161045541666669,0.196133,-3.563082833333333,-0.1584758960810851,-0.228987197861656,-0.0719075651821663,4.852465224224366,14.736724968663351,-0.3262434928669222
1403636583663555584,49.872875,264.8540367873172,9.626861416666666,-0.1634441666666666,-3.5957716666666664,0.1975712713257581,-0.3448770601940795,0.2401573050744197,4.617570171913417,14.066154217565119,-0.6705707510982322
1403636583713555456,49.878836,249.97978283254068,10.1008495,-0.0408610416666666,-3.92266,0.0628318530717958,-0.4244640740850209,0.2345722514680378,4.439176769184348,13.386732192522075,-0.6794220250430438
1403636583763555584,59.68523,248.3459381855288,10.313326916666666,-0.1470997499999999,-4.135137416666667,-0.0041887902047863,-0.3686135380212024,0.122173047639603,4.354041535831341,12.810622100718827,-0.5761100918032476
1403636583813555456,45.271635,239.2705208229873,10.313326916666666,-0.1470997499999999,-4.135137416666667,-0.0041887902047863,-0.3686135380212024,0.122173047639603,3.9266083760165404,12.498448619771127,-0.3121734809477008
1403636583863555584,45.168638,257.31447149648693,9.880199875,0.1307553333333333,-4.731708625,-0.0251327412287183,-0.2478367537831947,0.0733038285837618,3.495836340458184,12.364865534452175,-0.1335830853189517
1403636583913555456,49.942494,278.8081840799192,10.558493166666668,-0.5802267916666666,-4.829775124999999,-0.0069813170079773,-0.1500983156715123,-0.0628318530717958,3.3598382291539877,12.339955587971584,-0.02490994648059086
1403636583963555584,50.006628,303.789866730484,10.705592916666664,-0.3759215833333333,-5.140319041666666,0.0558505360638185,-0.0872664625997164,-0.0781907504893459,2.545916956492989,12.457774157552203,0.11781856958061887
1403636584013555456,50.095796,403.3734010090676,11.32668075,-0.2043052083333333,-5.042252541666667,0.1151917306316257,-0.0139626340159546,0.0370009801422797,1.344698923736835,12.21907602023687,-0.23869813731533362
1403636584063555584,60.563565,556.5049473913166,11.596363625,0.0980665,-4.895152791666666,0.0963421747100869,0.0195476876223364,0.0998328332140756,0.8846916704392749,12.256690913973433,0.03761489373656346
1403636584113555456,43.682337,528.9564609990666,11.596363625,0.0980665,-4.895152791666666,0.0963421747100869,0.0195476876223364,0.0998328332140756,0.2386936789145591,12.388157874367794,0.131466960394361
1403636584163555584,45.851469,395.0128542879143,11.898735333333333,0.1797885833333333,-5.107630208333333,0.0747000919853573,0.0202458193231342,0.0635299847725936,1.2841385439022346,12.674464002852073,0.28630612848427894
1403636584213555456,49.737215,353.27031295387235,10.672904083333334,-0.1144109166666666,-4.993219291666667,0.0,0.0335103216382911,0.0488692190558412,2.0300598852954876,13.048831293816004,0.3743672909639315
1403636584263555584,50.202608,313.5195116645948,10.517632125,-0.0653776666666666,-4.715364208333333,0.0083775804095727,0.0956440430092892,0.0677187749773799,3.588984102283211,12.706946485067533,-0.34188480874847116
1403636584313555456,60.518265,319.0126206691533,10.476771083333333,0.4494714583333333,-4.225031708333333,-0.08307767239493,0.0809832772925368,-0.0677187749773799,3.692843825106512,12.79850423460887,0.09155774954133733
1403636584363555584,39.397478,338.7114125333576,10.476771083333333,0.4494714583333333,-4.225031708333333,-0.08307767239493,0.0809832772925368,-0.0677187749773799,4.146009508405949,12.93286003079101,0.13435579618214
1403636584413555456,49.45445,307.0761492987769,9.643205833333331,-0.0735498749999999,-4.233203916666667,-0.189891822616983,0.0984365698124801,-0.0300196631343024,4.807398077060297,12.837779243417167,-0.09508078737384373
1403636584463555584,50.270319,299.09143919946723,9.177389958333332,0.0898942916666666,-4.257720541666666,-0.1172861257340189,0.1752310569002306,-0.0453785605518525,4.506302353008696,13.375065449052784,0.5372862056356169
1403636584513555456,50.067425,272.0738330703182,9.349006333333334,-0.0898942916666666,-3.9390044166666662,-0.0537561409614253,0.2450442269800038,0.1277581012459849,5.125193397682566,13.527252308661202,0.1521868596084186
1403636584563555584,49.929857,285.4863616634131,9.259112041666668,0.2778550833333333,-3.8654545416666655,-0.08307767239493,0.2932153143350474,0.0453785605518525,5.171319223823828,13.637683853690207,0.11043154502900521
1403636584613555456,55.080652,257.7938147700252,8.401030166666667,0.024516625,-3.8409379166666655,-0.1417207352619395,0.3923500158483253,0.1584758960810851,5.144119517522867,13.935397505482216,0.2977136517920087
1403636584663555584,58.361054,252.2727263460188,7.510259458333333,0.0898942916666666,-3.195333458333333,-0.1333431548523667,0.4656538444320871,0.1228711793404008,5.202914794262383,13.943030318937463,0.007632813455247245
1403636584713555456,41.963339,259.13720548480967,7.510259458333333,0.0898942916666666,-3.195333458333333,-0.1333431548523667,0.4656538444320871,0.1228711793404008,4.693825619455211,14.364679636895819,0.42164931795835514
1403636584763555584,55.558443,287.5679642230647,7.175198916666666,-0.0408610416666666,-2.7213453750000003,-0.0579449311662117,0.3378957431861022,0.1410226035611418,4.9300260207192235,15.469858893017252,1.105179256121433
1403636584813555456,49.581051,326.06285646679504,7.346815291666666,0.220649625,-2.557901208333333,-0.0272271363311115,0.2715732316103177,0.1850049007113989,3.853769135238501,16.235754956515606,0.7658960634983547
1403636584863555584,44.300556,460.5136350139532,7.346815291666666,0.220649625,-2.557901208333333,-0.0272271363311115,0.2715732316103177,0.1850049007113989,3.1718069654868555,17.333799302620083,1.0980443461044764
1403636584913555456,45.48192,610.8213042981412,6.22722275,-0.1144109166666666,-1.871435708333333,0.0397935069454707,0.1884955592153876,0.1759291886010284,2.6619161709584582,17.791347583412524,0.4575482807924409
1403636584963555584,49.986363,776.0558942147965,6.799277333333333,0.63743225,-1.5608917916666667,-0.0788888821901436,0.0914552528045028,0.2157226955464991,1.6723610294340485,17.963023686221895,0.1716761028093714
1403636585013555456,56.794881,1029.465479462413,7.036271375,0.3023717083333333,-1.8550912916666664,-0.0984365698124801,-0.0628318530717958,0.0949459113084915,0.43437710209159336,18.413977592518847,0.4509539062969523
1403636585063555584,43.640614,886.627514530518,7.036271375,0.3023717083333333,-1.8550912916666664,-0.0984365698124801,-0.0628318530717958,0.0949459113084915,0.5231141881406643,18.39672222816201,-0.0172553643568385
1403636585113555456,49.656153,810.3935523761095,6.652177583333333,0.2288218333333333,-2.0267076666666664,0.0153588974175501,-0.0760963553869527,0.1110029404268393,1.2005984520486135,18.056205662757336,-0.34051656540467334
1403636585163555584,55.822849,648.680786847138,7.722736874999999,0.1307553333333333,-2.0675687083333334,-0.1179842574348166,-0.1012290966156711,0.0390953752446729,2.0800128986864896,17.57421572032957,-0.4819899424277665
1403636585213555456,44.035673,598.4291784014974,7.79628675,0.2941994999999999,-2.329079375,-0.1214749159388053,-0.1117010721276371,0.0733038285837618,2.8677419077808963,17.126779947215574,-0.44743577311399463
1403636585263555584,50.119877,613.211880357615,8.719746291666667,-0.1470997499999999,-2.7131731666666665,-0.1061160185212552,-0.1047197551196597,-0.1207767842380075,3.4128021754106403,16.815896019204907,-0.3108839280106679
1403636585313555456,61.348438,451.351267242731,9.144701125,0.3105439166666667,-3.0400615,-0.0048869219055841,-0.114493598930828,-0.036302848441482,3.0169328787772196,15.536261332840615,-1.2796346863642913
1403636585363555584,49.831629,439.73543734926784,9.586000375,0.0163444166666666,-3.4486719166666666,-0.0027925268031909,-0.132645023151569,-0.0383972435438752,3.555263752040853,14.757280181952368,-0.7789811508882476
1403636585413555456,38.491011,406.6188253069632,9.586000375,0.0163444166666666,-3.4486719166666666,-0.0027925268031909,-0.132645023151569,-0.0383972435438752,3.6988430241333567,14.336208052251598,-0.4210721297007698
1403636585463555584,55.174589,377.7254064132072,9.095667875,0.0572054583333333,-3.8082490833333327,0.143116998663535,-0.1745329251994329,0.0279252680319092,3.8986448976186217,14.191449530221398,-0.1447585220301999
1403636585513555456,44.923544,367.2572321912056,9.978266375,0.392266,-3.857282333333333,0.1005309649148733,-0.1905899543177807,0.0027925268031909,3.865684786089941,14.25445234142548,0.06300281120408258
1403636585563555584,50.201416,326.98960137764,9.872027666666666,0.5148491249999999,-4.576436666666666,0.2715732316103177,-0.2087413785385218,0.0055850536063818,3.4683773904254624,13.595921382624413,-0.6585309588010677
1403636585613555456,61.181545,322.8867570930013,10.419565625,-0.122583125,-4.797086291666667,0.2638937829015426,-0.2429498318776106,0.1459095254667259,3.1843539965683316,13.48507932405019,-0.11084205857422269
1403636585663555584,38.775206,319.5693247433849,10.419565625,-0.122583125,-4.797086291666667,0.2638937829015426,-0.2429498318776106,0.1459095254667259,2.6907731139522313,13.405910684742278,-0.07916863930791251
1403636585713555456,49.897194,338.08550058121097,10.533976541666666,0.5148491249999999,-3.832765708333333,0.2241002759560719,-0.2729694950119131,0.1864011641129944,2.228554424498551,13.423988515846991,0.018077831104713837
1403636585763555584,50.089836,361.471019827733,10.468598874999998,-0.3595771666666666,-4.380303666666666,0.1661553447898601,-0.2953097094374406,0.1926843494201739,1.5339908192923337,13.286106581261127,-0.13788193458586484
1403636585813555456,50.117969,363.1253069620442,9.822994416666669,0.0817220833333333,-4.404820291666666,0.171740398396242,-0.3127630019573839,0.249931148885588,1.1693828026396107,13.070206604807455,-0.21589997645367198
1403636585863555584,50.305605,369.899934685107,10.043644041666663,-0.269682875,-4.404820291666666,0.143116998663535,-0.3581415625092364,0.1850049007113989,0.9617326127194206,11.769582326576451,-1.3006242782310036
1403636585913555456,59.626579,390.8581372311539,9.136528916666666,-0.1062387083333333,-4.069759749999999,-0.0607374579694026,-0.4377285764001778,0.1459095254667259,0.2828249155313595,11.224034784240061,-0.54554754233639
1403636585963555584,39.538146,352.5517791347333,9.136528916666666,-0.1062387083333333,-4.069759749999999,-0.0607374579694026,-0.4377285764001778,0.1459095254667259,0.2191340154147616,10.804910834358369,-0.4191239498816923
1403636586013555456,49.932003,338.6089538563781,8.866846041666665,-0.196133,-4.633642125,-0.1738347934986352,-0.4740314248416599,0.153588974175501,0.18147717775306732,10.49023455283791,-0.3146762815204589
1403636586063555584,55.482149,344.68151569585,8.719746291666667,-0.416782625,-4.985047083333333,-0.3399901382884954,-0.4796164784480418,0.0991347015132779,0.3008814182352,10.26854347650664,-0.22169107633127005
1403636586113555456,54.945707,405.4361015348146,8.294791458333332,-0.4086104166666666,-5.410001916666666,-0.2017600615305445,-0.3455751918948772,0.1891936909161853,0.38979124489930267,10.302558476934793,0.03401500042815364
1403636586163555584,40.039062,483.57960933951045,8.294791458333332,-0.4086104166666666,-5.410001916666666,-0.2017600615305445,-0.3455751918948772,0.1891936909161853,0.439457351794056,10.60935381705779,0.3067953401229975
1403636586213555456,59.668065,391.9836730910905,7.788114541666666,0.2369940416666666,-5.475379583333333,-0.0383972435438752,-0.3741985916275842,0.1228711793404008,0.35981091482783417,10.604480037626784,-0.004873779431006753
1403636586263555584,51.542759,339.90127222783667,7.436709583333332,-0.04903325,-5.93302325,-0.0349065850398865,-0.3741985916275842,0.2143264321449036,0.2505390462794274,10.64104556843298,0.03656553080619673
1403636586313555456,38.716316,350.38868493991885,7.436709583333332,-0.04903325,-5.93302325,-0.0349065850398865,-0.3741985916275842,0.2143264321449036,0.16285457355148608,10.626067162671575,-0.014978405761405966
1403636586363555584,59.718609,312.6568976799208,7.126165666666666,-0.0817220833333333,-6.145500666666667,-0.018151424220741,-0.3937462792499207,0.2247984076568696,0.24248853887064498,10.598990860210815,-0.02707630246075965
1403636586413555456,52.191496,314.8132503629751,7.886181041666666,0.0,-6.219050541666666,-0.0027925268031909,-0.3546509040052477,0.0349065850398865,0.32641941576268957,10.617483525904898,0.018492665694083144
1403636586463555584,38.212776,323.2391162619536,7.886181041666666,0.0,-6.219050541666666,-0.0027925268031909,-0.3546509040052477,0.0349065850398865,0.32053590208896776,10.523811825502984,-0.09367170040191475
1403636586513555456,49.971103,379.13305362689687,7.951558708333333,-0.0326888333333333,-6.071950791666666,-0.0139626340159546,-0.3099704751541929,0.0537561409614253,0.2598737769021354,10.31553580730776,-0.2082760181952228
1403636586563555584,50.176621,499.0049409265588,7.673703624999999,0.24516625,-6.088295208333333,0.0516617458590321,-0.2227040125544764,0.0041887902047863,0.34340067641819494,10.023110422491278,-0.2924253848164824
1403636586613555456,50.062179,870.1512930487958,7.820803375,-0.0326888333333333,-5.93302325,0.0509636141582344,-0.0984365698124801,0.1054178868204575,0.5306884880975493,9.841100073352946,-0.18201034913833247
1403636586663555584,49.697161,742.7246038452411,7.739081291666666,-0.122583125,-6.145500666666667,-0.0188495559215387,0.025830872929516,0.0879645943005142,0.7139901273769897,9.820805593697756,-0.020294479655190045
1403636586713555456,50.231934,630.6670337133876,7.1588545,-0.5311935416666667,-5.990228708333333,0.0635299847725936,0.1514945790731078,0.0984365698124801,0.6352318388215797,9.683530646482474,-0.13727494721528188
1403636586763555584,60.564995,597.6050870402282,7.019926958333333,-0.4249548333333333,-6.039261958333333,0.0425860337486616,0.1870992958137921,0.064926248174189,0.618766224402678,9.558293643719564,-0.12523700276291017
1403636586813555456,49.990415,604.651314218035,7.142510083333334,-1.12776475,-6.129156249999999,0.0530580092606276,0.1570796326794896,0.0230383461263251,0.6391131171508608,9.469543655224506,-0.08874998849505822
1403636586863555584,39.34598,767.0270325810396,7.142510083333334,-1.12776475,-6.129156249999999,0.0530580092606276,0.1570796326794896,0.0230383461263251,0.5129785120878785,9.398569690861587,-0.0709739643629188
1403636586913555456,55.022001,772.1579962334038,7.420365166666667,-0.7518431666666666,-6.153672874999999,0.0663225115757845,0.132645023151569,-0.0153588974175501,0.24939994185608702,9.394217162796803,-0.004352528064783812
1403636586963555584,48.918247,854.0219501968643,7.788114541666666,-0.1879607916666666,-6.161845083333333,0.0747000919853573,0.0914552528045028,0.007679448708775,0.1630364066608881,9.45526315601052,0.06104599321371751
1403636587013555456,47.83535,857.6256281277333,7.256920999999999,-0.6047434166666666,-6.202706124999999,0.0823795406941323,0.054454272662223,-0.0342084533390888,0.23521879014901564,9.478097938696095,0.022834782685574595
1403636587063555584,49.561501,885.1513014338315,7.690048041666667,-0.0817220833333333,-6.390666916666666,0.018151424220741,-0.0432841654494593,-0.0167551608191455,0.21722263806299397,9.499262570089607,0.021164631393512323
1403636587113555456,55.088043,890.1768316164939,7.240576583333333,0.1389275416666666,-6.080123,0.0237364778271228,-0.0774926187885482,0.0188495559215387,0.26342792045264535,9.532283477019417,0.03302090692980997
1403636587163555584,43.758154,852.7666499741379,7.60015375,0.2941994999999999,-6.243567166666667,0.0027925268031909,-0.0719075651821663,-0.0006981317007977,0.3580226338632816,9.518261467424507,-0.0140220095949104
1403636587213555456,60.758114,798.4294619150937,7.542948291666666,0.3514049583333333,-6.243567166666667,-0.0090757121103705,-0.0069813170079773,0.124965574442794,0.613586691665355,9.445416062356676,-0.07284540506783088
1403636587263555584,51.841497,707.0785458869681,7.453054,0.6864655000000001,-6.219050541666666,-0.0432841654494593,-0.0160570291183478,0.1068141502220529,0.871758699036157,9.328426218200596,-0.11698984415608038
1403636587313555456,37.690163,557.6488170625967,7.453054,0.6864655000000001,-6.219050541666666,-0.0432841654494593,-0.0160570291183478,0.1068141502220529,1.1412314918992885,9.146037515708084,-0.1823887024925117
1403636587363555584,49.941301,526.9613084370557,7.469398416666666,0.2043052083333333,-6.366150291666666,-0.0370009801422797,-0.0020943951023931,0.1445132620651305,1.4568737226062016,8.833529745486757,-0.3125077702213268
1403636587413555456,60.174942,475.2887675108977,7.469398416666666,0.24516625,-6.537766666666666,-0.0153588974175501,-0.0237364778271228,0.1891936909161853,1.646985263472829,8.523405129355329,-0.3101246161314286
1403636587463555584,39.477349,446.1231627914409,7.469398416666666,0.24516625,-6.537766666666666,-0.0153588974175501,-0.0237364778271228,0.1891936909161853,1.8924046959389544,8.143657524400428,-0.37974760495490045
1403636587513555456,50.036192,421.6803181901598,7.232404375,0.4249548333333333,-6.562283291666667,-0.0216420827247296,-0.018151424220741,0.1452113937659282,2.2918636239032297,7.842613451794378,-0.30104407260605015
1403636587563555584,60.052633,380.29181334212007,7.649186999999999,0.04903325,-6.71755525,-0.0795870138909414,0.0516617458590321,0.143116998663535,2.4881818617908826,7.493725953006723,-0.3488874987876551
1403636587613555456,39.260149,344.7407769547826,7.649186999999999,0.04903325,-6.71755525,-0.0795870138909414,0.0516617458590321,0.143116998663535,2.581796896681697,7.201578596849524,-0.2921473561571988
1403636587663555584,50.727129,310.87468752772224,7.559292708333333,-0.0081722083333333,-6.268083791666666,-0.0767944870877505,0.132645023151569,0.182212373908208,2.6340459245095817,7.111724686153159,-0.08985391069636517
1403636587713555456,60.847044,318.2236511189868,7.273265416666667,-0.3268883333333333,-6.317117041666666,-0.1242674427419962,0.1738347934986352,0.2171189589480945,3.1900755295112653,6.5941293196830495,-0.5175953664701094
1403636587763555584,50.480127,302.65101010429004,7.10982125,-0.5475379583333333,-6.161845083333333,-0.1270599695451872,0.1270599695451872,0.1682497398922533,3.1782882679513063,6.386928806362456,-0.20720051332059342
1403636587813555456,38.805247,324.8961989847588,7.10982125,-0.5475379583333333,-6.161845083333333,-0.1270599695451872,0.1270599695451872,0.1682497398922533,3.141420770869532,6.152005835874744,-0.2349229704877125
1403636587863555584,49.581289,338.7355826577008,6.938204874999999,-0.6456044583333332,-6.03108975,-0.1158898623324234,0.0404916386462684,0.200363798128949,3.3141369917560644,5.903710074768064,-0.2482957611066796
1403636587913555456,49.871445,320.7117298001232,7.044443583333333,-0.7273265416666667,-6.317117041666666,-0.1263618378443894,-0.0502654824574366,0.1382300767579508,3.234016184330231,5.798158249077483,-0.10555182569058097
1403636587963555584,49.994707,272.7151727584963,7.224232166666667,-0.809048625,-6.357978083333332,-0.2150245638457014,-0.1521927107739055,0.132645023151569,3.100928784482498,5.8783139294559765,0.08015568037849352
1403636588013555456,49.868106,257.21181008825494,7.10982125,-0.8744262916666666,-6.161845083333333,-0.2122320370425104,-0.1996656664281513,0.1158898623324234,3.1290382061123676,6.382042186020122,0.5037282565641457
1403636588063555584,61.66339,291.54057069924943,7.216059958333333,-1.22583125,-6.4805612083333335,-0.1110029404268393,-0.1570796326794896,0.1829105056090057,2.648803932447759,6.815819361256828,0.4337771752367061
1403636588113555456,38.34939,350.96324183898315,7.216059958333333,-0.7927042083333332,-6.725727458333332,-0.0265290046303138,-0.0970403064108847,0.1005309649148733,2.192782770422025,7.186786593639395,0.3709672323825668
1403636588163555584,50.267458,378.6622972196963,7.265093208333333,-1.2094868333333333,-6.42335575,-0.0349065850398865,-0.0418879020478639,0.054454272662223,2.45389291277651,8.074835480728325,0.8880488870889298
1403636588213555456,60.540676,445.212577508754,7.2487487916666655,-1.3811032083333332,-6.61948875,0.0404916386462684,0.0726056968829641,0.1179842574348166,1.7274883288093192,8.523243004651606,0.4484075239232812
1403636588263555584,39.62779,551.2900189010277,7.2487487916666655,-1.3811032083333332,-6.61948875,0.0404916386462684,0.0726056968829641,0.1179842574348166,1.233033261864533,8.780780973045774,0.25753796839416765
1403636588313555456,49.983025,597.8364319868057,7.077132416666666,-1.0950759166666666,-6.701210833333333,0.0614355896702004,0.0837758040957278,0.0684169066781777,0.9541316756251336,9.071061005098459,0.29028003205268504
1403636588363555584,50.017357,589.3927631649217,7.175198916666666,-1.3157255416666664,-6.856482791666667,0.0677187749773799,0.0977384381116824,0.1172861257340189,0.4907162436844911,9.180494153273125,0.10943314817466643
1403636588413555456,49.810648,614.9364159344534,7.10982125,-1.2176590416666666,-6.594972124999999,0.0230383461263251,0.075398223686155,0.1130973355292325,0.176725487915726,9.233592795572033,0.053098642298907706
1403636588463555584,61.141014,622.5074856602536,7.534776083333333,-1.438308666666667,-6.815621749999999,-0.0621337213709981,0.0027925268031909,0.0328121899374933,0.2824516041113157,9.160556083742632,-0.07303671182940086
1403636588513555456,38.33723,579.4157890313378,7.534776083333333,-1.438308666666667,-6.815621749999999,-0.0621337213709981,0.0027925268031909,0.0328121899374933,0.5967694051709087,8.977949979597161,-0.18260610414547074
1403636588563555584,50.652981,489.1807320033692,7.232404375,-1.4056198333333334,-6.668522,-0.046774823953448,0.0307177948351002,0.0593411945678072,0.9897214000691514,8.67741053021167,-0.30053944938549115
1403636588613555456,54.361344,396.8798993264992,7.346815291666666,-1.22583125,-6.799277333333333,0.018151424220741,0.0342084533390888,0.0991347015132779,1.3965783651882349,8.308439554064302,-0.3689709761473683
1403636588663555584,45.543909,377.2199158983914,6.676694208333332,-1.0869037083333333,-6.276256,0.0251327412287183,0.0356047167406843,0.0425860337486616,1.7338718683951098,7.883235101790434,-0.42520445227386805
1403636588713555456,49.71075,321.53284143731383,7.052615791666666,-0.907115125,-6.390666916666666,0.1019272283164688,-0.0237364778271228,0.0837758040957278,2.1960416183763587,7.344684788190527,-0.5385503135999068
1403636588763555584,50.035,325.94614316238136,7.085304625,-0.956148375,-6.407011333333333,0.0712094334813686,-0.0460766922526503,0.0013962634015954,2.283654127721172,6.894897943815553,-0.44978684437497396
1403636588813555456,50.183773,318.4361377078074,7.207887749999999,-0.956148375,-6.22722275,0.0712094334813686,-0.0411897703470661,0.0195476876223364,2.4827927305062585,6.465873101769998,-0.42902484204555513
1403636588863555584,60.079575,285.3374380638223,7.093476833333334,-0.83356525,-6.791105125,0.0907571211037051,0.0307177948351002,0.0244346095279206,2.752787272593317,6.066825092065126,-0.3990480097048721
1403636588913555456,44.086218,310.00023270831446,7.093476833333334,-0.83356525,-6.791105125,0.0907571211037051,0.0307177948351002,0.0244346095279206,3.045330564165524,5.70520888767937,-0.36161620438575603
1403636588963555584,45.877456,291.1858039826407,7.387676333333332,-0.8825985,-6.644005375,0.1123992038284348,0.0607374579694026,0.0132645023151569,3.229659401464576,5.40459859607514,-0.3006102916042295
1403636589013555456,59.999943,288.0721253878102,7.314126458333333,-0.4739880833333333,-6.415183541666666,0.1068141502220529,0.1207767842380075,0.0020943951023931,3.4927895117774375,5.18992926566785,-0.21466933040729064
1403636589063555584,44.779062,301.7137550161438,7.314126458333333,-0.4739880833333333,-6.415183541666666,0.1068141502220529,0.1207767842380075,0.0020943951023931,3.4414263795704794,5.457163202745382,0.26723393707753207
1403636589113555456,45.055628,305.4602198458944,7.461226208333334,-0.83356525,-6.390666916666666,0.1186823891356144,0.124965574442794,0.0048869219055841,3.8149676054129817,5.9619001650724455,0.5047369623270637
1403636589163555584,50.316811,324.9091698225827,7.256920999999999,-0.73549875,-6.2599115833333325,0.0705113017805709,0.1026253600172665,0.0048869219055841,3.5229031163134956,6.690422459193096,0.7285222941206504
1403636589213555456,55.457592,327.7884300866278,7.2487487916666655,-0.8580818749999999,-6.243567166666667,0.0823795406941323,0.0684169066781777,0.0481710873550434,3.413748465639916,7.181632609993007,0.4912101507999109
1403636589263555584,44.726133,326.4917644603309,7.314126458333333,-0.5230213333333333,-6.096467416666667,0.057246799465414,-0.0111701072127637,-0.0034906585039886,3.416147060531507,7.5811140392503615,0.39948142925735475
1403636589313555456,49.751282,313.1524774259184,6.742071875,-0.7518431666666666,-5.965712083333332,0.1103048087260416,-0.0460766922526503,-0.0202458193231342,3.4770310746682833,7.845563577057497,0.26444953780713565
1403636589363555584,50.179005,308.9838426426469,7.657359208333333,-0.2533384583333333,-6.145500666666667,0.0851720674973232,-0.075398223686155,0.0125663706143591,4.274137330927729,8.859003065345632,1.0134394882881352
1403636589413555456,62.341451,331.04474056898766,7.01175475,-0.4985047083333333,-6.284428208333333,0.0237364778271228,0.0244346095279206,0.0111701072127637,3.4108262818160187,9.3438372666444,0.4848342012987672
1403636589463555584,36.616564,358.3734613222847,7.01175475,-0.4985047083333333,-6.284428208333333,0.0237364778271228,0.0244346095279206,0.0111701072127637,3.306422204672682,9.788788906018455,0.4449516393740556
1403636589513555456,50.679445,356.97205278995915,7.3549875,-0.5475379583333333,-6.537766666666666,0.0495673507566389,0.0656243798749867,0.0565486677646162,3.3335161210051694,10.346912522560247,0.558123616541792
1403636589563555584,50.033808,368.303984925509,7.093476833333334,-0.3759215833333333,-6.063778583333333,0.0593411945678072,0.0726056968829641,0.0565486677646162,3.282323263551613,11.142454119691775,0.7955415971315283
1403636589613555456,60.462713,370.2648209594816,7.232404375,-0.2941994999999999,-6.382494708333334,0.0439822971502571,0.0691150383789754,0.0418879020478639,3.2551514184511734,11.931209353418604,0.7887552337268282
1403636589663555584,44.335366,384.4177591600367,7.232404375,-0.2941994999999999,-6.382494708333334,0.0439822971502571,0.0691150383789754,0.0418879020478639,3.09664576307668,12.694100129056796,0.7628907756381924
1403636589713555456,45.033693,351.5575954507982,7.305954249999999,-0.4004382083333333,-5.941195458333333,0.0740019602845595,0.0376991118430775,0.0335103216382911,3.073533597206839,13.210276782151418,0.5161766530946217
1403636589763555584,50.184965,327.1781508146077,7.2487487916666655,0.0326888333333333,-6.194533916666667,0.140324471860344,-0.0209439510239319,0.064926248174189,2.989299938842117,13.45100893034544,0.2407321481940219
1403636589813555456,49.802542,331.25544112849866,7.134337875,0.2124774166666666,-6.1209840416666665,0.1514945790731078,-0.0795870138909414,-0.0048869219055841,2.9889106797668736,14.21499217726541,0.7639832469199703
1403636589863555584,50.134182,332.82971180457787,7.542948291666666,0.1879607916666666,-6.22722275,0.1382300767579508,-0.1277581012459849,-0.0013962634015954,2.6751951382226893,14.492756120611727,0.2777639433463168
1403636589913555456,49.715996,342.97242939237685,7.199715541666666,0.0817220833333333,-6.439700166666666,0.1577777643802873,-0.1019272283164688,0.0446804288510548,2.4132041268406157,14.674642284878258,0.18188616426653148
1403636589963555584,50.276994,354.75423735579113,7.379504124999999,-0.0735498749999999,-6.415183541666666,0.1975712713257581,-0.0335103216382911,0.0551524043630208,2.2107157780536935,14.914225843691781,0.2395835588135231
1403636590013555456,49.84951,434.6865691410771,8.204897166666667,0.4494714583333333,-6.880999416666667,0.1514945790731078,0.0628318530717958,0.0502654824574366,1.9787617654282343,15.087879274088031,0.17365343039625003
1403636590063555584,50.185919,502.959188643099,7.371331916666667,0.2288218333333333,-6.505077833333333,0.114493598930828,0.1424188669627373,0.0160570291183478,1.6195707788092868,15.283567838705359,0.19568856461732764
1403636590113555456,49.853087,564.3401527308923,7.878008833333333,0.2778550833333333,-6.472389,0.1179842574348166,0.1661553447898601,0.0579449311662117,1.3477667642432118,15.493145334071176,0.20957749536581716
1403636590163555584,49.996137,753.440421401189,7.428537374999999,0.6537766666666667,-6.439700166666666,0.0970403064108847,0.1389282084587486,0.0383972435438752,0.9463683004774511,15.60271278239882,0.10956744832764365
1403636590213555456,50.333977,1043.3777235780235,7.616498166666665,0.5965712083333333,-6.456044583333333,0.028623399732707,0.0914552528045028,0.0614355896702004,0.5274274503157331,15.735219723402086,0.13250694100326577
1403636590263555584,60.686827,1138.4342258575898,7.485742833333332,0.4739880833333333,-6.268083791666666,-0.0614355896702004,-0.0223402144255274,0.0537561409614253,0.11035627084479176,15.766288220061275,0.03106849665918965
1403636590313555456,50.271988,876.8206102088677,7.477570624999999,0.5148491249999999,-6.431527958333334,-0.1082104136236484,-0.025830872929516,0.0879645943005142,0.2839894296389071,15.772194839779678,0.0059066197184023395
1403636590363555584,49.32189,659.4345540438189,7.428537374999999,0.465815875,-6.415183541666666,-0.1193805208364121,0.0048869219055841,0.0872664625997164,0.7015405305248505,15.740050114822418,-0.032144724957259285
1403636590413555456,43.031215,520.5018033230878,7.428537374999999,0.465815875,-6.415183541666666,-0.1193805208364121,0.0048869219055841,0.0872664625997164,1.1143165783553401,15.672434667720703,-0.06761544710171563
1403636590463555584,56.362391,425.7964551472622,7.485742833333332,0.2778550833333333,-6.137328458333333,-0.1354375499547599,0.0809832772925368,0.0851720674973232,1.482192635349041,15.56901431231458,-0.10342035540612216
1403636590513555456,39.931774,403.4597579769244,7.485742833333332,0.2778550833333333,-6.137328458333333,-0.1354375499547599,0.0809832772925368,0.0851720674973232,1.8024123670074907,15.413854398153024,-0.1551599141615565
1403636590563555584,59.326649,396.29427367494026,7.338643083333332,0.0980665,-5.93302325,-0.1235693110411985,0.0809832772925368,0.1130973355292325,2.0894852376718687,15.246753796189576,-0.16710060196344756
1403636590613555456,40.327549,390.7587933510095,7.338643083333332,0.0980665,-5.93302325,-0.1235693110411985,0.0809832772925368,0.1130973355292325,2.3150363156947695,15.036669996508007,-0.21008379968156987
1403636590663555584,50.459384,394.8338992069879,7.485742833333332,-0.1144109166666666,-6.022917541666666,-0.1242674427419962,0.0446804288510548,0.1054178868204575,2.5223438841371877,14.72329676857732,-0.3133732279306862
1403636590713555456,59.844494,371.5855217263114,7.469398416666666,-0.3023717083333333,-5.916678833333333,-0.0781907504893459,-0.046774823953448,0.1696460032938488,2.642439350128314,14.452751647323806,-0.27054512125351415
1403636590763555584,40.24911,410.6351594261783,7.469398416666666,-0.3023717083333333,-5.916678833333333,-0.0781907504893459,-0.046774823953448,0.1696460032938488,2.8132162697286924,14.079240073262985,-0.3735115740608208
1403636590813555456,49.581051,400.776525385584,7.338643083333332,0.0081722083333333,-5.867645583333333,-0.0335103216382911,-0.1019272283164688,0.1598721594826805,2.8613091609168877,13.793729064024522,-0.28551100923846384
1403636590863555584,60.407876,388.8183998998678,7.444881791666666,-0.1144109166666666,-6.300772625,-0.0677187749773799,-0.0656243798749867,0.1284562329467826,2.976860644707539,13.414255976142305,-0.3794730878822161
1403636590913555456,39.844513,373.2618203413382,7.444881791666666,-0.1144109166666666,-6.300772625,-0.0677187749773799,-0.0656243798749867,0.1284562329467826,3.1014717172227777,13.049331810342183,-0.3649241658001223
1403636590963555584,60.682774,385.10462356268056,7.50208725,-0.7927042083333332,-6.349805875,0.0146607657167523,0.0404916386462684,0.1207767842380075,3.2159681371218967,12.56367283974262,-0.4856589705995624
1403636591013555456,44.991732,381.0322344256846,7.50208725,-0.7927042083333332,-6.349805875,0.0146607657167523,0.0404916386462684,0.1207767842380075,3.133812107735722,12.43483020758122,-0.12884263216140113
1403636591063555584,44.406652,390.7887358619771,7.363159708333333,-0.6047434166666666,-6.357978083333332,0.0356047167406843,0.0523598775598298,0.0851720674973232,3.017677989475618,12.152494136238458,-0.28233607134276184
1403636591113555456,50.297499,388.62695387359486,7.305954249999999,-0.8172208333333333,-6.333461458333334,0.0390953752446729,0.0376991118430775,0.114493598930828,3.003068487005821,11.79940278289236,-0.3530913533460982
1403636591163555584,49.976826,380.07692119671503,7.444881791666666,-0.8825985,-6.390666916666666,-0.0062831853071795,0.0146607657167523,0.1591740277818828,3.10468897829287,11.435563792747613,-0.3638389901447461
1403636591213555456,60.904741,373.6535792082765,7.117993458333333,-1.1522813749999998,-6.268083791666666,-0.0446804288510548,-0.0370009801422797,0.124965574442794,3.0297158433621645,10.710491328281103,-0.7250724644665105
1403636591263555584,49.630403,372.7962789912769,6.962721499999999,-1.4464808749999998,-6.292600416666667,-0.0733038285837618,-0.0404916386462684,0.1137954672300302,2.941703792018732,10.248740748031599,-0.4617505802495039
1403636591313555456,45.909643,371.579935919556,6.962721499999999,-1.4464808749999998,-6.292600416666667,-0.0733038285837618,-0.0404916386462684,0.1137954672300302,2.5566972157126284,9.642362171746461,-0.6063785762851381
1403636591363555584,43.767691,388.4021559534647,7.044443583333333,-1.454653083333333,-6.357978083333332,-0.0970403064108847,-0.0279252680319092,0.1263618378443894,2.1288048338915133,9.315365910807076,-0.32699626093938505
1403636591413555456,49.766779,428.5037171369153,6.913688249999999,-1.5772362083333331,-6.112811833333333,-0.0774926187885482,0.018151424220741,0.143116998663535,1.941326902424468,9.104276068599109,-0.21108984220796678
1403636591463555584,54.45528,468.9460846393648,7.469398416666666,-0.8907707083333333,-6.235394958333333,-0.0342084533390888,0.0195476876223364,0.1319468914507713,3.5622558866516147,6.902415017949891,-2.201861050649218
1403636591513555456,48.606158,363.6558114726716,7.322298666666667,-0.9234595416666666,-6.382494708333334,-0.1494001839707146,0.0984365698124801,0.0970403064108847,1.4702884771793787,6.763616153901155,-0.1387988640487361
1403636591563555584,46.821356,311.4723210588889,7.395848541666666,-0.8580818749999999,-6.3089448333333324,-0.247138622082397,0.2136283004441059,0.1577777643802873,1.3013545593728835,6.646119959431103,-0.11749619447005166
1403636591613555456,60.528993,310.56946360292443,7.256920999999999,-0.9970094166666666,-6.5704555,-0.2275909344600605,0.4118977034706618,0.1347394182539622,1.0995727067454932,6.595023361425014,-0.051096598006089344
1403636591663555584,39.577961,371.237352970358,7.256920999999999,-0.9970094166666666,-6.5704555,-0.2275909344600605,0.4118977034706618,0.1347394182539622,0.7261225704089751,6.6245278905742335,0.02950452914921975
1403636591713555456,60.506582,353.63345023789986,8.115002875,-0.4249548333333333,-6.153672874999999,-0.2268928027592628,0.4523893421169302,0.0767944870877505,0.7037068666848534,6.574957382963011,-0.0495705076112225
1403636591763555584,42.525053,313.1460236561149,8.115002875,-0.4249548333333333,-6.153672874999999,-0.2268928027592628,0.4523893421169302,0.0767944870877505,0.43362888509154973,6.575580193254211,0.0006228102912002598
1403636591813555456,61.172486,309.127409267507,8.18855275,0.04903325,-5.483551791666667,-0.1815142422074102,0.3518583772020568,0.1396263401595463,0.45943974626223744,6.586110962968267,0.01053076971405531
1403636591863555584,36.091089,362.8029241112304,8.18855275,0.04903325,-5.483551791666667,-0.1815142422074102,0.3518583772020568,0.1396263401595463,0.40030146686115115,6.614273392541044,0.02816242957277737
1403636591913555456,50.513267,497.6777204829859,7.657359208333333,-0.44129925,-5.426346333333333,-0.1605702911834783,0.2017600615305445,0.2017600615305445,0.5035338950071312,6.610282523708387,-0.003990868832657313
1403636591963555584,49.760342,518.5077211801575,8.556302125,0.367749375,-4.985047083333333,-0.140324471860344,-0.0244346095279206,0.247138622082397,0.5149310885882589,6.572997697164849,-0.037284826543537264
1403636592013555456,49.945593,390.1762021274815,8.098658458333333,0.2941994999999999,-4.674503166666667,-0.1870992958137921,-0.1445132620651305,0.2052507200345331,0.7563504334387406,6.49830695998207,-0.07469073718277919
1403636592063555584,53.434849,411.1286566140007,8.450063416666666,0.1552719583333333,-4.870636166666666,-0.210835773640915,-0.1179842574348166,0.2834414705238791,0.9158947598400502,6.385281412035042,-0.11302554794702857
1403636592113555456,57.081699,432.52583823069,8.106830666666665,-0.4739880833333333,-5.222041125,-0.1815142422074102,-0.15079644737231,0.2261946710584651,0.9246641904387124,6.169401102693779,-0.21588030934126223
1403636592163555584,38.825751,438.93969916436606,8.106830666666665,-0.4739880833333333,-5.222041125,-0.1815142422074102,-0.15079644737231,0.2261946710584651,1.012841737692122,5.9620625908876494,-0.20733851180612994
1403636592213555456,50.681829,481.9101554643731,8.343824708333333,-0.5720545833333333,-5.516240625,-0.132645023151569,-0.1759291886010284,0.1500983156715123,4.133414254153317,5.83136239249329,-0.13070019839435965
1403636592263555584,49.870253,586.4826961433407,7.992419749999999,-0.93163175,-5.712373625,-0.0551524043630208,-0.1570796326794896,0.114493598930828,1.5915957336289237,5.806600537934911,-0.024761854558378538
1403636592313555456,49.940347,524.2244759242296,7.9433865,-1.1604535833333331,-5.442690750000001,0.0132645023151569,-0.1305506280491758,0.1207767842380075,1.2864965958837642,5.752503902424396,-0.05409663551051569
1403636592363555584,49.610138,451.9098552968455,7.853492208333332,-0.9479761666666666,-5.990228708333333,0.0984365698124801,-0.124965574442794,0.1165879940332212,1.1008637152497245,5.752776070602652,0.0002721681782560381
1403636592413555456,50.153017,352.1137832724033,7.9433865,-1.397447625,-5.720545833333333,0.1877974275145898,-0.0788888821901436,0.0788888821901436,1.1355185319716667,5.592425328442173,-0.16035074216047818
1403636592463555584,49.998522,314.3435507999204,7.722736874999999,-1.5036863333333332,-6.137328458333333,0.2171189589480945,0.018151424220741,-0.028623399732707,1.693410333026644,5.6152311358594265,0.02280580741725302
1403636592513555456,59.738159,247.4758333951023,7.232404375,-1.52003075,-5.990228708333333,0.3204424506661589,0.2087413785385218,-0.1005309649148733,1.74604912362588,5.557647454337301,-0.05758368152212512
1403636592563555584,40.047646,232.8880559242577,7.232404375,-1.52003075,-5.990228708333333,0.3204424506661589,0.2087413785385218,-0.1005309649148733,1.9055848154143917,5.542164086948177,-0.015483367389124147
1403636592613555456,59.966326,242.54819918149215,7.559292708333333,-1.4464808749999998,-6.014745333333333,0.3197443189653611,0.1514945790731078,-0.1731366617978375,2.0144126434191465,5.566116906926015,0.023952819977838047
1403636592663555584,44.421672,287.3150678537343,7.559292708333333,-1.4464808749999998,-6.014745333333333,0.3197443189653611,0.1514945790731078,-0.1731366617978375,2.150611620146593,5.630056493008125,0.06393958608210948
1403636592713555456,45.410395,310.2819641415987,7.117993458333333,-1.3075533333333331,-6.096467416666667,0.3406882699892931,0.0837758040957278,-0.171740398396242,2.3488452502098927,5.4716279637091185,-0.1584285292990062
1403636592763555584,49.968004,280.7809597592738,7.673703624999999,-1.7325081666666666,-6.447872374999999,0.4705407663376713,0.0223402144255274,-0.1500983156715123,2.380118718069594,5.7767453362601096,0.30511737255099103
1403636592813555456,49.744129,249.82038550981733,6.635833166666666,-1.6589582916666663,-6.42335575,0.4935791124639964,-0.0300196631343024,-0.1473057888683213,2.4872030433738104,6.3861605984061525,0.6094152621460429
1403636592863555584,61.14626,208.03481229179707,6.954549291666666,-1.454653083333333,-7.0689602083333325,0.5110324049839398,-0.1193805208364121,-0.1912880860185785,3.5853619548997955,6.033921886587657,-0.35223871181849553
1403636592913555456,38.606167,216.35212888266452,6.954549291666666,-1.454653083333333,-7.0689602083333325,0.5110324049839398,-0.1193805208364121,-0.1912880860185785,3.50980575659366,5.956691595930421,-0.07723029065723619
1403636592963555584,55.092573,205.4157807747295,6.782932916666666,-1.6017528333333333,-6.880999416666667,0.5459389900238263,-0.1158898623324234,-0.1312487597499735,3.627626325064115,6.288088716678912,0.33139712074849115
1403636593013555456,45.029402,185.44077501318392,7.134337875,-1.5608917916666667,-7.142510083333334,0.5703735995517468,-0.1305506280491758,-0.1452113937659282,3.933179667055405,6.555927144500766,0.26783842782185374
1403636593063555584,49.79372,207.5254706307892,7.044443583333333,-0.9479761666666666,-6.962721499999999,0.4600687908257052,-0.0984365698124801,-0.189891822616983,3.953681374427704,7.241059114803801,0.6851319703030354
1403636593113555456,53.860426,188.1184424501612,6.782932916666666,-1.5363751666666667,-7.322298666666667,0.5305800926062761,-0.0767944870877505,-0.1689478715930511,4.268920688657936,7.758054769641326,0.5169956548375252
1403636593163555584,45.978307,208.64721614652103,7.281437625,-0.4821602916666666,-6.848310583333333,0.4461061568097506,-0.0321140582366956,-0.0907571211037051,4.131674648181161,8.537461281409154,0.7794065117678279
1403636593213555456,49.565793,191.2528074071901,7.019926958333333,-0.8662540833333333,-6.897343833333333,0.5124286683855351,-0.0090757121103705,0.0781907504893459,3.690598677968836,9.515153669075556,0.9776923876664014
1403636593263555584,51.104068,221.34038638295527,7.019926958333333,0.0326888333333333,-6.684866416666666,0.4014257279586957,-0.0328121899374933,0.0356047167406843,4.826556395942417,9.913777892211092,0.3986242231355366
1403636593313555456,49.819231,250.67105255146916,7.191543333333333,0.171616375,-6.5704555,0.2918190509334519,-0.0823795406941323,0.057246799465414,3.9884442717204824,9.949091784070587,0.03531389185949507
1403636593363555584,50.295353,301.35237041451325,6.774760708333333,0.1062387083333333,-6.456044583333333,0.1228711793404008,-0.0886627260013119,-0.0195476876223364,3.554303472804045,10.627238070732552,0.6781462866619652
1403636593413555456,49.800158,389.0410181630198,7.273265416666667,0.73549875,-6.439700166666666,0.0642281164733913,-0.0593411945678072,0.0760963553869527,3.261402231484011,11.184195422798528,0.5569573520659752
1403636593463555584,61.267137,449.24622114361216,7.395848541666666,0.4985047083333333,-6.014745333333333,-0.1815142422074102,-0.0411897703470661,0.1577777643802873,2.8066375159411185,11.377257507637399,0.19306208483887133
1403636593513555456,38.478136,441.36200028548006,7.395848541666666,0.4985047083333333,-6.014745333333333,-0.1815142422074102,-0.0411897703470661,0.1577777643802873,2.8014468454171193,11.953967140633281,0.5767096329958825
1403636593563555584,50.281048,440.17644152291547,7.387676333333332,0.3759215833333333,-6.039261958333333,-0.1117010721276371,-0.0614355896702004,0.268082573106329,2.401193911078595,12.034481708955322,0.08051456832204096
1403636593613555456,49.930573,381.9249423371964,7.583809333333333,0.1797885833333333,-6.088295208333333,-0.2359685148696333,-0.1172861257340189,0.3106686068549906,2.185990358569411,11.5479831239572,-0.48649858499812204
1403636593663555584,49.710512,372.14918225892177,7.40402075,0.4249548333333333,-6.3089448333333324,-0.260403124397554,-0.1165879940332212,0.3651228795172137,2.771090853122262,12.415980052557885,0.8679969286006841
1403636593713555456,50.274372,331.1807945939226,7.992419749999999,0.3105439166666667,-6.006573125,-0.411199571769864,-0.1117010721276371,0.4146902302738527,2.7738376618504748,12.876401682902323,0.46042163034443817
1403636593763555584,54.886341,294.5075544702082,7.338643083333332,0.2615106666666666,-6.456044583333333,-0.5019566928735693,-0.0376991118430775,0.4544837372193234,2.6216130478525534,13.018353733582247,0.1419520506799241
1403636593813555456,59.088945,267.6037485784481,7.984247541666667,-0.2860272916666666,-6.137328458333333,-0.6695083010650248,0.1919862177193762,0.5082398781807488,2.7974010325840073,13.079142566129489,0.06078883254724232
1403636593863555584,41.407109,226.46490368544283,7.984247541666667,-0.2860272916666666,-6.137328458333333,-0.6695083010650248,0.1919862177193762,0.5082398781807488,3.042682426466279,13.199321980211053,0.12017941408156396
1403636593913555456,44.565677,205.83554428880373,8.270274833333334,-0.2778550833333333,-5.728718041666665,-0.7037167544041136,0.2750638901143063,0.5445427266222308,3.1971022989064393,13.283770309579054,0.0844483293680014
1403636593963555584,60.720444,191.3511404851589,8.3356525,-0.6701210833333332,-5.083113583333333,-0.7504915783575618,0.2925171826342496,0.468446371235278,3.4336757749196876,13.402924722404974,0.11915441282591921
1403636594013555456,50.81892,176.58772688646587,8.523613291666665,-0.9643205833333331,-5.099458,-0.7225663103256523,0.2122320370425104,0.4279547325890095,3.430740100024458,13.307249463292589,-0.09567525911238484
1403636594063555584,49.10636,185.08447228968907,8.351996916666666,-0.8662540833333333,-4.527403416666666,-0.6590363255530588,0.1361356816555577,0.4796164784480418,3.7743120320971517,13.431633491888768,0.12438402859617881
1403636594113555456,39.304256,196.80202328972592,8.351996916666666,-0.8662540833333333,-4.527403416666666,-0.6590363255530588,0.1361356816555577,0.4796164784480418,3.7143129284742,13.51837734699399,0.08674385510522242
1403636594163555584,55.151701,206.89279059303456,8.38468575,-0.93163175,-4.56009225,-0.578053048260522,0.0390953752446729,0.3916518841475275,3.611767061744151,12.837192334639427,-0.6811850123545629
1403636594213555456,54.970741,205.89404523147311,8.433719,-1.1359369583333332,-4.8216029166666665,-0.4419173666049642,0.0139626340159546,0.2415535684760151,5.9586306107495,11.368077743166744,-1.4691145914726835
1403636594263555584,40.046931,207.7954219296404,8.433719,-1.1359369583333332,-4.8216029166666665,-0.4419173666049642,0.0139626340159546,0.2415535684760151,3.5508983993589682,11.610628958766371,0.24255121559962767
1403636594313555456,56.422949,201.16465698437904,8.556302125,-1.2176590416666666,-4.960530458333333,-0.3630284844148205,0.0376991118430775,0.1354375499547599,3.507555131935327,10.02373931725581,-1.5868896415105613
1403636594363555584,43.691158,197.76315076582503,8.433719,-1.2176590416666666,-5.140319041666666,-0.3406882699892931,0.0747000919853573,0.0977384381116824,3.5402837061382044,9.866638643618025,-0.15710067363778535
1403636594413555456,59.598446,220.10497558295955,8.139519499999999,-1.348414375,-5.532585041666667,-0.1556833692778942,0.2254965393576673,-0.0335103216382911,3.407243377202069,9.105575163976457,-0.7610634796415674
1403636594463555584,44.032335,263.79010061525474,8.139519499999999,-1.348414375,-5.532585041666667,-0.1556833692778942,0.2254965393576673,-0.0335103216382911,3.0948102007386535,7.717554861674014,-1.3880203023024436
1403636594513555456,56.316853,308.21968063956984,7.093476833333334,-2.10842975,-6.071950791666666,0.0390953752446729,0.257610597594363,0.1396263401595463,7.759700639008867,7.936861246231458,0.2193063845574441
1403636594563555584,49.508571,250.39087415308472,7.338643083333332,-2.533384583333333,-6.464216791666666,0.0530580092606276,0.1996656664281513,0.0991347015132779,2.821525465793937,7.7559374688874225,-0.1809237773440353
1403636594613555456,44.365883,249.95608592235095,7.338643083333332,-2.533384583333333,-6.464216791666666,0.0530580092606276,0.1996656664281513,0.0991347015132779,2.410952962948475,7.721726794033278,-0.03421067485414486
1403636594663555584,46.364308,258.5129118832001,6.9300326666666665,-2.7131731666666665,-6.505077833333333,0.1089085453244461,0.1556833692778942,0.1466076571675237,1.9157729097641283,7.701197963394494,-0.02052883063878408
1403636594713555456,49.619674,263.0704045752447,6.979065916666666,-2.941995,-6.398839124999999,0.1584758960810851,0.1089085453244461,-0.007679448708775,2.7711014013297364,7.225156060071115,-0.47604190332337826
1403636594763555584,56.064844,257.88201075481606,6.9300326666666665,-2.8357562916666668,-6.42335575,0.278554548618295,0.0823795406941323,-0.0984365698124801,3.3658145535844257,6.335752863353967,-0.8894031967171481
1403636594813555456,54.547787,248.5218452889172,7.1588545,-2.909306166666666,-6.742071875,0.4447098934081551,0.0942477796076938,-0.2282890661608583,3.680356996626577,5.326741874654741,-1.0090109886992265
1403636594863555584,39.211035,233.95213571531863,7.1588545,-2.909306166666666,-6.742071875,0.4447098934081551,0.0942477796076938,-0.2282890661608583,3.4879525507507267,5.223568296035422,-0.10317357861931864
1403636594913555456,60.126781,230.80763050155133,6.880999416666667,-2.0757409166666667,-6.807449541666666,0.6290166624187563,0.0698131700797731,-0.3895574890451343,4.12599050909096,5.3211914897676005,0.09762319373217831
1403636594963555584,50.426007,216.3205564612128,7.085304625,-1.5608917916666667,-6.954549291666666,0.7819075048934596,0.0439822971502571,-0.2562143341927675,4.387410806583894,5.811851145580792,0.49065965581319126
1403636595013555456,38.958072,201.9848297746271,7.085304625,-1.5608917916666667,-6.954549291666666,0.7819075048934596,0.0439822971502571,-0.2562143341927675,4.6850379649597045,6.696451276102293,0.884600130521501
1403636595063555584,50.434113,183.840707922274,6.962721499999999,-1.1604535833333331,-6.32528925,0.7665486074759096,-0.0530580092606276,-0.3846705671395502,5.694868425103716,6.200693750258423,-0.49575752584387
1403636595113555456,49.934625,181.2862434067848,7.50208725,-0.4821602916666666,-6.5704555,0.7302457590344275,-0.1019272283164688,-0.2820452071222836,5.4424145288526695,6.4201287863092675,0.2194350360508448
1403636595163555584,50.139905,173.6963139232434,7.273265416666667,-0.220649625,-6.684866416666666,0.718377520120866,-0.1165879940332212,-0.2492330171847902,5.229334200989724,6.829402304791109,0.40927351848184124
1403636595213555456,60.733318,173.9687536760396,7.003582541666666,0.8008764166666666,-6.684866416666666,0.6346017160251382,-0.1117010721276371,-0.1591740277818828,4.985368417723063,7.411761886127617,0.5823595813365081
1403636595263555584,39.551735,181.0800057055714,7.003582541666666,0.8008764166666666,-6.684866416666666,0.6346017160251382,-0.1117010721276371,-0.1591740277818828,4.676478343390441,8.00126773861019,0.5895058524825734
1403636595313555456,60.536861,194.3392408582208,7.428537374999999,1.6017528333333333,-6.586799916666666,0.3637266161156182,-0.0740019602845595,-0.104021623418862,4.023962653616783,8.945960939412137,0.9446932008019466
1403636595363555584,42.762995,239.5373666763288,7.428537374999999,1.6017528333333333,-6.586799916666666,0.3637266161156182,-0.0740019602845595,-0.104021623418862,3.4598354030732503,9.568539967573212,0.6225790281610752
1403636595413555456,46.34285,286.7909731330295,7.771770125,1.5363751666666667,-6.627660958333332,0.2981022362406315,-0.0495673507566389,-0.0118682389135614,2.8596629376817257,10.047650781276193,0.4791108137029809
1403636595463555584,50.365448,394.3050133317576,7.518431666666666,1.9449855833333327,-6.292600416666667,0.1424188669627373,-0.0551524043630208,0.0139626340159546,2.245948518420541,10.117058953437795,0.06940817216160156
1403636595513555456,49.885988,458.5612438015516,7.567464916666665,1.5854084166666664,-6.357978083333332,0.1033234917180643,-0.0726056968829641,0.0851720674973232,1.6891393416730918,10.454140537907039,0.3370815844692441
1403636595563555584,50.306559,506.15060809030535,7.837147791666666,1.6344416666666666,-6.219050541666666,0.0495673507566389,-0.0907571211037051,0.0013962634015954,1.393973497216938,10.516827546665848,0.06268700875880917
1403636595613555456,49.680471,496.8529559920143,7.436709583333332,1.454653083333333,-6.047434166666666,-0.0851720674973232,-0.0781907504893459,0.0872664625997164,1.5685126353158714,10.40002815802525,-0.11679938864059736
1403636595663555584,49.998283,436.7459588701947,7.927042083333333,1.103248125,-6.047434166666666,-0.1773254520026238,-0.0565486677646162,0.1096066770252439,2.24702099111657,10.376020286727478,-0.02400787129777271
1403636595713555456,49.290896,327.5545240809941,7.567464916666665,0.9398039583333332,-5.646995958333333,-0.335801348083709,-0.007679448708775,0.179419847105017,2.7193446773619607,10.275676386662413,-0.10034390006506477
1403636595763555584,50.236225,267.8181350992062,7.886181041666666,0.5230213333333333,-5.93302325,-0.4440117617073574,0.007679448708775,0.1242674427419962,3.3562606750509065,10.256700900085573,-0.01897548657684034
1403636595813555456,50.402641,225.7104199513165,7.869836625,0.122583125,-5.524412833333333,-0.6171484235051949,0.0579449311662117,0.249931148885588,3.8544564935286787,10.375169574029016,0.11846867394344329
1403636595863555584,59.607029,235.68365097033623,7.673703624999999,-0.7518431666666666,-5.93302325,-0.6387905062299246,0.0216420827247296,0.374896723328382,3.6785704433547735,9.844539349329674,-0.5306302246993422
1403636595913555456,39.56604,227.231445066522,7.673703624999999,-0.7518431666666666,-5.93302325,-0.6387905062299246,0.0216420827247296,0.374896723328382,3.958077406559114,9.828015178812864,-0.01652417051680999
1403636595963555584,50.777674,236.71069252061363,7.673703624999999,-1.5282029583333332,-6.3743225,-0.5612978874413763,-0.0209439510239319,0.3560471674068432,4.553274273185683,10.696674746777706,0.8686595679648423
1403636596013555456,54.737806,234.9561388662736,7.518431666666666,-1.91229675,-6.333461458333334,-0.611563369898813,-0.0677187749773799,0.3378957431861022,3.57621999665493,10.70475429830327,0.008079551525563389
1403636596063555584,58.709145,247.4881048196164,7.779942333333333,-3.138128,-6.333461458333334,-0.4342379178961891,-0.0600393262686049,0.3637266161156182,3.1856058950715798,10.690509506021051,-0.0142447922822182
1403636596113555456,39.410829,264.3136151163572,7.779942333333333,-3.138128,-6.333461458333334,-0.4342379178961891,-0.0600393262686049,0.3637266161156182,2.4324246406145233,10.541386913996508,-0.14912259202454337
1403636596163555584,57.468892,326.52229260680014,7.608325958333333,-3.587599458333333,-6.668522,-0.1521927107739055,0.0558505360638185,0.2869321290278678,1.8058235099250277,10.55638696623426,0.01500005223775247
1403636596213555456,50.831079,463.3731841895498,8.172208333333334,-2.50069575,-6.513250041666667,-0.0684169066781777,0.0677187749773799,0.2338741197672401,1.1551353762664902,10.652852331907328,0.09646536567306718
1403636596263555584,42.962313,471.0946685202415,8.172208333333334,-2.50069575,-6.513250041666667,-0.0684169066781777,0.0677187749773799,0.2338741197672401,1.3364774462667006,10.548556379077098,-0.10429595283022941
1403636596313555456,57.508945,405.5436329377495,7.706392458333333,-1.5363751666666667,-6.529594458333333,-0.0404916386462684,0.1019272283164688,0.1047197551196597,1.5933525178394434,10.899478395437647,0.3509220163605491
1403636596363555584,49.242497,364.1367602940621,7.583809333333333,-0.83356525,-6.063778583333333,-0.0328121899374933,0.1354375499547599,0.0132645023151569,2.0893518842382304,11.32347767006429,0.42399927462664344
1403636596413555456,42.453766,329.4515319073291,7.583809333333333,-0.83356525,-6.063778583333333,-0.0328121899374933,0.1354375499547599,0.0132645023151569,2.325775928836984,11.771017735595741,0.44754006553145054
1403636596463555584,47.01066,305.1869418319457,7.690048041666667,-0.3759215833333333,-5.238385541666666,0.0349065850398865,0.1480039205691191,0.0013962634015954,2.5640729206899184,12.115297222650172,0.3442794870544308
1403636596513555456,49.942016,312.2548451663173,8.605335375,0.0408610416666666,-5.066769166666667,0.0397935069454707,0.1200786525372098,-0.0691150383789754,2.4956794835769243,12.584976626761302,0.46967940411112963
1403636596563555584,60.211182,357.8007807413276,8.7279185,0.44129925,-4.543747833333333,-0.0167551608191455,0.0041887902047863,0.0195476876223364,2.341917756080457,13.266112423046497,0.6811357962851954
1403636596613555456,50.617933,411.1805374626043,7.886181041666666,0.809048625,-4.184170666666667,0.0195476876223364,-0.0342084533390888,0.0474729556542457,2.1564530645602087,13.638381793466674,0.3722693704201774
1403636596663555584,50.154448,433.40594400670216,9.112012291666666,1.12776475,-3.947176625,0.0272271363311115,-0.0195476876223364,0.0383972435438752,1.8407252540510979,13.925452640441737,0.28707084697506247
1403636596713555456,42.150259,474.99472741523016,9.112012291666666,1.12776475,-3.947176625,0.0272271363311115,-0.0195476876223364,0.0383972435438752,1.4381231608402283,14.173283645772841,0.24783100533110414
1403636596763555584,47.017097,571.9745859444505,8.662540833333333,1.1114203333333332,-3.857282333333333,0.0300196631343024,0.054454272662223,-0.0481710873550434,0.95162879338718,14.342568330720953,0.16928468494811177
1403636596813555456,50.027609,538.2607163673586,9.112012291666666,1.0869037083333333,-3.7673880416666665,0.0062831853071795,0.1521927107739055,0.036302848441482,0.5660320213062521,14.422509371778322,0.07994104105736888
1403636596863555584,49.96562,473.1290245428854,9.07115125,0.8499096666666667,-3.8164212916666655,-0.0321140582366956,0.1528908424747032,-0.0816814089933346,0.5246635522218287,14.447316377114294,0.024807005335972576
1403636596913555456,60.92,434.64041510746256,8.940395916666665,0.5883989999999999,-3.9880376666666666,-0.0698131700797731,-0.0104719755119659,-0.0879645943005142,0.9291254055225139,14.396905749065905,-0.05041062804838958
1403636596963555584,49.068451,477.4977158064791,8.409202375,0.4331270416666666,-4.3721314583333335,-0.0516617458590321,-0.1130973355292325,0.1068141502220529,1.3490561304027129,14.260074158185725,-0.13683159088017938
1403636597013555456,39.782286,429.2161703236553,8.409202375,0.4331270416666666,-4.3721314583333335,-0.0516617458590321,-0.1130973355292325,0.1068141502220529,1.6997280512258301,14.053855484449903,-0.20621867373582248
1403636597063555584,50.292492,422.7918182736843,8.490924458333334,0.5883989999999999,-4.8216029166666665,0.0104719755119659,-0.2247984076568696,-0.0083775804095727,1.9598426585462556,13.771037794812221,-0.2828176896376817
1403636597113555456,49.505234,364.5043300787804,8.523613291666665,0.1062387083333333,-5.311935416666666,0.1473057888683213,-0.208043246837724,0.1110029404268393,2.2587584946551966,13.336873533970111,-0.4341642608421097
1403636597163555584,60.843706,377.57382998715406,8.458235625,-0.1389275416666666,-6.022917541666666,0.21851522234969,-0.0670206432765822,-0.046774823953448,2.549202615642266,13.008908272867977,-0.3279652611021344
1403636597213555456,50.402164,311.6179762079413,7.828975583333331,-0.4494714583333333,-6.145500666666667,0.2687807048071267,0.0202458193231342,-0.1200786525372098,2.8801506604558855,12.509534196831037,-0.49937407603693984
1403636597263555584,49.793005,282.4758184586658,7.9433865,-1.046042666666667,-6.03108975,0.2415535684760151,0.1019272283164688,-0.1179842574348166,5.105743938651552,13.148713874151232,0.639179677320195
1403636597313555456,42.454481,248.9835952465678,7.9433865,-1.046042666666667,-6.03108975,0.2415535684760151,0.1019272283164688,-0.1179842574348166,2.351998239020832,11.714577281760551,-1.434136592390681
1403636597363555584,57.192564,259.2754003847229,7.273265416666667,-0.9152873333333332,-6.42335575,0.2624975194999471,0.0998328332140756,-0.1731366617978375,2.2928515018674065,11.248243157277006,-0.46633412448354505
1403636597413555456,39.315939,274.5622899489189,7.273265416666667,-0.9152873333333332,-6.42335575,0.2624975194999471,0.0998328332140756,-0.1731366617978375,3.9036722731948066,10.440110700377964,-0.8081324568990418
1403636597463555584,63.430786,311.2762957848404,6.407011333333333,-1.6099250416666664,-7.003582541666666,0.3588396942100341,0.1172861257340189,-0.1494001839707146,2.8922458966083786,9.916117551069119,-0.5239931493088452
1403636597513555456,36.47089,318.95962145637526,6.407011333333333,-1.6099250416666664,-7.003582541666666,0.3588396942100341,0.1172861257340189,-0.1494001839707146,2.511170309102547,9.32833791850269,-0.5877796325664288
1403636597563555584,50.146103,356.7365727990724,6.537766666666666,-1.0950759166666666,-7.363159708333333,0.4146902302738527,0.143116998663535,-0.1459095254667259,2.0766292091039844,8.9704689533255,-0.3578689651771896
1403636597613555456,50.012589,362.54417413465467,6.153672874999999,-1.52003075,-7.50208725,0.5012585611727715,0.1968731396249603,-0.0237364778271228,1.707969503430683,8.759411667081544,-0.2110572862439568
1403636597663555584,50.001859,356.7610706554339,6.341633666666666,-1.3075533333333331,-7.5511205,0.4642575810304917,0.2010619298297467,-0.0474729556542457,1.54914836167171,8.656830093090967,-0.10258157399057666
1403636597713555456,49.864293,321.1797823962904,6.513250041666667,-1.0950759166666666,-7.493915041666666,0.4328416544945937,0.2031563249321399,-0.0404916386462684,1.4524644252651013,8.617199862099367,-0.0396302309915999
1403636597763555584,53.77531,311.8357688781007,6.774760708333333,-0.7600153749999999,-7.436709583333332,0.3246312408709453,0.1884955592153876,-0.0565486677646162,1.6623981585394199,8.672118974486018,0.05491911238665104
1403636597813555456,46.345234,319.8103963731833,6.7502440833333335,-0.3105439166666667,-7.183371125,0.2597049926967562,0.179419847105017,-0.0397935069454707,1.7975474656023984,8.792639201705544,0.12052022721952582
1403636597863555584,60.730457,345.7785576715561,7.10982125,0.0326888333333333,-6.586799916666666,0.1500983156715123,0.0537561409614253,-0.1068141502220529,1.8623590223375546,8.958674479962134,0.16603527825659015
1403636597913555456,50.288439,367.748118012678,7.461226208333334,0.2288218333333333,-6.357978083333332,0.0488692190558412,-0.0188495559215387,-0.1026253600172665,1.947281657068952,9.171138544384256,0.21246406442212162
1403636597963555584,50.040007,370.0774046907224,7.591981541666666,0.122583125,-5.875817791666666,0.0712094334813686,-0.0998328332140756,-0.0397935069454707,1.999501502757008,9.384635673450282,0.2134971290660257
1403636598013555456,38.882971,333.57075809697307,7.591981541666666,0.122583125,-5.875817791666666,0.0712094334813686,-0.0998328332140756,-0.0397935069454707,2.070612222242088,9.618437188779282,0.2338015153290005
1403636598063555584,50.073385,317.717259621314,7.444881791666666,0.3595771666666666,-5.712373625,-0.0132645023151569,-0.1452113937659282,0.0907571211037051,2.1538519618046568,9.863744905936516,0.24530771715723354
1403636598113555456,49.85547,270.30458114010776,7.878008833333333,0.4739880833333333,-5.4998962083333325,0.0342084533390888,-0.2436479635784084,0.0900589894029074,2.1957752197394704,10.081016890326547,0.21727198439003104
1403636598163555584,60.699225,243.133500903588,8.106830666666665,0.4004382083333333,-4.837947333333333,-0.0740019602845595,-0.374896723328382,0.1082104136236484,2.169239267442713,10.254872989972664,0.1738560996461178
1403636598213555456,50.31085,221.2567847717894,8.164036124999999,0.6292600416666666,-4.543747833333333,-0.1291543646475804,-0.3609340893124273,0.0202458193231342,2.2264652478004066,10.458213526086949,0.20334053611428438
1403636598263555584,39.03532,226.6635407961228,8.164036124999999,0.6292600416666666,-4.543747833333333,-0.1291543646475804,-0.3609340893124273,0.0202458193231342,2.170201102477282,10.619586515687391,0.16137298960044255
1403636598313555456,71.746111,274.6141319439225,8.5317855,0.4331270416666666,-4.478370166666666,-0.1961750079241626,-0.1368338133563554,0.0272271363311115,1.9132636504745517,10.74309131957509,0.12350480388769824
1403636598363555584,42.971373,367.3427858071734,8.817812791666666,0.5066769166666666,-4.682675375,-0.1668534764906579,-0.0397935069454707,0.0921533845053006,1.6447860871278048,10.751025486970022,0.007934167394932246
1403636598413555456,46.146154,454.01542977957007,8.768779541666666,0.465815875,-4.600953291666666,-0.0893608577021096,0.0488692190558412,0.0244346095279206,1.4013102827754667,10.797808533960417,0.04678304699039515
1403636598463555584,49.500943,522.590927490116,9.210078791666666,0.122583125,-5.066769166666667,0.0020943951023931,0.1675516081914556,0.0558505360638185,1.1390472919643013,10.780680978303382,-0.017127555657035387
1403636598513555456,43.201446,556.5070761802992,9.210078791666666,0.122583125,-5.066769166666667,0.0020943951023931,0.1675516081914556,0.0558505360638185,0.962109530411853,10.710401662535888,-0.07027931576749324
1403636598563555584,46.839714,393.3212741098768,8.311135875,0.2369940416666666,-4.927841624999999,0.0956440430092892,0.2701769682087222,0.0321140582366956,0.9821292746939078,10.57851614409021,-0.13188551844567797
1403636598613555456,49.716473,325.1334613919664,8.5317855,-0.0653776666666666,-5.352796458333333,0.1389282084587486,0.325329372571743,0.0453785605518525,1.0978678079710593,10.413312965002982,-0.1652031790872286
1403636598663555584,53.675651,286.94591473454074,7.714564666666666,0.0898942916666666,-5.107630208333333,0.1731366617978375,0.3707079331235955,0.0272271363311115,1.1581420140085215,10.222479195799576,-0.19083376920340633
1403636598713555456,46.278715,285.7327042843932,7.649186999999999,-0.4985047083333333,-5.426346333333333,0.2687807048071267,0.4202752838802345,0.0684169066781777,1.1194533704061558,9.994287144936429,-0.22819205086314653
1403636598763555584,60.556651,270.2424648447125,7.60015375,-0.2043052083333333,-5.483551791666667,0.2247984076568696,0.4879940588576146,0.0886627260013119,1.0340984930504484,9.778282000796716,-0.2160051441397126
1403636598813555456,49.752712,293.2348199552151,7.461226208333334,-0.44129925,-5.271074375,0.104021623418862,0.5249950389998943,0.1151917306316257,0.9762593277173931,9.569111313373732,-0.2091706874229846
1403636598863555584,39.525032,284.0942667915771,7.461226208333334,-0.44129925,-5.271074375,0.104021623418862,0.5249950389998943,0.1151917306316257,0.9508452039459384,9.350990821062766,-0.21812049231096609
1403636598913555456,50.242185,343.32529097151485,8.123175083333333,-0.1797885833333333,-5.238385541666666,0.0425860337486616,0.4293509959906051,0.0816814089933346,1.102204486979024,9.198258417685173,-0.15273240337759297
1403636598963555584,49.975157,365.4356777120744,8.025108583333333,-0.93163175,-5.4998962083333325,-0.0328121899374933,0.3804817769347638,0.0530580092606276,1.6169947894211347,9.404408861350849,0.2061504436656758
1403636599013555456,49.774647,419.1328639879253,9.185562166666664,-0.5066769166666666,-5.303763208333334,0.0265290046303138,0.3050835532486088,-0.0411897703470661,0.9147426208613791,9.251521890421094,-0.1528869709297549
1403636599063555584,50.306559,354.923517676728,8.956740333333332,-0.8253930416666666,-5.516240625,0.1319468914507713,0.403520123061089,0.2380629099720265,0.8236890819734521,8.751171178453498,-0.5003507119675952
1403636599113555456,53.071499,303.76073126987905,9.504278291666663,-0.5883989999999999,-5.009563708333333,0.1514945790731078,0.4593706591249075,0.0998328332140756,0.6449330003248978,8.628167145799006,-0.12300403265449233
1403636599163555584,46.813249,233.82334217075947,9.447072833333332,-0.269682875,-4.519231208333333,0.1382300767579508,0.5696754678509492,0.1033234917180643,0.5071288159805704,8.551337243667916,-0.07682990213108987
1403636599213555456,49.870253,200.04458639620464,9.340834125,-0.6292600416666666,-3.87362675,-0.0390953752446729,0.6897541203881591,0.046774823953448,0.4094581445387006,8.512138550933523,-0.03919869273439325
1403636599263555584,61.008215,226.9869227081494,9.177389958333332,-0.4576436666666666,-3.342433208333333,-0.0293215314335047,0.5326744877086693,0.1375319450571531,0.3350980751754457,8.453375206766832,-0.0587633441666906
1403636599313555456,38.008928,264.82422136980534,9.177389958333332,-0.4576436666666666,-3.342433208333333,-0.0293215314335047,0.5326744877086693,0.1375319450571531,0.3284704849426245,8.390421903107232,-0.06295330365960083
1403636599363555584,50.90332,432.70267836642535,9.005773583333333,-0.44129925,-3.211677875,-0.0851720674973232,0.3469714552964727,0.046774823953448,0.3694896308569427,8.345322438222436,-0.04509946488479599
1403636599413555456,60.609818,519.5070992632527,9.471589458333332,-0.5557101666666666,-3.18716125,-0.1836086373098034,0.0551524043630208,0.028623399732707,0.43471178219848206,8.302382417256005,-0.042940020966430126
1403636599463555584,49.751758,480.24034016924,9.349006333333334,-0.122583125,-3.2035056666666666,-0.1877974275145898,-0.0740019602845595,0.171740398396242,0.4854320653383941,8.259295796657616,-0.0430866205983893
1403636599513555456,39.056301,403.78639350903,9.349006333333334,-0.122583125,-3.2035056666666666,-0.1877974275145898,-0.0740019602845595,0.171740398396242,0.4523975782724007,8.21988901949941,-0.03940677715820584
1403636599563555584,60.958386,412.8304202680509,9.381695166666669,-0.1552719583333333,-3.18716125,-0.0865683308989187,-0.1137954672300302,0.1200786525372098,0.44691700142101554,8.196490440433038,-0.023398579066371994
1403636599613555456,39.252996,412.30244176279496,9.381695166666669,-0.1552719583333333,-3.18716125,-0.0865683308989187,-0.1137954672300302,0.1200786525372098,0.505471269332137,8.173167580028649,-0.0233228604043898
1403636599663555584,50.443888,441.8025319535437,9.1201845,-0.4821602916666666,-3.603943875,-0.0802851455917391,-0.0607374579694026,0.0677187749773799,0.5082795007650925,8.153690459327589,-0.019477120701060002
1403636599713555456,49.966097,213.9336787982045,16.589582916666664,0.2778550833333333,-6.464216791666666,0.0223402144255274,0.2303834612632515,0.2590068609959585,0.6000285443093248,8.204004913530932,0.05031445420334357
1403636599763555584,49.657583,283.84883685945744,10.370532375,-1.250347875,-2.631451083333333,0.0307177948351002,0.4705407663376713,0.0439822971502571,0.14491296349837604,8.206015529505372,0.0020106159744397445
1403636599813555456,50.443649,286.8470716265856,9.675894666666666,-0.5148491249999999,-2.476179125,-0.028623399732707,0.3623303527140228,0.0802851455917391,0.12000918329972761,8.208725340135716,0.002709810630344478
1403636599863555584,59.617043,480.7781277774819,9.863855458333331,-0.6456044583333332,-1.871435708333333,-0.018151424220741,0.0747000919853573,0.1549852375770964,0.10932989229218637,8.221414577567105,0.012689237431388278
1403636599913555456,40.411234,554.3803558847799,9.863855458333331,-0.6456044583333332,-1.871435708333333,-0.018151424220741,0.0747000919853573,0.1549852375770964,0.11874167520548737,8.231238780668008,0.009824203100903262
1403636599963555584,49.958706,542.9173089357307,9.210078791666666,-0.392266,-2.574245625,-0.0509636141582344,-0.0712094334813686,0.1305506280491758,0.09457036969015994,8.22788843536256,-0.003350345305447533
1403636600013555456,50.06051,599.7734979585748,8.703401874999999,-0.0572054583333333,-2.705000958333333,-0.0104719755119659,-0.0160570291183478,0.1263618378443894,0.10108815171684228,8.239865911168756,0.011977475806196125
1403636600063555584,50.058365,573.3407488680882,9.210078791666666,-0.4086104166666666,-2.459834708333333,0.0460766922526503,0.0614355896702004,0.2115339053417127,0.20094019341884498,8.228641534578012,-0.011224376590744711
1403636600113555456,47.590733,605.2497718337867,6.733899666666666,-0.2124774166666666,-1.4056198333333334,0.0272271363311115,0.1312487597499735,0.2673844414055313,0.11460061638831762,8.226232915525273,-0.002408619052738814
1403636600163555584,50.414562,626.3275233840001,8.687057458333333,-1.4709975,-2.0021910416666664,-0.0160570291183478,0.0991347015132779,0.0802851455917391,0.07664645177100143,8.238463415025128,0.01223049949985544
1403636600213555456,50.014496,639.3751915448433,9.087495666666666,-0.3350605416666666,-2.459834708333333,0.0349065850398865,0.0565486677646162,0.1494001839707146,0.03685925720743884,8.253589288555975,0.015125873530847045
1403636600263555584,49.40033,643.0924187081391,9.65955025,-0.5066769166666666,-2.819411875,0.0146607657167523,0.0223402144255274,0.0907571211037051,0.021190381298389436,8.270706029295404,0.017116740739428593
1403636600313555456,50.449848,640.5432707296096,9.398039583333333,-0.4903325,-2.459834708333333,0.0013962634015954,0.0132645023151569,0.0907571211037051,0.02823206139449801,8.283812465221102,0.013106435925697824
1403636600363555584,62.081814,635.5850970206319,9.46341725,-0.269682875,-2.6477955,0.0048869219055841,0.0174532925199432,0.0809832772925368,0.005292378804954449,8.287463602018251,0.0036511367971492348
1403636600413555456,37.840128,644.4471793582645,9.46341725,-0.269682875,-2.6477955,0.0048869219055841,0.0174532925199432,0.0809832772925368,0.00704541508715126,8.292144089943005,0.004680487924753507
1403636600463555584,49.636125,645.0360555190776,9.545139333333331,-0.1470997499999999,-2.5415567916666664,0.018151424220741,0.0111701072127637,0.1096066770252439,0.007289487046317788,8.285812341256165,-0.006331748686839944
1403636600513555456,62.753916,639.4736627119592,9.937405333333334,-0.3840937916666667,-2.8357562916666668,-0.0167551608191455,0.025830872929516,0.0474729556542457,0.024042167630967556,8.278933800967714,-0.006878540288450807
1403636600563555584,36.89003,635.7092298658218,9.937405333333334,-0.3840937916666667,-2.8357562916666668,-0.0167551608191455,0.025830872929516,0.0474729556542457,0.007174664844596327,8.276522849448053,-0.0024109515196606424
1403636600613555456,51.766634,637.9074354469567,9.814822208333332,-0.5720545833333333,-2.852100708333333,0.0279252680319092,0.028623399732707,0.122173047639603,0.01124624152695964,8.278187864899596,0.0016650154515431836
1403636600663555584,58.201551,637.4237542361425,9.144701125,-0.171616375,-2.40262925,-0.0083775804095727,0.0104719755119659,0.046774823953448,0.011754054338318689,8.270975328903972,-0.007212535995623881
1403636600713555456,39.357424,640.9540628884121,9.528794916666666,-0.6701210833333332,-2.639623291666666,0.0195476876223364,0.0,0.1186823891356144,0.0012177977662846864,8.271080911419764,0.00010558251579162459
1403636600763555584,49.825907,640.0238588416693,9.7085835,-0.1470997499999999,-2.7131731666666665,-0.0013962634015954,0.0328121899374933,0.0684169066781777,0.006808852403071836,8.269573474141694,-0.0015074372780699008
1403636600813555456,50.802469,646.1945871433257,9.177389958333332,-0.7028099166666667,-2.508867958333333,0.0027925268031909,0.0195476876223364,0.0851720674973232,0.012072208222287797,8.265499209344696,-0.004074264796997795
1403636600863555584,50.263882,642.9933418653533,9.398039583333333,-0.2778550833333333,-2.4680069166666665,-0.0069813170079773,0.0132645023151569,0.0684169066781777,0.00815463847147943,8.269334436764787,0.003835227420090348
1403636600913555456,49.619913,646.4423952470124,9.389867375,-0.7109821249999999,-2.6886565416666666,-0.0020943951023931,0.0244346095279206,0.0872664625997164,0.0095136408124447,8.268656429761172,-0.0006780070036143115
1403636600963555584,61.562538,644.1762213389577,9.406211791666664,-0.7927042083333332,-2.5660734166666663,-0.0034906585039886,0.0125663706143591,0.0677187749773799,0.008006362065108928,8.269368731515552,0.0007123017543797516
1403636601013555456,46.193361,647.1653261697677,9.406211791666664,-0.7927042083333332,-2.5660734166666663,-0.0034906585039886,0.0125663706143591,0.0677187749773799,0.011172043937847164,8.265702733567629,-0.0036659979479232163
1403636601063555584,42.207957,645.6689253695521,9.455245041666666,-0.3840937916666667,-2.6151066666666667,-0.0034906585039886,0.0188495559215387,0.0879645943005142,0.01638744404742794,8.269215850522869,0.0035131169552400365
1403636601113555456,50.299406,647.3219609081799,9.389867375,-0.661948875,-2.6151066666666667,-0.0090757121103705,0.0202458193231342,0.0684169066781777,0.011539309347752465,8.26518811489825,-0.004027735624619666
1403636601163555584,50.006151,644.7754352680599,9.406211791666664,-0.3595771666666666,-2.6151066666666667,-0.0006981317007977,0.0244346095279206,0.0914552528045028,0.010850872035718957,8.26850281008979,0.0033146951915412615
1403636601213555456,57.218075,648.1278188374439,9.357178541666666,-0.6456044583333332,-2.525212375,-0.007679448708775,0.0216420827247296,0.0663225115757845,0.0045136564230425814,8.269344017745976,0.0008412076561850057
1403636601263555584,53.921461,647.1112577408137,9.324489708333331,-0.5802267916666666,-2.525212375,-0.0090757121103705,0.0216420827247296,0.0628318530717958,0.013873760191359316,8.26981743306849,0.0004734153225136595
1403636601313555456,39.286136,647.8730740336337,9.324489708333331,-0.5802267916666666,-2.525212375,-0.0090757121103705,0.0216420827247296,0.0628318530717958,0.005783260531214442,8.265453876052224,-0.004363557016265673
1403636601363555584,50.305844,646.053478360667,9.536967125,-0.5230213333333333,-2.606934458333333,0.0,0.0216420827247296,0.1033234917180643,0.01060099447448381,8.259614403619379,-0.005839472432844772
1403636601413555456,60.129642,646.415717462068,9.308145291666667,-0.5557101666666666,-2.549729,-0.0069813170079773,0.0251327412287183,0.0621337213709981,0.011204770704224149,8.258266942992341,-0.001347460627037833
1403636601463555584,39.1891,646.1873849659072,9.438900625,-0.44129925,-2.549729,0.0006981317007977,0.0209439510239319,0.0956440430092892,0.011121138347214258,8.255667090928249,-0.0025998520640921896
1403636601513555456,50.279618,644.9033335587652,9.553311541666666,-0.5720545833333333,-2.680484333333333,-0.0062831853071795,0.0223402144255274,0.0684169066781777,0.00642097028421918,8.249353940148861,-0.006313150779387655
1403636601563555584,60.543298,645.6622667112283,9.357178541666666,-0.5311935416666667,-2.508867958333333,0.0048869219055841,0.0230383461263251,0.1005309649148733,0.014959468965510932,8.244326656615586,-0.005027283533275195
1403636601613555456,39.236308,646.7195873485492,9.299973083333333,-0.416782625,-2.476179125,-0.0069813170079773,0.0167551608191455,0.0663225115757845,0.006651184085211877,8.240659977892747,-0.0036666787228387676
1403636601663555584,58.534383,645.1666465044343,9.414383999999998,-0.563882375,-2.705000958333333,-0.0020943951023931,0.0342084533390888,0.0893608577021096,0.00786145117634881,8.23546192193561,-0.005198055957137626
1403636601713555456,41.567803,644.3012121051456,9.332661916666666,-0.4739880833333333,-2.459834708333333,-0.0006981317007977,0.0237364778271228,0.0760963553869527,0.005709670070638759,8.236343960357415,0.0008820384218051203
1403636601763555584,50.30179,645.2917818103821,9.373522958333332,-0.6047434166666666,-2.680484333333333,-0.0027925268031909,0.0216420827247296,0.0809832772925368,0.0021871809762597128,8.241373402207872,0.0050294418504570615
1403636601813555456,49.595356,646.0217292920263,9.471589458333332,-0.4576436666666666,-2.4843513333333336,-0.0020943951023931,0.0244346095279206,0.08307767239493,0.012688965192125104,8.246499563965424,0.0051261617575519836
1403636601863555584,50.023317,646.8871149051884,9.438900625,-0.5475379583333333,-2.655967708333333,-0.0041887902047863,0.0209439510239319,0.0781907504893459,0.005444906771929801,8.2473796120965,0.0008800481310764496
1403636601913555456,57.887316,646.2981760603934,9.438900625,-0.4576436666666666,-2.533384583333333,-0.0062831853071795,0.0174532925199432,0.0788888821901436,0.008336061060784177,8.24198833808375,-0.005391274012749747
1403636601963555584,41.847468,645.1818637512998,9.430728416666666,-0.5720545833333333,-2.6477955,0.0006981317007977,0.0153588974175501,0.0795870138909414,0.001095002783666805,8.243373728993548,0.0013853909097978345
1403636602013555456,60.51898,644.6045463316485,9.357178541666666,-0.5720545833333333,-2.435318083333333,-0.0041887902047863,0.0146607657167523,0.0795870138909414,0.009177786091647558,8.239329784503198,-0.004043944490350171
1403636602063555584,46.687126,645.2931439143515,9.357178541666666,-0.5720545833333333,-2.435318083333333,-0.0041887902047863,0.0146607657167523,0.0795870138909414,0.007181598290166757,8.238022466019936,-0.0013073184832617102
1403636602113555456,42.627573,646.1450543024697,9.414383999999998,-0.3840937916666667,-2.6151066666666667,-0.0055850536063818,0.0202458193231342,0.0802851455917391,0.005688649833993585,8.235628756378443,-0.0023937096414936576
1403636602163555584,60.985803,645.3015810670166,9.357178541666666,-0.5965712083333333,-2.533384583333333,-0.0006981317007977,0.0230383461263251,0.0914552528045028,0.0077945416328808245,8.228859146450983,-0.006769609927459896
1403636602213555456,46.486378,645.9392573970566,9.308145291666667,-0.4004382083333333,-2.655967708333333,-0.0013962634015954,0.0230383461263251,0.0823795406941323,0.007659316235664444,8.224233158931675,-0.004625987519307984
1403636602263555584,42.367697,645.1407008088432,9.46341725,-0.6782932916666666,-2.50069575,-0.0034906585039886,0.0167551608191455,0.0670206432765822,0.011604752096657497,8.217196966980964,-0.007036191950710702
1403636602313555456,50.233125,645.9817989065505,9.389867375,-0.5066769166666666,-2.623278875,0.0,0.0153588974175501,0.0942477796076938,0.004252693626600186,8.218965176037104,0.0017682090561397246
1403636602363555584,49.657107,646.1289143504133,9.430728416666666,-0.5557101666666666,-2.50069575,-0.0090757121103705,0.0223402144255274,0.0698131700797731,0.006862243571578047,8.223345126170795,0.0043799501336909685
1403636602413555456,50.024986,646.5180372964007,9.414383999999998,-0.4821602916666666,-2.631451083333333,0.0006981317007977,0.0160570291183478,0.0914552528045028,0.007424730269255091,8.227347682860282,0.0040025566894872355
1403636602463555584,60.103178,645.7016210500865,9.406211791666664,-0.53936575,-2.582417833333333,-0.0034906585039886,0.0160570291183478,0.08307767239493,0.0032568033479692614,8.229608439597115,0.002260756736832903
1403636602513555456,40.019989,647.2818103688318,9.406211791666664,-0.53936575,-2.582417833333333,-0.0034906585039886,0.0160570291183478,0.08307767239493,0.0071457926657635205,8.232637015204219,0.0030285756071037895
1403636602563555584,50.145388,646.4357787536327,9.373522958333332,-0.5311935416666667,-2.5170401666666664,-0.0020943951023931,0.0223402144255274,0.0809832772925368,0.0042257034743846894,8.23341184636946,0.000774831165241352
1403636602613555456,60.03356,647.1498015115906,9.430728416666666,-0.5311935416666667,-2.574245625,-0.0062831853071795,0.0216420827247296,0.0795870138909414,0.005164499063946293,8.2334402821787,2.8435809239724108e-05
1403636602663555584,39.648056,646.6222898084345,9.430728416666666,-0.5311935416666667,-2.574245625,-0.0062831853071795,0.0216420827247296,0.0795870138909414,0.004011473648416943,8.233639775073069,0.00019949289436915763
1403636602713555456,50.343275,647.1956330408775,9.479761666666668,-0.5557101666666666,-2.606934458333333,0.0,0.0195476876223364,0.0886627260013119,0.0019622153385535027,8.233582821307687,-5.695376538206176e-05
1403636602763555584,49.574852,646.6404065359543,9.406211791666664,-0.4739880833333333,-2.606934458333333,-0.0118682389135614,0.0153588974175501,0.075398223686155,0.006331239456717107,8.23210490405517,-0.0014779172525170026
1403636602813555456,49.985885,646.9083665534233,9.422556208333331,-0.5230213333333333,-2.50069575,0.0,0.018151424220741,0.0802851455917391,0.008861136686143519,8.232978356393714,0.0008734523385438564
1403636602863555584,50.236464,647.5051093574333,9.414383999999998,-0.4494714583333333,-2.582417833333333,-0.0041887902047863,0.0195476876223364,0.0767944870877505,0.0073201223313452655,8.235168076527035,0.0021897201333214156
1403636602913555456,61.421394,646.8840862310129,9.414383999999998,-0.4903325,-2.549729,-0.0027925268031909,0.0230383461263251,0.075398223686155,0.009674363308467127,8.235834460049727,0.0006663835226916603
1403636602963555584,48.9254,646.8840603418648,9.438900625,-0.6047434166666666,-2.549729,-0.0048869219055841,0.0202458193231342,0.0816814089933346,0.007071017614245931,8.234831805925335,-0.0010026541243917109
1403636603013555456,47.16897,647.3584654840021,9.438900625,-0.6047434166666666,-2.549729,-0.0048869219055841,0.0202458193231342,0.0816814089933346,0.002457441775671739,8.23225157256318,-0.002580233362154516
1403636603063555584,42.748213,648.0829519471115,9.430728416666666,-0.4331270416666666,-2.631451083333333,-0.0013962634015954,0.0216420827247296,0.0781907504893459,0.010241455794174875,8.23109949530352,-0.001152077259661155
1403636603113555456,49.880505,646.7008756337268,9.373522958333332,-0.5475379583333333,-2.574245625,-0.0062831853071795,0.0216420827247296,0.0760963553869527,0.006168205217747853,8.229016447131594,-0.0020830481719258387
1403636603163555584,57.489395,646.3193832116937,9.389867375,-0.5066769166666666,-2.5905900416666663,-0.0034906585039886,0.0125663706143591,0.0823795406941323,0.010229530661753635,8.231441101398639,0.002424654267045412
1403636603213555456,42.14406,647.7034156247786,9.414383999999998,-0.563882375,-2.525212375,-0.0027925268031909,0.0195476876223364,0.0816814089933346,0.005253238523106814,8.234160425870531,0.0027193244718919374
1403636603263555584,57.75404,647.4674920610934,9.422556208333331,-0.5230213333333333,-2.606934458333333,-0.0013962634015954,0.0223402144255274,0.08307767239493,0.0016302351910854876,8.235546622774043,0.0013861969035122712
1403636603313555456,42.405605,647.412846515188,9.381695166666669,-0.5475379583333333,-2.549729,-0.0069813170079773,0.0223402144255274,0.0781907504893459,0.004375891786238734,8.233172663127373,-0.0023739596466700874
1403636603363555584,50.433636,646.360193502874,9.496106083333332,-0.5230213333333333,-2.582417833333333,-0.0041887902047863,0.0251327412287183,0.0837758040957278,0.004876840457333286,8.229062635382077,-0.004110027745296563
1403636603413555456,56.91123,647.4191263357551,9.414383999999998,-0.5720545833333333,-2.59876225,-0.0041887902047863,0.0202458193231342,0.0733038285837618,0.00864712671375325,8.220975501976103,-0.008087133405974
1403636603463555584,50.207376,647.901343285395,9.479761666666668,-0.5148491249999999,-2.639623291666666,-0.0041887902047863,0.0209439510239319,0.0809832772925368,0.002998058660902851,8.21834914722922,-0.002626354746881887
1403636603513555456,42.442084,648.3431887700569,9.430728416666666,-0.4985047083333333,-2.5660734166666663,-0.0048869219055841,0.0195476876223364,0.0795870138909414,0.0058836612685810715,8.215842854011518,-0.002506293217702904
1403636603563555584,49.850225,647.8443036009248,9.430728416666666,-0.5311935416666667,-2.606934458333333,-0.0006981317007977,0.0188495559215387,0.08307767239493,0.005699340297276445,8.213792361169174,-0.0020504928423434876
1403636603613555456,57.628632,648.3576150061787,9.455245041666666,-0.5148491249999999,-2.606934458333333,-0.0013962634015954,0.0202458193231342,0.0767944870877505,0.005213688498034382,8.215188532998397,0.001396171829222581
1403636603663555584,42.773008,648.5740043222692,9.357178541666666,-0.563882375,-2.582417833333333,-0.0027925268031909,0.0202458193231342,0.0816814089933346,0.004016140863951478,8.216037103341417,0.0008485703430203273
1403636603713555456,57.231426,648.3018455992047,9.479761666666668,-0.5475379583333333,-2.5905900416666663,-0.0027925268031909,0.0195476876223364,0.075398223686155,0.0030901888483586665,8.217311257346871,0.0012741540054541645
1403636603763555584,42.372942,647.1069555674808,9.242767625,-0.5883989999999999,-2.4434902916666665,-0.0020943951023931,0.0153588974175501,0.0823795406941323,0.0035185477670390502,8.217478388815472,0.00016713146860070083
1403636603813555456,49.684525,646.5047895026372,9.381695166666669,-0.563882375,-2.574245625,-0.0027925268031909,0.0062831853071795,0.0760963553869527,0.008101581318342203,8.221283795593884,0.0038054067784116796
1403636603863555584,50.714492,646.915242894617,9.414383999999998,-0.5883989999999999,-2.623278875,-0.0055850536063818,0.0272271363311115,0.0802851455917391,0.0033005203692535517,8.22553101120252,0.004247215608636168
1403636603913555456,57.51896,647.8217553874799,9.487933875,-0.4004382083333333,-2.4516625,-0.0013962634015954,0.0118682389135614,0.0851720674973232,0.006161125667317224,8.225384889400805,-0.00014612180171447164
1403636603963555584,42.278289,646.0147232555237,9.357178541666666,-0.6047434166666666,-2.7213453750000003,-0.0013962634015954,0.0139626340159546,0.0740019602845595,0.005285496890871475,8.225250923758189,-0.0001339656426164737
1403636604013555456,49.980164,647.1636109646097,9.479761666666668,-0.4331270416666666,-2.4925235416666665,-0.0020943951023931,0.0272271363311115,0.0816814089933346,0.007337078316101184,8.226924358170375,0.0016734344121864808
1403636604063555584,50.147772,644.8140258628731,9.259112041666668,-0.5475379583333333,-2.557901208333333,-0.0041887902047863,0.0132645023151569,0.0767944870877505,0.0025552678685798968,8.227567796485227,0.0006434383148512524
1403636604113555456,59.194803,645.6421814164398,9.496106083333332,-0.5475379583333333,-2.557901208333333,-0.0041887902047863,0.0209439510239319,0.0670206432765822,0.004956960829144504,8.229451613610038,0.0018838171248116709
1403636604163555584,47.910452,644.531764043291,9.496106083333332,-0.5475379583333333,-2.557901208333333,-0.0041887902047863,0.0209439510239319,0.0670206432765822,0.0037151954906823018,8.229394992729654,-5.662088038427271e-05
1403636604213555456,49.839973,645.6840221202675,9.438900625,-0.5066769166666666,-2.582417833333333,-0.0006981317007977,0.0188495559215387,0.0900589894029074,0.003352921329669528,8.22904768991759,-0.0003473028120648536
1403636604263555584,42.968273,644.9224437639061,9.340834125,-0.4576436666666666,-2.574245625,-0.0055850536063818,0.0188495559215387,0.0705113017805709,0.0019400673430569676,8.228402847773657,-0.0006448421439326779
1403636604313555456,56.37312,645.978029556347,9.389867375,-0.53936575,-2.606934458333333,-0.0034906585039886,0.0188495559215387,0.085870199198121,0.0041636564076607705,8.228097295481636,-0.0003055522920210052
1403636604363555584,43.461323,645.2598010343859,9.389867375,-0.5230213333333333,-2.533384583333333,-0.0090757121103705,0.0223402144255274,0.0733038285837618,0.002668252006248637,8.226924557500354,-0.0011727379812818128
1403636604413555456,49.451351,645.6055902098688,9.422556208333331,-0.53936575,-2.582417833333333,0.0013962634015954,0.0167551608191455,0.085870199198121,0.003730298771880972,8.226684872351731,-0.00023968514862282575
1403636604463555584,57.684898,644.5654520789998,9.373522958333332,-0.563882375,-2.525212375,-0.0048869219055841,0.0209439510239319,0.0795870138909414,0.0032095722865381976,8.226729834837055,4.49624853242625e-05
1403636604513555456,49.339771,644.440172924623,9.471589458333332,-0.5720545833333333,-2.655967708333333,-0.0020943951023931,0.0188495559215387,0.0837758040957278,0.003705313021327238,8.22493236819664,-0.0017974666404150241
1403636604563555584,53.771496,644.3643649630385,9.479761666666668,-0.5148491249999999,-2.59876225,-0.0034906585039886,0.0188495559215387,0.0809832772925368,0.0037447067465741293,8.22099341083162,-0.003938957365020812
1403636604613555456,39.871693,644.7173402133016,9.479761666666668,-0.5148491249999999,-2.59876225,-0.0034906585039886,0.0188495559215387,0.0809832772925368,0.008883778321227163,8.217853005316183,-0.003140405515436484
1403636604663555584,49.974203,644.3691784113215,9.349006333333334,-0.4821602916666666,-2.549729,-0.0041887902047863,0.0167551608191455,0.0802851455917391,0.0024985731757010046,8.216253990958013,-0.0015990143581703364
1403636604713555456,49.765587,644.8044713375438,9.381695166666669,-0.5557101666666666,-2.6151066666666667,-0.0034906585039886,0.0174532925199432,0.0774926187885482,0.004465113718092011,8.215146645365856,-0.001107345592156861
1403636604763555584,50.274372,644.1043239039175,9.422556208333331,-0.53936575,-2.59876225,-0.0020943951023931,0.0216420827247296,0.0760963553869527,0.0022734399583916706,8.215133586871508,-1.3058494348072713e-05
1403636604813555456,57.40118,645.0813377917702,9.414383999999998,-0.5965712083333333,-2.574245625,-0.0006981317007977,0.0244346095279206,0.0816814089933346,0.007324486618046208,8.21624916916877,0.001115582297261497
1403636604863555584,53.574324,643.6379015002237,9.389867375,-0.5066769166666666,-2.606934458333333,-0.0041887902047863,0.0153588974175501,0.0781907504893459,0.00474268354218721,8.219336558158341,0.0030873889895719486
1403636604913555456,38.919687,644.1418664885337,9.389867375,-0.5066769166666666,-2.606934458333333,-0.0041887902047863,0.0153588974175501,0.0781907504893459,0.003952135435153368,8.22335193392261,0.0040153757642684695
1403636604963555584,57.340861,644.5451388515496,9.430728416666666,-0.4821602916666666,-2.6151066666666667,-0.0020943951023931,0.0195476876223364,0.0760963553869527,0.0059179697708137725,8.227743875553916,0.004391941631306295
1403636605013555456,49.426555,643.0539667082297,9.373522958333332,-0.4985047083333333,-2.5905900416666663,-0.0027925268031909,0.0244346095279206,0.0802851455917391,0.006768748597722006,8.231721583571334,0.003977708017417925
1403636605063555584,50.302029,643.9009284525688,9.414383999999998,-0.4821602916666666,-2.525212375,-0.0027925268031909,0.0202458193231342,0.0837758040957278,0.0037376765970699197,8.231329318596456,-0.00039226497487732104
1403636605113555456,42.938947,643.5980611290544,9.406211791666664,-0.6047434166666666,-2.606934458333333,-0.0027925268031909,0.0223402144255274,0.0788888821901436,0.007395880384455167,8.228061454352614,-0.003267864243841956
1403636605163555584,62.935591,644.2453807085755,9.46341725,-0.5802267916666666,-2.5905900416666663,-0.0041887902047863,0.0160570291183478,0.0851720674973232,0.0033077051640604854,8.224599177883617,-0.0034622764689977714
1403636605213555456,37.598133,642.4261253309428,9.46341725,-0.5802267916666666,-2.5905900416666663,-0.0041887902047863,0.0160570291183478,0.0851720674973232,0.004729073299719112,8.222133692203009,-0.002465485680607671
1403636605263555584,57.082177,643.2148099747884,9.520622708333333,-0.4494714583333333,-2.631451083333333,0.0,0.0153588974175501,0.0837758040957278,0.003819788898882182,8.220261083559713,-0.001872608643296303
1403636605313555456,42.45305,642.804482407254,9.26728425,-0.5311935416666667,-2.557901208333333,-0.0041887902047863,0.0244346095279206,0.0747000919853573,0.0036955120110219435,8.217894774377292,-0.002366309182420423
1403636605363555584,57.163954,644.2739064754318,9.471589458333332,-0.5148491249999999,-2.5905900416666663,-0.0013962634015954,0.0230383461263251,0.0816814089933346,0.0059179894546683405,8.2180226590298,0.00012788465250679337
1403636605413555456,50.127983,643.8741147405185,9.414383999999998,-0.563882375,-2.5660734166666663,-0.0020943951023931,0.0237364778271228,0.0747000919853573,0.0019871736249481927,8.21946011955776,0.001437460527961676
1403636605463555584,53.87187,643.714579291577,9.520622708333333,-0.4494714583333333,-2.606934458333333,-0.0020943951023931,0.0209439510239319,0.0781907504893459,0.003603951126747847,8.21889430203729,-0.0005658175204708016
1403636605513555456,38.665533,643.9428334761186,9.520622708333333,-0.4494714583333333,-2.606934458333333,-0.0020943951023931,0.0209439510239319,0.0781907504893459,0.0030029760580938866,8.219868827519036,0.0009745254817463689
1403636605563555584,49.958468,643.9949148040504,9.398039583333333,-0.5311935416666667,-2.574245625,-0.0034906585039886,0.0188495559215387,0.0837758040957278,0.006352915436969231,8.220418510636081,0.0005496831170450633
1403636605613555456,50.166845,643.7767113034637,9.455245041666666,-0.5475379583333333,-2.5905900416666663,-0.0048869219055841,0.0202458193231342,0.0767944870877505,0.003907664330797204,8.223145688601665,0.002727177965583749
1403636605663555584,57.497501,642.9890969617612,9.414383999999998,-0.4903325,-2.5415567916666664,-0.0013962634015954,0.0209439510239319,0.0816814089933346,0.004884228476003415,8.226569233576578,0.0034235449749129288
1403636605713555456,41.973591,631.0734537966415,9.357178541666666,-0.5066769166666666,-2.5660734166666663,-0.0048869219055841,0.0251327412287183,0.0747000919853573,0.022005496806737558,8.21730505865349,-0.00926417492308751
1403636605763555584,50.338745,630.5202022791758,9.520622708333333,-0.5475379583333333,-2.639623291666666,-0.0013962634015954,0.0237364778271228,0.08307767239493,0.0032007746535007093,8.215851721869633,-0.0014533367838573952
1403636605813555456,50.31085,630.799772179502,9.349006333333334,-0.5311935416666667,-2.525212375,-0.0055850536063818,0.0244346095279206,0.0795870138909414,0.004604605235102356,8.214290142400063,-0.001561579469569807
1403636605863555584,49.718619,630.630856471793,9.545139333333331,-0.5883989999999999,-2.623278875,-0.0062831853071795,0.0188495559215387,0.0823795406941323,0.003916981171877778,8.213350357128574,-0.0009397852714894128
1403636605913555456,50.308466,631.071789334337,9.504278291666663,-0.4985047083333333,-2.557901208333333,-0.0013962634015954,0.0216420827247296,0.0823795406941323,0.004218457057944359,8.214871208773832,0.001520851645258503
1403636605963555584,49.762487,630.8576903215535,9.357178541666666,-0.53936575,-2.557901208333333,-0.0020943951023931,0.0195476876223364,0.0837758040957278,0.0021975252314146987,8.214944924277077,7.371550324464238e-05
1403636606013555456,50.921202,631.9333041801049,9.389867375,-0.5475379583333333,-2.582417833333333,-0.0048869219055841,0.0202458193231342,0.075398223686155,0.002744754281909353,8.215501371401604,0.0005564471245271818
1403636606063555584,49.206734,632.0651290883885,9.357178541666666,-0.5557101666666666,-2.5660734166666663,-0.0034906585039886,0.0237364778271228,0.08307767239493,0.004935821142300548,8.21797250573628,0.0024711343346748293
1403636606113555456,51.013231,631.429999754613,9.447072833333332,-0.4985047083333333,-2.631451083333333,-0.0055850536063818,0.0237364778271228,0.0726056968829641,0.0028911610785299436,8.220274215762215,0.0023017100259359324
1403636606163555584,50.030947,631.1375629379268,9.422556208333331,-0.6047434166666666,-2.5660734166666663,-0.0027925268031909,0.0223402144255274,0.0816814089933346,0.006398189092878777,8.223351064710878,0.0030768489486625583
1403636606213555456,50.05908,631.697555441687,9.455245041666666,-0.4739880833333333,-2.606934458333333,-0.0006981317007977,0.0223402144255274,0.0774926187885482,0.005809297524994963,8.225985778419656,0.0026347137087778805
1403636606263555584,49.325227,630.664798553215,9.455245041666666,-0.5311935416666667,-2.5905900416666663,-0.0055850536063818,0.0202458193231342,0.0781907504893459,0.005778087525458108,8.22395758860873,-0.0020281898109253405
1403636606313555456,50.219536,631.7654580839675,9.406211791666664,-0.5311935416666667,-2.574245625,-0.0062831853071795,0.0209439510239319,0.0795870138909414,0.006784650420397481,8.220124250600946,-0.0038333380077837376
1403636606363555584,62.800408,630.2166995329285,9.398039583333333,-0.5557101666666666,-2.582417833333333,-0.0020943951023931,0.0237364778271228,0.075398223686155,0.004644492884257493,8.221268749357609,0.0011444987566626708
1403636606413555456,46.655178,631.0028390277669,9.398039583333333,-0.5557101666666666,-2.582417833333333,-0.0020943951023931,0.0237364778271228,0.075398223686155,0.005683809357913766,8.226115848239655,0.004847098882045486
1403636606463555584,43.924093,631.7615084625347,9.422556208333331,-0.5230213333333333,-2.549729,-0.0013962634015954,0.0202458193231342,0.0802851455917391,0.005986351923225724,8.230334193471077,0.004218345231421949
1403636606513555456,49.408197,630.7024107248861,9.430728416666666,-0.5148491249999999,-2.549729,-0.0048869219055841,0.0223402144255274,0.0809832772925368,0.004294034594606397,8.232728001928177,0.0023938084571000218
1403636606563555584,50.16613,630.9202563507802,9.406211791666664,-0.5311935416666667,-2.557901208333333,-0.007679448708775,0.0230383461263251,0.08307767239493,0.003766929689735076,8.22976095790061,-0.0029670440275673116
1403636606613555456,49.993992,631.3813882886302,9.447072833333332,-0.563882375,-2.5905900416666663,-0.0027925268031909,0.0202458193231342,0.0788888821901436,0.004519611996157084,8.226100872962014,-0.003660084938594821
1403636606663555584,49.705983,630.7717408852985,9.422556208333331,-0.5148491249999999,-2.549729,-0.0034906585039886,0.0188495559215387,0.0816814089933346,0.002428933278124581,8.225867109289263,-0.00023376367275140808
1403636606713555456,50.632238,630.8181892452275,9.504278291666663,-0.5475379583333333,-2.6151066666666667,-0.0041887902047863,0.018151424220741,0.0767944870877505,0.006425463458000941,8.223911607764657,-0.001955501524605552
1403636606763555584,51.714897,630.3422650531159,9.389867375,-0.5148491249999999,-2.606934458333333,-0.0048869219055841,0.0167551608191455,0.0816814089933346,0.007779748411283668,8.224367432273864,0.0004558245092063373
1403636606813555456,47.887087,631.5863881817698,9.520622708333333,-0.5475379583333333,-2.623278875,0.0006981317007977,0.0174532925199432,0.0774926187885482,0.0031327524758021285,8.226117163443558,0.0017497311696939022
1403636606863555584,49.761772,631.4892573900339,9.357178541666666,-0.5475379583333333,-2.525212375,0.0,0.0146607657167523,0.0788888821901436,0.003256916712206719,8.226660638341862,0.000543474898304197
1403636606913555456,52.88291,630.8807047943259,9.389867375,-0.4739880833333333,-2.582417833333333,-0.0055850536063818,0.018151424220741,0.0802851455917391,0.003424349321307261,8.227479746406532,0.0008191080646700044
1403636606963555584,47.313928,631.117087956422,9.357178541666666,-0.53936575,-2.5415567916666664,-0.0020943951023931,0.0188495559215387,0.0809832772925368,0.0013153151149034746,8.227307608282816,-0.00017213812371608128
1403636607013555456,49.907446,631.0360608264436,9.324489708333331,-0.4576436666666666,-2.557901208333333,-0.0034906585039886,0.0265290046303138,0.0795870138909414,0.0049977725908501,8.226771269140912,-0.0005363391419042074
1403636607063555584,50.061942,630.4245484158268,9.398039583333333,-0.4821602916666666,-2.582417833333333,0.0006981317007977,0.0174532925199432,0.0802851455917391,0.009387003607906315,8.225622520140066,-0.001148749000845939
1403636607113555456,60.884475,631.1754463011141,9.447072833333332,-0.5148491249999999,-2.606934458333333,-0.0020943951023931,0.0272271363311115,0.0809832772925368,0.007778914838946967,8.224169795114996,-0.0014527250250697676
1403636607163555584,38.968086,631.069479702685,9.447072833333332,-0.5148491249999999,-2.606934458333333,-0.0020943951023931,0.0272271363311115,0.0809832772925368,0.0056922255776309634,8.22076800977037,-0.0034017853446250967
1403636607213555456,49.782992,630.5774230441189,9.430728416666666,-0.4985047083333333,-2.5415567916666664,0.0,0.0195476876223364,0.0788888821901436,0.006664652655832992,8.21513085087638,-0.005637158893991412
1403636607263555584,49.943209,629.553388507191,9.36535075,-0.53936575,-2.557901208333333,-0.0020943951023931,0.0216420827247296,0.0788888821901436,0.008737449965836771,8.20959455490554,-0.005536295970840044
1403636607313555456,60.582161,631.0719366896167,9.381695166666669,-0.5148491249999999,-2.574245625,-0.0020943951023931,0.0216420827247296,0.0788888821901436,0.008979501552414249,8.205679219868598,-0.003915335036941414
1403636607363555584,41.246175,630.4896467477278,9.381695166666669,-0.5148491249999999,-2.574245625,-0.0020943951023931,0.0216420827247296,0.0788888821901436,0.013981916984903798,8.202533588384066,-0.0031456314845321742
1403636607413555456,58.665753,630.6918886048442,9.406211791666664,-0.4739880833333333,-2.525212375,-0.0013962634015954,0.0223402144255274,0.0823795406941323,0.004555284341898271,8.203125107603777,0.0005915192197107899
1403636607463555584,39.681434,630.9617542930239,9.406211791666664,-0.4739880833333333,-2.525212375,-0.0013962634015954,0.0223402144255274,0.0823795406941323,0.008681284861426587,8.204147754228606,0.0010226466248290933
1403636607513555456,51.362992,630.4806449914774,9.438900625,-0.465815875,-2.59876225,-0.0027925268031909,0.0202458193231342,0.0781907504893459,0.005557023881976884,8.202832996653632,-0.0013147575749741236
1403636607563555584,54.184198,631.605259976026,9.398039583333333,-0.5148491249999999,-2.582417833333333,-0.0069813170079773,0.0230383461263251,0.0823795406941323,0.004155262020993137,8.19964482317688,-0.003188173476750933
1403636607613555456,40.314674,631.2472539058264,9.398039583333333,-0.5148491249999999,-2.582417833333333,-0.0069813170079773,0.0230383461263251,0.0823795406941323,0.005365936149208366,8.196187244332375,-0.0034575788445057043
1403636607663555584,50.535679,630.6660009984747,9.438900625,-0.563882375,-2.59876225,-0.0048869219055841,0.0188495559215387,0.0760963553869527,0.0027515787850551426,8.196598120124216,0.00041087579184129197
1403636607713555456,50.350666,632.7329964047804,9.373522958333332,-0.5720545833333333,-2.50069575,-0.0034906585039886,0.0188495559215387,0.0816814089933346,0.004108155194240292,8.198531551262606,0.0019334311383900626
1403636607763555584,50.048352,630.6782303612747,9.455245041666666,-0.5557101666666666,-2.549729,-0.0013962634015954,0.0223402144255274,0.0760963553869527,0.0010714704509874682,8.198973820753263,0.00044226949065695464
1403636607813555456,49.932718,631.4880658604533,9.455245041666666,-0.563882375,-2.623278875,-0.0027925268031909,0.0216420827247296,0.0767944870877505,0.003183893056622319,8.198686250554163,-0.0002875701991005286
1403636607863555584,50.205707,631.6851546205461,9.455245041666666,-0.5230213333333333,-2.5905900416666663,-0.0055850536063818,0.0195476876223364,0.0809832772925368,0.004418478963812873,8.200444482887763,0.0017582323336000627
1403636607913555456,57.131768,632.036297957681,9.430728416666666,-0.5148491249999999,-2.59876225,-0.0055850536063818,0.0195476876223364,0.0795870138909414,0.0059891756187089315,8.204130704057148,0.0036862211693851066
1403636607963555584,42.467355,630.3691387700837,9.414383999999998,-0.5557101666666666,-2.557901208333333,-0.0048869219055841,0.0174532925199432,0.0726056968829641,0.006746851313487,8.207792859768109,0.003662155710960846
1403636608013555456,50.279379,630.7853867150166,9.520622708333333,-0.5557101666666666,-2.606934458333333,-0.0020943951023931,0.0216420827247296,0.0851720674973232,0.007082363087924836,8.212598038605437,0.004805178837328228
1403636608063555584,49.370051,629.8854065988282,9.389867375,-0.53936575,-2.582417833333333,-0.0041887902047863,0.0202458193231342,0.0788888821901436,0.008008396466485554,8.213000067598449,0.00040202899301178263
1403636608113555456,50.363302,631.5836279574097,9.398039583333333,-0.53936575,-2.606934458333333,-0.0055850536063818,0.0195476876223364,0.0781907504893459,0.005294360067827127,8.213719213571164,0.0007191459727149407
1403636608163555584,62.106848,630.8758150339,9.438900625,-0.4903325,-2.5905900416666663,-0.0013962634015954,0.0230383461263251,0.0823795406941323,0.003544183297771287,8.215154216552133,0.0014350029809691023
1403636608213555456,37.859201,631.5882049192988,9.438900625,-0.4903325,-2.5905900416666663,-0.0013962634015954,0.0230383461263251,0.0823795406941323,0.004029524485314288,8.218250766647758,0.003096550095625261
1403636608263555584,50.130606,631.5871290246837,9.406211791666664,-0.5557101666666666,-2.574245625,-0.0006981317007977,0.0216420827247296,0.0760963553869527,0.003183043559301962,8.220696912993212,0.0024461463454539256
1403636608313555456,59.75008,630.6577279927876,9.36535075,-0.5148491249999999,-2.557901208333333,-0.0020943951023931,0.0209439510239319,0.0802851455917391,0.0037128400117029774,8.22073880980785,4.189681463806494e-05
1403636608363555584,40.251017,631.2090435669135,9.36535075,-0.5148491249999999,-2.557901208333333,-0.0020943951023931,0.0209439510239319,0.0802851455917391,0.0031632379270943446,8.218799029447856,-0.001939780359993648
1403636608413555456,49.796819,631.1049032057823,9.438900625,-0.5720545833333333,-2.606934458333333,-0.0013962634015954,0.0216420827247296,0.0823795406941323,0.002522523109392766,8.218552181757646,-0.0002468476902102168
1403636608463555584,60.271263,629.8485692751511,9.381695166666669,-0.5311935416666667,-2.5660734166666663,-0.0062831853071795,0.018151424220741,0.0781907504893459,0.00399638503509905,8.219420396533984,0.0008682147763376946
1403636608513555456,39.730072,631.01546496017,9.381695166666669,-0.5311935416666667,-2.5660734166666663,-0.0062831853071795,0.018151424220741,0.0781907504893459,0.005076602155801672,8.220702116701242,0.001281720167257916
1403636608563555584,50.260783,629.2256084689011,9.447072833333332,-0.4903325,-2.59876225,0.0006981317007977,0.0202458193231342,0.0788888821901436,0.007897586105423456,8.222287847254774,0.001585730553532727
1403636608613555456,61.070442,630.0969384635455,9.422556208333331,-0.5148491249999999,-2.606934458333333,-0.0055850536063818,0.0174532925199432,0.0809832772925368,0.0025353933916019956,8.222134592927377,-0.00015325432739743405
1403636608663555584,38.646459,630.0581914058263,9.422556208333331,-0.5148491249999999,-2.606934458333333,-0.0055850536063818,0.0174532925199432,0.0809832772925368,0.0028932031056103807,8.220656582191125,-0.0014780107362515338
