stamp,img_delta,blur,lin_acc.x,lin_acc.y,lin_acc.z,ang_vel.x,ang_vel.y,ang_vel.z,rpe,ate,drift
1403636859601666560,49.763441,439.02069621283215,9.030290208333332,-0.367749375,-3.178989041666666,-0.189891822616983,-0.007679448708775,-0.0041887902047863,2.959951413858444,11.849014462724854,-0.39136598773887066
1403636859651666432,62.537432,380.1771312491698,9.013945791666666,-0.5066769166666666,-3.1463002083333333,-0.143116998663535,0.1947787445225671,0.057246799465414,3.989035271480987,10.98115486794639,-0.867859594778464
1403636859701666560,47.200918,364.422793850676,9.095667875,-0.0735498749999999,-3.28522775,-0.1598721594826805,0.2673844414055313,-0.0223402144255274,3.136211509742383,10.389638029687728,-0.5915168382586629
1403636859751666432,40.638686,364.3705714189168,9.095667875,-0.0735498749999999,-3.28522775,-0.1598721594826805,0.2673844414055313,-0.0223402144255274,3.3141610869762568,10.179616727260202,-0.21002130242752592
1403636859801666560,49.873113,408.33536213252506,9.144701125,0.024516625,-3.28522775,-0.1584758960810851,0.2268928027592628,-0.0453785605518525,2.782592026582984,10.791902577953502,0.6122858506933007
1403636859851666432,50.154925,477.67145950777103,8.327480291666665,-0.2860272916666666,-3.08909475,-0.1605702911834783,0.1773254520026238,-0.0795870138909414,2.954614360224524,10.734374057373683,-0.05752852057981883
1403636859901666560,49.964189,557.2942993311347,9.087495666666666,0.0653776666666666,-3.08909475,-0.0837758040957278,0.1151917306316257,0.0104719755119659,2.3913680511447883,11.060301510962125,0.32592745358844155
1403636859951666432,49.896002,619.4381603155658,8.106830666666665,0.2615106666666666,-2.7867230416666664,-0.0523598775598298,0.0893608577021096,0.0760963553869527,2.354065436052458,11.775764418225931,0.7154629072638059
1403636860001666560,49.991369,825.4924104080595,7.428537374999999,0.5883989999999999,-2.329079375,-0.0726056968829641,0.0370009801422797,0.0712094334813686,1.5985498116600667,12.536282983951716,0.7605185657257856
1403636860051666432,49.85857,905.8482114822206,6.644005375,0.4576436666666666,-1.9286411666666663,-0.0774926187885482,-0.0153588974175501,0.085870199198121,1.220572642261445,13.044816569264933,0.5085335853132165
1403636860101666560,50.025463,863.888398053256,6.153672874999999,0.0817220833333333,-1.838746875,-0.064926248174189,-0.0712094334813686,0.1787217154042193,0.499999259929411,12.924331288220397,-0.1204852810445356
1403636860151666432,56.344033,619.7892184410019,6.210878333333333,0.122583125,-1.985846625,-0.0125663706143591,-0.1082104136236484,0.1424188669627373,0.9200441621774729,12.391702414240736,-0.532628873979661
1403636860201666560,43.68782,449.9009255408733,6.210878333333333,-0.196133,-2.435318083333333,-0.0034906585039886,-0.1438151303643327,0.124965574442794,1.6857601608134876,11.818029888176103,-0.5736725260646338
1403636860251666432,50.317288,363.7301160053871,6.954549291666666,-0.1797885833333333,-2.6477955,0.0705113017805709,-0.1919862177193762,0.1975712713257581,2.531229960923765,11.109561137666912,-0.7084687505091907
1403636860301666560,54.078817,308.1738448886844,8.180380541666665,0.1879607916666666,-2.9338227916666666,0.0705113017805709,-0.2925171826342496,0.2066469834361286,3.0474618669693774,10.364496063532668,-0.7450650741342439
1403636860351666432,45.537233,271.6277836074396,8.294791458333332,-0.2615106666666666,-3.3260887916666664,-0.0139626340159546,-0.3832743037379548,0.1521927107739055,3.3256225018779437,9.521605220736818,-0.8428908427958497
1403636860401666560,50.28081,255.8075160360195,9.079323458333333,-0.1470997499999999,-4.004382083333333,-0.0139626340159546,-0.4363323129985824,0.2052507200345331,3.587133628702472,9.008234910837203,-0.5133703098996154
1403636860451666432,55.51219,245.4521173280518,9.349006333333334,-0.34323275,-3.7919046666666665,-0.0279252680319092,-0.457974395723312,0.1682497398922533,3.8486537041402125,8.956210896457836,-0.052024014379366434
1403636860501666560,55.069446,236.7545561863351,10.1008495,-0.2533384583333333,-4.445681333333333,0.1061160185212552,-0.3895574890451343,0.1905899543177807,3.7333441598320536,9.097575052952804,0.14136415649496747
1403636860551666432,49.196005,242.92309133828712,10.019127416666668,-0.5311935416666667,-5.254729958333334,0.0265290046303138,-0.3274237676741362,0.1494001839707146,2.930944457932845,8.868375977830274,-0.2291990751225299
1403636860601666560,43.451548,254.9840224743028,10.019127416666668,-0.5311935416666667,-5.254729958333334,0.0265290046303138,-0.3274237676741362,0.1494001839707146,3.137909217021125,9.588545997949328,0.7201700201190544
1403636860651666432,46.98348,301.5859563327504,9.937405333333334,-0.1307553333333333,-5.181180083333333,0.1103048087260416,-0.1766273203018261,0.1228711793404008,2.7225668489447603,10.285236003254688,0.69669000530536
1403636860701666560,51.181555,378.7675281496376,10.574837583333332,-0.6210878333333334,-5.279246583333333,0.1033234917180643,-0.0823795406941323,0.0425860337486616,1.6335585868112952,10.263558652450266,-0.021677350804422346
1403636860751666432,49.78466,551.586574031004,10.926242541666667,-0.2124774166666666,-5.565273875,-0.0083775804095727,-0.0020943951023931,-0.0621337213709981,1.638702559106146,10.921868906869179,0.6583102544189128
1403636860801666560,48.708916,714.7023242334783,10.909898125,-0.3514049583333333,-5.524412833333333,0.0062831853071795,0.0383972435438752,-0.1026253600172665,0.17746542214687036,10.850658132982728,-0.0712107738864507
1403636860851666432,60.832262,496.53442623685856,11.106031125,-0.269682875,-5.597962708333332,0.0488692190558412,0.0370009801422797,-0.0300196631343024,1.0834843762591422,10.412013930114185,-0.43864420286854333
1403636860901666560,49.616814,382.6166398761287,10.73828175,-0.1470997499999999,-5.508068416666666,0.0607374579694026,0.0516617458590321,-0.0216420827247296,1.6917542478822907,10.31846238219561,-0.09355154791857423
1403636860951666432,50.218105,313.2540772184035,10.427737833333332,0.220649625,-5.074941374999999,0.0153588974175501,0.1452113937659282,-0.0209439510239319,2.3195854252610846,10.316589862516365,-0.0018725196792459542
1403636861001666560,44.159412,279.2049617470579,10.427737833333332,0.220649625,-5.074941374999999,0.0153588974175501,0.1452113937659282,-0.0209439510239319,3.2909891171104375,9.856573911088095,-0.4600159514282698
1403636861051666432,48.945189,258.71307758798514,9.602344791666663,-0.2043052083333333,-4.797086291666667,0.0188495559215387,0.2513274122871834,0.0600393262686049,3.323757102940265,10.077729830141962,0.22115591905386722
1403636861101666560,45.917272,244.97450590090008,9.455245041666666,0.04903325,-4.347614833333333,-0.0272271363311115,0.3511602455012591,0.0502654824574366,4.0349317941787195,9.57710099913833,-0.5006288310036329
1403636861151666432,60.817004,248.53619482011723,9.136528916666666,-0.367749375,-4.1024485833333335,-0.0048869219055841,0.5124286683855351,0.0516617458590321,3.7064544753602164,9.94712354355459,0.37002254441626015
1403636861201666560,44.342279,253.36510493293707,9.136528916666666,-0.367749375,-4.1024485833333335,-0.0048869219055841,0.5124286683855351,0.0516617458590321,3.9702707149389957,10.189290676104072,0.24216713254948274
1403636861251666432,55.765391,259.8031737234679,8.597163166666666,-0.0408610416666666,-3.4404997083333333,0.0188495559215387,0.5026548245743669,0.1123992038284348,3.648820659705544,10.81487384378648,0.6255831676824073
1403636861301666560,39.422512,267.15928665448945,8.597163166666666,-0.0408610416666666,-3.4404997083333333,0.0188495559215387,0.5026548245743669,0.1123992038284348,3.5328820485098897,11.65985977494329,0.8449859311568115
1403636861351666432,50.376415,297.5293258768765,7.559292708333333,0.3268883333333333,-3.0400615,-0.0223402144255274,0.4440117617073574,0.1068141502220529,3.5559134159848833,12.724722292558832,1.0648625176155413
1403636861401666560,49.782276,328.9191998752134,7.346815291666666,-0.2778550833333333,-2.231012875,-0.0230383461263251,0.3874630939427411,0.1808161105066125,2.524811400982837,13.455672036558159,0.7309497439993269
1403636861451666432,50.242901,431.97980102519887,6.219050541666666,0.2043052083333333,-2.3372515833333334,-0.0586430628670094,0.307177948351002,0.0677187749773799,2.2222155744754155,14.254788701784085,0.7991166652259256
1403636861501666560,63.376665,710.3504168497553,5.965712083333332,0.024516625,-1.9286411666666663,-0.0977384381116824,0.0747000919853573,0.0411897703470661,0.9272954020751807,14.661196689282994,0.40640798749890905
1403636861551666432,36.934853,937.7339526591225,5.965712083333332,0.024516625,-1.9286411666666663,-0.0977384381116824,0.0747000919853573,0.0411897703470661,0.11965026451927786,14.630466232006652,-0.030730457276341383
1403636861601666560,59.489965,585.8292235252081,6.701210833333333,-0.3350605416666666,-2.10842975,0.036302848441482,-0.1870992958137921,0.0949459113084915,0.8687249864019759,14.207316864808323,-0.4231493671983291
1403636861651666432,44.390917,437.83468219075337,6.701210833333333,-0.3350605416666666,-2.10842975,0.036302848441482,-0.1870992958137921,0.0949459113084915,1.7412408412877844,13.472336150679249,-0.7349807141290743
1403636861701666560,45.4216,377.7829595618389,7.2487487916666655,-0.2533384583333333,-2.639623291666666,0.0265290046303138,-0.208043246837724,0.0788888821901436,2.395484441725864,12.542737337288854,-0.9295988133903954
1403636861751666432,59.949398,376.64547530266015,8.368341333333333,-0.2860272916666666,-2.974683833333333,-0.007679448708775,-0.2122320370425104,0.0160570291183478,2.8202117142154712,11.677339483179765,-0.865397854109089
1403636861801666560,44.075489,349.9626838826761,8.368341333333333,-0.2860272916666666,-2.974683833333333,-0.007679448708775,-0.2122320370425104,0.0160570291183478,3.0329418841593285,10.675676275754558,-1.0016632074252065
1403636861851666432,55.612803,328.0417202361068,9.479761666666668,-0.0572054583333333,-3.18716125,0.093549647906896,-0.3078760800517997,0.1026253600172665,3.3362482742934443,9.933142021034419,-0.7425342547201392
1403636861901666560,51.174402,290.1225991823515,8.768779541666666,-0.2778550833333333,-3.734699208333333,0.0453785605518525,-0.3888593573443366,0.1242674427419962,3.474318773063799,9.407065454595411,-0.5260765664390075
1403636861951666432,44.767857,259.54480754188586,8.768779541666666,-0.2778550833333333,-3.734699208333333,0.0453785605518525,-0.3888593573443366,0.1242674427419962,3.6272888256734497,9.156696398004733,-0.250369056590678
1403636862001666560,54.216146,248.8484273535615,10.092677291666664,-0.3105439166666667,-4.257720541666666,0.0635299847725936,-0.3658210112180114,0.2010619298297467,3.632823792578351,9.037721585848464,-0.11897481215626904
1403636862051666432,39.544821,264.15596488663675,10.092677291666664,-0.3105439166666667,-4.257720541666666,0.0635299847725936,-0.3658210112180114,0.2010619298297467,3.586490175652319,9.234023495713691,0.19630190986522678
1403636862101666560,50.579548,274.6135593386791,9.626861416666666,-0.1062387083333333,-4.4129925,0.0069813170079773,-0.265290046303138,0.1445132620651305,3.50579996303749,9.452357457486285,0.21833396177259345
1403636862151666432,50.110817,292.67278271523674,10.501287708333331,-0.1307553333333333,-4.895152791666666,0.0802851455917391,-0.1710422666954443,0.1933824811209717,2.735472884931857,9.484349527786053,0.03199207029976847
1403636862201666560,49.85094,329.13299030230087,11.138719958333333,0.0653776666666666,-5.401829708333333,0.0593411945678072,-0.132645023151569,0.0328121899374933,1.9793653679227783,9.279581974820617,-0.20476755296543558
1403636862251666432,59.862614,376.5474843387538,11.751635583333332,-0.0898942916666666,-5.6306515416666665,-0.0167551608191455,-0.1228711793404008,-0.0349065850398865,1.4323764441109708,9.315746682997831,0.03616470817721407
1403636862301666560,40.300369,623.3620989564422,11.751635583333332,-0.0898942916666666,-5.6306515416666665,-0.0167551608191455,-0.1228711793404008,-0.0349065850398865,0.45142276120990327,9.475009138773805,0.15926245577597342
1403636862351666432,49.906016,563.642279387605,11.833357666666666,-0.2533384583333333,-5.834956749999999,-0.0111701072127637,-0.1514945790731078,-0.0523598775598298,0.47353231284930924,9.697300852253974,0.2222917134801694
1403636862401666560,59.694051,382.9183362819996,10.901725916666663,-0.04903325,-5.597962708333332,0.025830872929516,0.0488692190558412,0.0781907504893459,1.7469326929725568,9.631611327152376,-0.06568952510159853
1403636862451666432,60.261965,300.2742173775072,10.754626166666666,-0.0408610416666666,-5.4917240000000005,0.0209439510239319,0.0621337213709981,0.085870199198121,2.5565393116959116,9.676900959666753,0.04528963251437723
1403636862501666560,28.798104,272.4895413647482,10.149882749999998,0.1389275416666666,-4.95235825,-0.054454272662223,0.1591740277818828,0.0174532925199432,3.099501440195095,9.791939446684758,0.11503848701800479
1403636862551666432,50.568342,250.6280990371409,9.888372083333332,0.2124774166666666,-4.576436666666666,-0.1626646862858715,0.228987197861656,0.0307177948351002,3.5742541449225307,9.987643009316026,0.19570356263126776
1403636862601666560,50.48418,245.48924723116187,9.46341725,0.220649625,-4.715364208333333,-0.2631956512007449,0.2813470754214859,-0.0663225115757845,3.8228444395501304,10.270211476053667,0.2825684667376418
1403636862651666432,49.890995,264.8785296405136,8.956740333333332,-0.44129925,-4.4701979583333324,-0.1815142422074102,0.3225368457685521,0.0684169066781777,3.936774138113185,10.604634703470774,0.3344232274171066
1403636862701666560,59.756995,280.70866424647284,8.376513541666666,-0.1307553333333333,-3.710182583333333,-0.0146607657167523,0.265290046303138,0.3057816849494065,4.589286755425996,10.348655267947006,-0.2559794355237681
1403636862751666432,40.13586,336.98643311246843,8.376513541666666,-0.1307553333333333,-3.710182583333333,-0.0146607657167523,0.265290046303138,0.3057816849494065,3.9501076650933347,11.214715522018013,0.866060254071007
1403636862801666560,50.288916,379.1335562826157,9.005773583333333,0.24516625,-4.233203916666667,-0.0774926187885482,0.1424188669627373,0.1494001839707146,3.8424469141690754,12.383554851833972,1.1688393298159596
1403636862851666432,49.960851,394.1323500394901,8.28661925,-0.392266,-3.8899711666666654,-0.0537561409614253,0.1382300767579508,0.3043854215478111,3.6315862476403047,13.695221666467042,1.3116668146330692
1403636862901666560,50.203562,401.8110462425996,7.861664416666666,0.0572054583333333,-3.57942725,-0.0537561409614253,0.1438151303643327,0.1891936909161853,3.2888965672071406,15.08017618899458,1.3849545225275381
1403636862951666432,59.560061,408.8544876020809,5.687856999999999,0.0817220833333333,-2.574245625,0.0628318530717958,0.2478367537831947,0.104021623418862,2.709577942082192,16.36274106431002,1.2825648753154386
1403636863001666560,44.673919,480.52490667137175,5.687856999999999,0.0817220833333333,-2.574245625,0.0628318530717958,0.2478367537831947,0.104021623418862,1.9053357021196344,17.78222120029635,1.4194801359863298
1403636863051666432,45.65382,609.1443125262304,5.720545833333333,0.1879607916666666,-1.9695022083333331,-0.0216420827247296,0.2597049926967562,-0.0432841654494593,0.8988770646522214,18.321951602022402,0.5397304017260538
1403636863101666560,59.768915,720.0072877885812,6.063778583333333,-0.24516625,-2.083913125,-0.0767944870877505,0.1619665545850737,-0.1312487597499735,0.10330235659962482,18.262729894405496,-0.05922170761690637
1403636863151666432,46.07153,840.9489207228015,6.063778583333333,-0.24516625,-2.083913125,-0.0767944870877505,0.1619665545850737,-0.1312487597499735,0.8791986872160219,17.79068095395605,-0.47204894044944723
1403636863201666560,53.574085,688.695977034048,6.431527958333334,0.367749375,-2.5660734166666663,0.0167551608191455,-0.0125663706143591,-0.007679448708775,1.6515746347435272,16.787403162552327,-1.0032777914037219
1403636863251666432,40.383816,536.8252147434216,6.431527958333334,0.367749375,-2.5660734166666663,0.0167551608191455,-0.0125663706143591,-0.007679448708775,2.461777750091864,15.605350234602126,-1.1820529279502008
1403636863301666560,69.722175,506.9167431238986,8.433719,1.1522813749999998,-2.8439285,-0.0642281164733913,-0.0509636141582344,0.0628318530717958,2.9931956222365628,14.265740998295707,-1.3396092363064191
1403636863351666432,30.375719,457.4450345248735,8.433719,1.1522813749999998,-2.8439285,-0.0642281164733913,-0.0509636141582344,0.0628318530717958,3.443978993183014,12.932127846647438,-1.3336131516482688
1403636863401666560,49.867392,445.54123819624726,8.834157208333334,-0.3840937916666667,-3.734699208333333,-0.1417207352619395,-0.0691150383789754,-0.0209439510239319,3.536968034491065,11.710331573472786,-1.2217962731746521
1403636863451666432,50.148249,362.6706046947278,8.580818749999999,0.661948875,-3.162644625,-0.0795870138909414,-0.0816814089933346,0.0970403064108847,3.812052796217831,10.625922270637416,-1.08440930283537
1403636863501666560,50.063133,325.7038812725803,8.662540833333333,0.1389275416666666,-3.800076875,-0.0516617458590321,-0.210835773640915,0.2331759880664424,4.105086838766706,9.78417578185903,-0.8417464887783854
1403636863551666432,60.201406,280.0822443187539,9.790305583333332,0.0,-3.9880376666666666,0.1494001839707146,-0.2904227875318564,0.2673844414055313,4.220377664840408,9.303051307555805,-0.48112447430322547
1403636863601666560,46.651602,263.06837127736213,9.790305583333332,0.0,-3.9880376666666666,0.1494001839707146,-0.2904227875318564,0.2673844414055313,4.1353170358337215,9.042852998520647,-0.2601983090351574
1403636863651666432,55.602074,252.0411648677228,10.476771083333333,0.1144109166666666,-4.298581583333333,0.1340412865531645,-0.2764601535159017,0.2296853295624537,4.016041968373272,9.04820615110321,0.00535315258256297
1403636863701666560,49.794197,256.9055538557982,11.097858916666665,-0.0081722083333333,-5.066769166666667,0.036302848441482,-0.2722713633111154,0.239459173373622,3.5307770275184955,8.919016913546843,-0.1291892375563677
1403636863751666432,43.812513,246.0974807077744,11.097858916666665,-0.0081722083333333,-5.066769166666667,0.036302848441482,-0.2722713633111154,0.239459173373622,2.8248682884941445,8.995919610224433,0.07690269667759075
1403636863801666560,54.861308,261.36466863788473,11.76798,-0.3268883333333333,-6.063778583333333,-0.0020943951023931,-0.2296853295624537,0.0705113017805709,1.9466305935374837,8.903861052869386,-0.0920585573550472
1403636863851666432,39.712667,393.49591929598296,11.76798,-0.3268883333333333,-6.063778583333333,-0.0020943951023931,-0.2296853295624537,0.0705113017805709,1.4469471784007597,9.182354070467284,0.27849301759789746
1403636863901666560,49.572229,656.5796387429771,12.01314625,-0.122583125,-6.080123,0.0349065850398865,-0.161268422884276,0.0551524043630208,0.8101045537672037,9.477462155250914,0.2951080847836298
1403636863951666432,50.30489,382.9409512252121,12.094868333333332,-0.416782625,-6.145500666666667,0.0970403064108847,-0.0774926187885482,0.0802851455917391,1.3508065797023567,9.49299270254478,0.015530547293867158
1403636864001666560,60.219526,290.4326643537518,10.419565625,-0.3350605416666666,-5.426346333333333,0.0886627260013119,0.1494001839707146,0.0481710873550434,2.4307096702283104,9.553829178947048,0.06083647640226708
1403636864051666432,44.824362,278.8061056347937,10.419565625,-0.3350605416666666,-5.426346333333333,0.0886627260013119,0.1494001839707146,0.0481710873550434,3.1466974469397604,9.729058128352822,0.17522894940577416
1403636864101666560,44.650078,257.7544880576955,10.909898125,-0.3023717083333333,-5.099458,-0.0307177948351002,0.1766273203018261,-0.0991347015132779,3.8180571993936216,9.993509600448478,0.2644514720956561
1403636864151666432,62.250614,272.5356422707219,9.193734375,-0.4739880833333333,-4.2822371666666665,-0.1361356816555577,0.2087413785385218,-0.0376991118430775,4.185931355758023,10.371202554715817,0.3776929542673386
1403636864201666560,37.638426,296.50620131904435,9.193734375,-0.4739880833333333,-4.2822371666666665,-0.1361356816555577,0.2087413785385218,-0.0376991118430775,4.25604543378825,10.957871115337717,0.5866685606219004
1403636864251666432,60.572147,358.02276020934784,7.984247541666667,-0.24516625,-3.7919046666666665,0.0300196631343024,0.1165879940332212,0.0886627260013119,4.0076364021730715,12.051578832511002,1.0937077171732845
1403636864301666560,39.555073,390.9456586550511,7.984247541666667,-0.24516625,-3.7919046666666665,0.0300196631343024,0.1165879940332212,0.0886627260013119,3.7829516227594633,13.197887035332942,1.14630820282194
1403636864351666432,60.386896,387.1359367528788,7.485742833333332,0.220649625,-3.685665958333333,-0.0090757121103705,0.2150245638457014,0.1710422666954443,3.4971369283249953,14.41173448754543,1.2138474522124891
1403636864401666560,39.590836,345.24556952164176,7.485742833333332,0.220649625,-3.685665958333333,-0.0090757121103705,0.2150245638457014,0.1710422666954443,3.2822821800544864,15.554874659989546,1.1431401724441148
1403636864451666432,60.022592,287.40108744364784,6.431527958333334,-0.0817220833333333,-3.1054391666666663,-0.0726056968829641,0.4530874738177279,0.2324778563656447,3.142611403355115,16.808404042187743,1.253529382198197
1403636864501666560,49.91436,290.73730609430805,7.191543333333333,-0.465815875,-2.655967708333333,0.0642281164733913,0.478918346747244,0.3036872898470133,2.563659095779304,18.064522044409003,1.2561180022212604
1403636864551666432,39.889098,310.7482179200618,7.191543333333333,-0.465815875,-2.655967708333333,0.0642281164733913,0.478918346747244,0.3036872898470133,2.0908666631275703,19.023372537898382,0.9588504934893791
1403636864601666560,49.543857,395.9649269301943,5.998400916666666,0.6701210833333332,-2.672312125,-0.0551524043630208,0.4021238596594935,0.1110029404268393,4.797698806968845,18.24507108900159,-0.7783014488967908
1403636864651666432,60.156822,693.8671592852166,6.178189499999999,0.1634441666666666,-2.329079375,-0.0774926187885482,0.1158898623324234,-0.1256637061435917,0.3261771768032114,18.427749955575045,0.182678866573454
1403636864701666560,40.21883,798.4991056717815,6.178189499999999,0.1634441666666666,-2.329079375,-0.0774926187885482,0.1158898623324234,-0.1256637061435917,0.7102018386255086,18.18214091360791,-0.2456090419671355
1403636864751666432,49.760104,599.7561560689179,5.957539875,-0.1389275416666666,-2.3372515833333334,-0.0712094334813686,-0.0335103216382911,-0.1061160185212552,1.3721887250279379,17.212532667392065,-0.9696082462158451
1403636864801666560,50.070286,479.5077897823103,7.436709583333332,-0.2778550833333333,-2.2228406666666665,0.0111701072127637,-0.143116998663535,-0.0111701072127637,2.1500857659929955,16.086454038234695,-1.1260786291573694
1403636864851666432,49.973249,417.331613162741,7.199715541666666,-0.220649625,-3.064578125,-0.0097738438111682,-0.1682497398922533,0.0132645023151569,2.7598165982383023,14.832867179927234,-1.253586858307461
1403636864901666560,49.993038,390.70471717355935,8.392857958333332,0.6456044583333332,-3.2035056666666666,-0.0216420827247296,-0.1556833692778942,0.0949459113084915,3.1094236659690173,13.558723180388638,-1.2741439995385964
1403636864951666432,50.134182,367.7660682609071,9.112012291666666,-0.2533384583333333,-2.941995,-0.0949459113084915,-0.200363798128949,0.0153588974175501,3.178028518972573,12.337123860100457,-1.2215993202881812
1403636865001666560,49.982786,327.41682775557007,8.556302125,0.44129925,-3.693838166666666,-0.1619665545850737,-0.208043246837724,0.0195476876223364,3.458237961453915,11.235906890343305,-1.1012169697571519
1403636865051666432,49.779654,322.64625811883315,9.005773583333333,-0.3023717083333333,-4.045243125,-0.0027925268031909,-0.2261946710584651,0.057246799465414,3.5590932752125397,10.368377301995157,-0.8675295883481482
1403636865101666560,59.798002,320.5991856771714,9.26728425,-0.4086104166666666,-4.404820291666666,0.1340412865531645,-0.182212373908208,0.4251622057858186,3.5027929046671367,9.637468814237549,-0.730908487757608
1403636865151666432,49.773693,363.7802738162183,10.010955208333332,-0.0163444166666666,-4.633642125,0.1891936909161853,-0.1480039205691191,0.3937462792499207,3.363040493628548,9.220473765047482,-0.41699504919006714
1403636865201666560,40.457964,362.101331076153,10.010955208333332,-0.0163444166666666,-4.633642125,0.1891936909161853,-0.1480039205691191,0.3937462792499207,3.084876331428942,8.968656634149422,-0.25181713089805946
1403636865251666432,50.191879,406.89754685778337,10.043644041666663,-0.0163444166666666,-5.034080333333333,0.2066469834361286,-0.0970403064108847,0.4146902302738527,2.724462880598983,8.827250500274541,-0.14140613387488088
1403636865301666560,50.032616,472.7029698912818,10.174399375,-0.416782625,-4.690847583333333,0.1354375499547599,-0.0397935069454707,0.2373647782712288,2.4236444174036285,8.88597701020789,0.058726509933348936
1403636865351666432,49.969435,511.1780693608338,10.2969825,-0.392266,-4.641814333333333,-0.0251327412287183,0.0125663706143591,0.1487020522699168,1.8662936584907266,8.885142571472015,-0.0008344387358754091
1403636865401666560,50.023794,458.01986291056767,10.337843541666668,-0.5475379583333333,-5.017735916666667,-0.0307177948351002,-0.0411897703470661,-0.0013962634015954,1.4354979502869354,8.919101499699062,0.03395892822704738
1403636865451666432,50.063133,494.5160894484967,11.146892166666666,-0.4903325,-4.960530458333333,-0.0453785605518525,-0.1110029404268393,-0.08307767239493,0.7779729043637477,8.932480000350889,0.013378500651826997
1403636865501666560,49.663782,620.8817116097296,11.359369583333333,-0.3023717083333333,-5.6306515416666665,-0.085870199198121,-0.1961750079241626,-0.1214749159388053,0.08303295652637017,8.988868542724385,0.056388542373495554
1403636865551666432,60.179711,703.8651131068156,11.204097625,-0.612915625,-5.777751291666666,0.0209439510239319,-0.1647590813882647,-0.0090757121103705,0.8850893825165801,9.465246919256519,0.4763783765321339
1403636865601666560,44.356584,482.7493020145816,11.204097625,-0.612915625,-5.777751291666666,0.0209439510239319,-0.1647590813882647,-0.0090757121103705,1.7472306002324085,9.572438671617691,0.10719175236117273
1403636865651666432,44.890166,374.8018608245612,10.158054958333333,-0.44129925,-5.802267916666667,0.0991347015132779,-0.036302848441482,0.0656243798749867,2.448541191903625,9.743667520970547,0.17122884935285576
1403636865701666560,50.861597,287.8961546597074,10.231604833333332,-0.318716125,-5.123974625,0.1047197551196597,0.1179842574348166,0.0760963553869527,3.0234903298939066,10.02611535501559,0.28244783404504226
1403636865751666432,50.297498,261.55225232435697,9.937405333333334,-0.1797885833333333,-4.846119541666666,0.036302848441482,0.2359685148696333,0.0984365698124801,3.4255666914927723,10.497792697574486,0.4716773425588965
1403636865801666560,49.877644,257.22257345509354,9.577828166666666,0.2124774166666666,-4.46202575,0.0265290046303138,0.314857397059777,0.1012290966156711,3.3330652823744145,11.218490429477141,0.7206977319026553
1403636865851666432,49.968958,257.5544226413073,9.635033625,-0.0817220833333333,-4.445681333333333,0.007679448708775,0.3504621138004613,0.1605702911834783,3.805057651276201,12.14114629600688,0.9226558665297393
1403636865901666560,50.121069,245.15148661543475,8.474580041666666,-0.2941994999999999,-4.404820291666666,0.0146607657167523,0.4251622057858186,0.1193805208364121,3.9254046335006385,13.180763926981967,1.039617630975087
1403636865951666432,59.696436,233.8915613088305,8.433719,-0.5883989999999999,-3.734699208333333,-0.0027925268031909,0.55710909723659,0.124965574442794,3.7587285739223626,14.581060116276692,1.4002961892947248
1403636866001666560,44.038534,236.12839285987187,8.433719,-0.5883989999999999,-3.734699208333333,-0.0027925268031909,0.55710909723659,0.124965574442794,3.7053680654787593,16.092802262494583,1.511742146217891
1403636866051666432,46.098709,230.37808813170025,8.245758208333333,-0.0817220833333333,-3.2443667083333327,-0.0558505360638185,0.6066764479932288,0.1598721594826805,4.559410307488956,15.971522460396134,-0.12127980209844935
1403636866101666560,49.954653,244.159635619012,7.886181041666666,-0.5965712083333333,-2.79489525,-0.0809832772925368,0.5487315168270172,0.0635299847725936,3.24735525362564,17.85614809017932,1.8846256297831872
1403636866151666432,59.654236,340.9610152851407,6.668522,-0.7109821249999999,-1.9041245416666663,-0.0328121899374933,0.2771582852166995,0.0125663706143591,2.9753168368460803,20.032764047830163,2.176615957650842
1403636866201666560,40.555715,489.8595524302215,6.668522,-0.7109821249999999,-1.9041245416666663,-0.0328121899374933,0.2771582852166995,0.0125663706143591,1.8271205045445917,21.190318606857538,1.1575545590273748
1403636866251666432,50.246716,758.4912394638524,6.071950791666666,0.2043052083333333,-1.5854084166666664,-0.0733038285837618,0.1361356816555577,0.0013962634015954,1.1781718323111794,21.700915105350422,0.5105964984928839
1403636866301666560,59.158086,797.2873102654196,6.472389,0.1144109166666666,-1.4464808749999998,-0.1556833692778942,-0.1396263401595463,-0.0216420827247296,0.9237747971002347,22.22631240539088,0.5253973000404564
1403636866351666432,40.287734,588.8882433442852,6.472389,0.1144109166666666,-1.4464808749999998,-0.1556833692778942,-0.1396263401595463,-0.0216420827247296,0.44024533238092645,21.88846613777245,-0.33784626761842773
1403636866401666560,50.011873,520.6617471759398,7.060788,0.0408610416666666,-1.7733692083333334,-0.085870199198121,-0.2247984076568696,-0.0516617458590321,1.1804162118169357,21.078937976178153,-0.8095281615942973
1403636866451666432,49.968004,471.3809782431237,6.897343833333333,-0.171616375,-2.20649625,-0.0635299847725936,-0.2164208272472968,0.0342084533390888,1.8614609081047222,19.732493120094013,-1.3464448560841404
1403636866501666560,50.224066,453.8109332705422,7.444881791666666,0.3759215833333333,-2.40262925,-0.0160570291183478,-0.2150245638457014,0.0020943951023931,2.4896052749980178,18.14257828228591,-1.5899148378081023
1403636866551666432,50.146341,439.1490649262327,8.482752249999999,-0.0081722083333333,-2.974683833333333,-0.046774823953448,-0.1996656664281513,0.0370009801422797,2.8944156063841904,16.404784047051116,-1.7377942352347944
1403636866601666560,49.835444,318.94823840123115,9.177389958333332,0.6292600416666666,-3.170816833333333,-0.0502654824574366,-0.2094395102393195,0.0523598775598298,2.905284342243649,14.616603639168085,-1.788180407883031
1403636866651666432,49.90983,316.8950942190429,9.953749749999998,0.0898942916666666,-3.87362675,-0.1158898623324234,-0.2317797246648469,-0.0125663706143591,2.974671022872308,13.345808550773183,-1.2707950883949017
1403636866701666560,50.018787,327.9215115539188,10.223432625,0.416782625,-4.36395925,-0.0488692190558412,-0.2415535684760151,0.0677187749773799,2.6781620794335947,12.276798507899104,-1.0690100428740799
1403636866751666432,49.791336,396.3595770232972,9.75761675,-0.2778550833333333,-4.380303666666666,0.0886627260013119,-0.210835773640915,0.0390953752446729,2.613786126430091,11.432997042347537,-0.8438014655515662
1403636866801666560,50.30632,402.9994307727658,9.912888708333332,-0.0326888333333333,-4.429336916666666,0.1096066770252439,-0.1731366617978375,0.0781907504893459,2.2862535195505607,10.617282974756549,-0.8157140675909886
1403636866851666432,49.816132,367.097969826719,9.144701125,-0.34323275,-3.8164212916666655,0.260403124397554,-0.1801179788058148,0.1752310569002306,2.2223639028602875,10.149232258471487,-0.46805071628506134
1403636866901666560,59.6807,337.23922197054776,9.626861416666666,-0.024516625,-4.502886791666667,0.2282890661608583,-0.3043854215478111,0.2408554367752175,2.0898953965943434,9.796824551428436,-0.35240770704305113
1403636866951666432,55.251122,337.6281314680504,9.872027666666666,-0.2941994999999999,-4.576436666666666,0.0816814089933346,-0.2883283924294632,0.1570796326794896,1.928627610607211,9.574880158772514,-0.22194439265592258
1403636867001666560,34.714699,372.4894341909311,9.872027666666666,-0.2941994999999999,-4.576436666666666,0.0816814089933346,-0.2883283924294632,0.1570796326794896,1.6473570672180902,9.436242792448263,-0.13863736632425017
1403636867051666432,50.245523,439.8757752371727,10.084505083333331,-0.1470997499999999,-4.576436666666666,-0.0209439510239319,-0.2450442269800038,0.1556833692778942,1.3159603772326431,9.345506724582085,-0.09073606786617816
1403636867101666560,50.210238,523.1549203619003,9.635033625,-0.171616375,-5.042252541666667,0.054454272662223,-0.1996656664281513,0.0586430628670094,1.0898518304103157,9.368460926463573,0.02295420188148789
1403636867151666432,59.716463,573.317028510525,8.687057458333333,-1.201314625,-5.042252541666667,0.1759291886010284,-0.0705113017805709,0.0872664625997164,0.8163520691439463,9.398924959070666,0.030464032607092406
1403636867201666560,44.52753,472.9622633792082,8.687057458333333,-1.201314625,-5.042252541666667,0.1759291886010284,-0.0705113017805709,0.0872664625997164,0.7814601851891413,9.566640409956403,0.16771545088573703
1403636867251666432,55.183649,574.0146132847914,9.430728416666666,-0.3023717083333333,-4.674503166666667,0.1759291886010284,-0.075398223686155,0.0747000919853573,0.5547932179450175,9.55134397536139,-0.015296434595013508
1403636867301666560,50.082684,715.6601516742435,9.079323458333333,-0.1144109166666666,-4.543747833333333,0.0795870138909414,-0.1172861257340189,0.0781907504893459,0.38086445762001936,9.696642333262092,0.14529835790070322
1403636867351666432,44.969797,797.5794619990592,9.079323458333333,-0.1144109166666666,-4.543747833333333,0.0795870138909414,-0.1172861257340189,0.0781907504893459,0.12679809774919382,9.728872310369399,0.03222997710730624
1403636867401666560,45.446396,831.1848027360008,8.850501625,-0.7191543333333333,-4.625469916666667,-0.0439822971502571,-0.1305506280491758,0.0230383461263251,0.09870343412126412,9.802085597425764,0.07321328705636532
1403636867451666432,49.824953,619.7630546433899,8.629852,-0.3023717083333333,-4.944186041666666,-0.0425860337486616,-0.2031563249321399,0.0607374579694026,0.018456129746863982,9.904650738750732,0.10256514132496797
1403636867501666560,50.164461,430.40617024628295,8.180380541666665,-0.7191543333333333,-4.633642125,-0.093549647906896,-0.3099704751541929,0.0314159265358979,0.9581511774453855,10.327144196769158,0.4224934580184261
1403636867551666432,49.785614,263.2658679278425,7.763597916666666,0.1797885833333333,-4.985047083333333,-0.0893608577021096,-0.5145230634879283,-0.0446804288510548,0.18461825755935546,10.358087354934451,0.030943158165293028
1403636867601666560,50.11034,207.65722461131529,7.436709583333332,-0.4494714583333333,-5.009563708333333,-0.0383972435438752,-0.7253588371288433,0.0300196631343024,0.3988606998438418,10.431696401349031,0.07360904641457999
1403636867651666432,59.713841,179.93991817346384,7.346815291666666,-0.1307553333333333,-5.826784541666666,0.0139626340159546,-1.163785545229819,0.1668534764906579,0.6680436885857728,10.559419674325996,0.12772327297696506
1403636867701666560,40.14492,164.75643359651917,7.346815291666666,-0.1307553333333333,-5.826784541666666,0.0139626340159546,-1.163785545229819,0.1668534764906579,0.7879280304366271,10.744120002866914,0.18470032854091833
1403636867751666432,49.855948,159.673541946768,7.019926958333333,-0.3514049583333333,-6.4887334166666655,-0.0314159265358979,-1.2482594810263443,0.1591740277818828,1.0369382036241728,11.069934057429982,0.3258140545630681
1403636867801666560,50.337553,168.97138814611955,7.828975583333331,-0.1552719583333333,-6.791105125,-0.1172861257340189,-1.1526154380170552,0.1396263401595463,0.6129145880548506,10.842644412037055,-0.2272896453929274
1403636867851666432,59.464693,205.25748587285267,7.289609833333333,-0.612915625,-7.559292708333333,-0.0558505360638185,-0.5159193268895238,0.1724385300970397,0.4909583696670797,10.816489946889433,-0.026154465147621764
1403636867901666560,44.900179,435.798673340476,7.289609833333333,-0.612915625,-7.559292708333333,-0.0558505360638185,-0.5159193268895238,0.1724385300970397,0.16723960833519536,10.790634843234264,-0.025855103655169742
1403636867951666432,48.717975,674.763005970048,6.562283291666667,-0.5475379583333333,-7.878008833333333,-0.0593411945678072,-0.1445132620651305,0.2227040125544764,0.16649975896678906,10.750452342239257,-0.040182500995006976
1403636868001666560,56.590319,355.9486175747329,5.696029208333333,-0.4576436666666666,-7.698220249999999,-0.0132645023151569,0.3106686068549906,0.1214749159388053,0.21073754275950943,10.757754116255084,0.007301774015827434
1403636868051666432,40.233135,321.25255036779595,5.696029208333333,-0.4576436666666666,-7.698220249999999,-0.0132645023151569,0.3106686068549906,0.1214749159388053,0.29034419554312185,10.76549787219361,0.007743755938525609
1403636868101666560,59.731245,369.5078011806971,5.777751291666666,-0.4739880833333333,-7.273265416666667,0.0069813170079773,0.307177948351002,0.0795870138909414,0.19997033146128204,10.783022997035028,0.017525124841418105
1403636868151666432,39.621115,486.57224591286416,5.777751291666666,-0.4739880833333333,-7.273265416666667,0.0069813170079773,0.307177948351002,0.0795870138909414,0.12000739178164577,10.808965334848311,0.0259423378132837
1403636868201666560,50.798178,754.0701391080195,6.161845083333333,-0.4004382083333333,-7.052615791666666,0.057246799465414,0.1619665545850737,0.0816814089933346,0.13473220034955913,10.835801910577606,0.026836575729294765
1403636868251666432,60.412883,773.225100873321,6.006573125,-0.93163175,-7.175198916666666,0.0307177948351002,0.0034906585039886,0.2171189589480945,0.19981648797719248,10.866177723769782,0.030375813192176082
1403636868301666560,39.627076,665.6517561996243,6.006573125,-0.93163175,-7.175198916666666,0.0307177948351002,0.0034906585039886,0.2171189589480945,0.35340471220778863,10.890779650221262,0.024601926451479628
1403636868351666432,49.849987,630.4468823767777,6.693038625,-0.5802267916666666,-7.444881791666666,0.0111701072127637,-0.0802851455917391,0.140324471860344,0.47237422755159975,10.916031102153811,0.025251451932549074
1403636868401666560,50.248861,763.3585901506955,6.014745333333333,-0.7273265416666667,-7.2487487916666655,-0.0055850536063818,-0.0062831853071795,0.171740398396242,0.5068436654350034,10.931017791020594,0.014986688866782671
1403636868451666432,49.821854,693.701037926755,6.791105125,-0.7191543333333333,-7.583809333333333,-0.025830872929516,0.114493598930828,0.1228711793404008,0.6097541657758813,10.931921992740032,0.000904201719437836
1403636868501666560,66.152095,604.1454093759648,7.0689602083333325,-0.465815875,-7.485742833333332,-0.1298524963483781,0.268082573106329,0.0949459113084915,0.53898691952604,10.935277098545049,0.003355105805017189
1403636868551666432,47.460318,542.8708004303384,6.513250041666667,-0.2369940416666666,-7.093476833333334,-0.1075122819228507,0.1954768762233649,0.1661553447898601,0.4521577935884903,10.936045074690911,0.0007679761458625478
1403636868601666560,40.227175,710.1471368700085,6.513250041666667,-0.2369940416666666,-7.093476833333334,-0.1075122819228507,0.1954768762233649,0.1661553447898601,0.3809909067864729,10.929405925201712,-0.006639149489199525
1403636868651666432,60.310363,862.7118849634575,5.867645583333333,-0.2860272916666666,-6.979065916666666,-0.0509636141582344,-0.0446804288510548,0.0942477796076938,0.2930480091772479,10.929205880907917,-0.00020004429379483213
1403636868701666560,44.169426,609.9596128237123,5.867645583333333,-0.2860272916666666,-6.979065916666666,-0.0509636141582344,-0.0446804288510548,0.0942477796076938,0.3551412699046045,10.94783159619982,0.018625715291902267
1403636868751666432,45.367241,460.852387394665,6.594972124999999,-0.53936575,-6.913688249999999,0.0390953752446729,-0.124965574442794,-0.0006981317007977,0.48307047207673964,10.972676222761715,0.024844626561895566
1403636868801666560,49.803019,474.57866216082857,6.472389,-0.269682875,-7.093476833333334,0.018151424220741,-0.1494001839707146,-0.007679448708775,0.5896200134832101,11.013892943824862,0.04121672106314733
1403636868851666432,53.53117,720.7499093065578,6.946377083333333,-0.1552719583333333,-6.774760708333333,-0.0216420827247296,-0.1026253600172665,-0.0460766922526503,0.4448095221671686,11.04290155130906,0.029008607484197313
1403636868901666560,46.904564,837.3082388112633,7.003582541666666,-0.4821602916666666,-7.379504124999999,-0.0600393262686049,0.0397935069454707,-0.0279252680319092,0.3340422520920746,11.039480128306598,-0.003421423002460955
1403636868951666432,49.706459,652.6861866532918,6.676694208333332,-0.3840937916666667,-7.036271375,-0.0125663706143591,0.1382300767579508,0.0684169066781777,0.36519390241738275,11.052118526808385,0.012638398501787051
1403636869001666560,59.939146,610.4237448815861,6.529594458333333,-0.3350605416666666,-7.265093208333333,0.1130973355292325,0.1242674427419962,0.1130973355292325,0.3777295399384288,11.051560332143367,-0.0005581946650181635
1403636869051666432,51.797867,649.1736563303532,6.398839124999999,-0.392266,-7.117993458333333,0.1082104136236484,0.1075122819228507,0.0579449311662117,0.28118884793319054,11.060632642338978,0.009072310195611166
1403636869101666560,37.699699,692.9266376024306,6.398839124999999,-0.392266,-7.117993458333333,0.1082104136236484,0.1075122819228507,0.0579449311662117,0.30333572242531115,11.058674236989843,-0.0019584053491357167
1403636869151666432,61.243057,812.8854254433753,6.774760708333333,0.0326888333333333,-6.815621749999999,0.0621337213709981,0.0335103216382911,0.0684169066781777,0.2944244871393788,11.051677480547777,-0.006996756442065433
1403636869201666560,38.610935,842.0802688648521,6.856482791666667,-0.44129925,-6.921860458333333,0.0551524043630208,0.0104719755119659,-0.0006981317007977,0.2217139996399268,11.052509989826229,0.0008325092784513544
1403636869251666432,50.413132,888.0473235946682,6.496905624999999,-0.220649625,-7.183371125,0.0055850536063818,0.0125663706143591,0.0663225115757845,0.15936588591394354,11.095244834259603,0.042734844433374164
1403636869301666560,50.433874,891.5517906434644,6.815621749999999,-0.4004382083333333,-6.938204874999999,0.0111701072127637,0.0139626340159546,0.018151424220741,0.0973334772000849,11.110680482770032,0.015435648510429445
1403636869351666432,59.725285,905.9701037751696,6.831966166666666,-0.2941994999999999,-7.150682291666666,0.0167551608191455,0.0272271363311115,0.0418879020478639,0.09838031702910043,11.110395941444738,-0.00028454132529454057
1403636869401666560,40.332317,910.4467708073532,6.831966166666666,-0.2941994999999999,-7.150682291666666,0.0167551608191455,0.0272271363311115,0.0418879020478639,0.030683541598302888,11.144646117856457,0.034250176411719124
1403636869451666432,49.81637,913.5266658472694,6.554111083333333,-0.1389275416666666,-7.101649041666666,0.025830872929516,0.018151424220741,0.0788888821901436,0.042585744461310436,11.159218050390987,0.014571932534529708
1403636869501666560,59.853316,825.042938197416,6.61948875,0.2615106666666666,-7.134337875,-0.0146607657167523,0.0321140582366956,0.0816814089933346,0.2062372407463552,11.174623716499019,0.015405666108032179
1403636869551666432,39.84785,743.7233294104561,6.61948875,0.2615106666666666,-7.134337875,-0.0146607657167523,0.0321140582366956,0.0816814089933346,0.45541850571249354,11.172762024505303,-0.001861691993715553
1403636869601666560,56.873084,607.2038465245089,7.01175475,0.6456044583333332,-7.1588545,-0.0195476876223364,-0.0446804288510548,0.0551524043630208,0.7613898638357802,11.177802269058242,0.005040244552938944
1403636869651666432,42.958259,496.0964527881323,7.01175475,0.6456044583333332,-7.1588545,-0.0195476876223364,-0.0446804288510548,0.0551524043630208,1.114972726704497,11.22272479392537,0.04492252486712722
1403636869701666560,60.225248,374.1998378449613,6.995410333333333,0.6456044583333332,-7.052615791666666,-0.0579449311662117,-0.0614355896702004,0.1005309649148733,1.4823116585408733,11.226223147192881,0.003498353267511689
1403636869751666432,43.879033,324.4799473736102,6.995410333333333,0.6456044583333332,-7.052615791666666,-0.0579449311662117,-0.0614355896702004,0.1005309649148733,1.7915108000176645,11.199394383826137,-0.026828763366744113
1403636869801666560,46.184301,267.5734565390329,6.921860458333333,0.318716125,-7.142510083333334,-0.0809832772925368,0.007679448708775,0.1521927107739055,2.007867610417885,11.122314001696157,-0.0770803821299797
1403636869851666432,60.683489,233.2346987546406,6.823793958333333,0.24516625,-7.10982125,-0.1333431548523667,0.1528908424747032,0.1933824811209717,2.348922551921584,10.936827155344586,-0.1854868463515711
1403636869901666560,43.649673,224.8639801702254,6.823793958333333,0.24516625,-7.10982125,-0.1333431548523667,0.1528908424747032,0.1933824811209717,2.61831113704876,10.687148244327128,-0.2496789110174582
1403636869951666432,45.404196,220.864057873404,6.7502440833333335,0.2124774166666666,-6.905516041666667,-0.1068141502220529,0.1682497398922533,0.1954768762233649,2.8822360397923066,10.530022323756965,-0.15712592057016295
1403636870001666560,50.208569,223.54898814848232,6.791105125,0.1797885833333333,-6.815621749999999,-0.1291543646475804,0.1110029404268393,0.1850049007113989,3.140218482256575,10.427214691761852,-0.10280763199511256
1403636870051666432,49.707174,211.3936807402405,6.554111083333333,0.0326888333333333,-7.003582541666666,-0.1263618378443894,0.0300196631343024,0.2234021442552742,3.435206500113412,10.609297093103427,0.1820824013415745
1403636870101666560,50.078869,203.29129325006716,6.733899666666666,0.0081722083333333,-7.028099166666666,-0.1521927107739055,-0.0565486677646162,0.1940806128217694,3.5372487128071755,10.71447874248215,0.10518164937872321
1403636870151666432,54.754495,198.2572588572462,6.848310583333333,-0.04903325,-7.167026708333333,-0.1877974275145898,-0.1026253600172665,0.153588974175501,4.136314588671329,11.668395286166506,0.9539165436843557
1403636870201666560,48.393727,193.7983212330698,6.668522,-0.3105439166666667,-7.379504124999999,-0.1675516081914556,-0.0872664625997164,0.0621337213709981,3.2809547653391995,10.416465654412454,-1.2519296317540523
1403636870251666432,47.252893,195.82293607412555,6.71755525,-0.34323275,-7.085304625,-0.0809832772925368,-0.0104719755119659,0.1235693110411985,3.6128760671609763,10.509995675955441,0.09353002154298728
1403636870301666560,49.654007,197.3752582516547,6.815621749999999,-0.367749375,-7.273265416666667,-0.064926248174189,0.1047197551196597,0.1556833692778942,3.6288730184772278,9.970295047961839,-0.5397006279936019
1403636870351666432,50.088644,198.91892532165963,6.594972124999999,-0.44129925,-6.897343833333333,-0.0956440430092892,0.1724385300970397,0.1752310569002306,4.324334260943395,9.937615427101584,-0.032679620860255554
1403636870401666560,50.444365,192.49927473729923,6.464216791666666,-0.3595771666666666,-7.175198916666666,-0.1598721594826805,0.182212373908208,0.0621337213709981,3.7506914727062446,10.017400822964733,0.07978539586314959
1403636870451666432,60.385465,229.8826850158145,6.161845083333333,-1.9041245416666663,-7.216059958333333,-0.0418879020478639,-0.0160570291183478,0.2457423586808016,2.883692473683317,9.718915377818362,-0.29848544514637076
1403636870501666560,42.692662,271.6250940796024,6.161845083333333,-1.9041245416666663,-7.216059958333333,-0.0418879020478639,-0.0160570291183478,0.2457423586808016,2.240004275343939,9.862846103477132,0.14393072565876963
1403636870551666432,46.249151,203.0358009890217,6.464216791666666,-0.3105439166666667,-7.093476833333334,-0.0335103216382911,-0.0900589894029074,0.2750638901143063,2.0860278371031113,10.063214956177633,0.20036885270050142
1403636870601666560,60.035467,188.44188572235976,6.627660958333332,-1.062387083333333,-7.167026708333333,-0.2010619298297467,-0.1186823891356144,0.1054178868204575,2.285321399792432,10.758106176073374,0.6948912198957409
1403636870651666432,44.055939,199.17196567095428,6.627660958333332,-1.062387083333333,-7.167026708333333,-0.2010619298297467,-0.1186823891356144,0.1054178868204575,3.0255709897169187,10.065260255303349,-0.6928459207700257
1403636870701666560,45.917749,213.2944309481257,6.9300326666666665,-0.9152873333333332,-7.453054,-0.1494001839707146,0.0376991118430775,0.1151917306316257,1.635002107566827,9.708244028100749,-0.3570162272025996
1403636870751666432,61.257363,345.8859018139128,5.859473375,-0.4985047083333333,-7.346815291666666,0.0642281164733913,0.2296853295624537,0.2478367537831947,1.6665022463183379,9.675949477580126,-0.03229455052062313
1403636870801666560,43.017387,361.496620119662,5.859473375,-0.4985047083333333,-7.346815291666666,0.0642281164733913,0.2296853295624537,0.2478367537831947,1.2077210518133124,9.694244359587376,0.01829488200725038
1403636870851666432,56.021452,367.8325261384875,6.447872374999999,-0.6782932916666666,-7.542948291666666,0.0160570291183478,0.2366666465704311,0.0809832772925368,0.9768083423183053,9.694855244793663,0.0006108852062869374
1403636870901666560,39.932251,452.3889708527011,6.447872374999999,-0.6782932916666666,-7.542948291666666,0.0160570291183478,0.2366666465704311,0.0809832772925368,0.7566881016539638,9.719016627372245,0.02416138257858158
1403636870951666432,60.077906,502.4429958435493,6.774760708333333,-1.0869037083333333,-6.864654999999999,0.0663225115757845,0.0628318530717958,0.1438151303643327,0.5167046291693147,9.73096331045876,0.011946683086515364
1403636871001666560,39.891481,472.95956609882217,6.774760708333333,-1.0869037083333333,-6.864654999999999,0.0663225115757845,0.0628318530717958,0.1438151303643327,0.3392342377848242,9.748901368911216,0.017938058452456218
1403636871051666432,50.144672,324.7340369975525,6.627660958333332,-0.5475379583333333,-6.946377083333333,0.0642281164733913,-0.064926248174189,0.2450442269800038,0.25618883348694493,9.7541511798898,0.005249810978583014
1403636871101666560,50.064087,230.5610093881839,6.880999416666667,-0.318716125,-7.1588545,-0.0733038285837618,-0.1940806128217694,0.0991347015132779,0.2912610219139567,9.749666264074746,-0.004484915815053725
1403636871151666432,49.142361,275.5115559869354,7.2487487916666655,-1.0705592916666666,-7.297782041666666,-0.1801179788058148,-0.2206096174520832,0.0404916386462684,0.2174543828366115,9.713994203475378,-0.03567206059936723
1403636871201666560,50.907373,454.4929264707821,6.831966166666666,-1.005181625,-7.820803375,-0.124965574442794,-0.1424188669627373,0.1242674427419962,0.3972072925009915,9.654730044181091,-0.059264159294286856
1403636871251666432,49.736023,333.4690741262364,7.01175475,-1.1767979999999998,-7.0689602083333325,-0.0712094334813686,-0.025830872929516,0.0802851455917391,0.6419321035463222,9.5785086482247,-0.07622139595639155
1403636871301666560,60.137749,286.5025009668659,6.505077833333333,-1.2748645,-7.036271375,0.0237364778271228,0.0635299847725936,0.0048869219055841,0.9551009974614005,9.49828045989426,-0.08022818833043921
1403636871351666432,39.621353,263.9514391133761,6.505077833333333,-1.2748645,-7.036271375,0.0237364778271228,0.0635299847725936,0.0048869219055841,1.2442391195274873,9.43580193708591,-0.06247852280834998
1403636871401666560,59.836865,246.54692299403,6.529594458333333,-1.1931424166666666,-7.085304625,0.0747000919853573,0.057246799465414,0.0,1.6187536088142058,9.361449648652203,-0.07435228843370822
1403636871451666432,40.25197,234.59073022812763,6.529594458333333,-1.1931424166666666,-7.085304625,0.0747000919853573,0.057246799465414,0.0,2.0055659706327305,9.286484087263416,-0.07496556138878674
1403636871501666560,63.175917,224.900254587028,6.627660958333332,-1.0296982499999998,-7.175198916666666,0.0663225115757845,0.0048869219055841,0.0719075651821663,2.361776720786016,9.238574349464015,-0.04790973779940089
1403636871551666432,43.137788,224.42215411955496,6.627660958333332,-1.0296982499999998,-7.175198916666666,0.0663225115757845,0.0048869219055841,0.0719075651821663,2.704294908432028,9.194546147186356,-0.04402820227765858
1403636871601666560,55.10521,201.0412971896453,6.398839124999999,-0.907115125,-7.167026708333333,0.1459095254667259,-0.0356047167406843,0.0977384381116824,3.0092423668831954,9.126259891725825,-0.06828625546053146
1403636871651666432,38.923502,177.05669662942225,6.398839124999999,-0.907115125,-7.167026708333333,0.1459095254667259,-0.0356047167406843,0.0977384381116824,3.2610878293301395,9.09607710061594,-0.030182791109885088
1403636871701666560,50.544738,153.545348285364,6.905516041666667,-1.2421756666666668,-7.232404375,0.1780235837034216,-0.0356047167406843,0.0767944870877505,3.4336705877611715,9.119782487639837,0.023705387023897018
1403636871751666432,59.797287,163.8760910228052,6.848310583333333,-0.6701210833333332,-6.799277333333333,0.1487020522699168,0.0020943951023931,0.0293215314335047,3.5876552149616927,9.048720558823652,-0.07106192881618512
1403636871801666560,39.988757,168.8341741171249,6.848310583333333,-0.6701210833333332,-6.799277333333333,0.1487020522699168,0.0020943951023931,0.0293215314335047,3.77111699102927,9.108030474405751,0.05930991558209975
1403636871851666432,49.660444,182.7631936069341,6.382494708333334,-0.7109821249999999,-7.003582541666666,0.0816814089933346,0.0265290046303138,-0.08307767239493,2.6895660034375957,9.231342568903225,0.12331209449747327
1403636871901666560,60.006618,191.88633020186384,6.840138375,-1.0215260416666667,-7.019926958333333,0.1668534764906579,0.1019272283164688,0.0223402144255274,3.679286735348931,9.407903852702573,0.176561283799348
1403636871951666432,49.77274,190.55345978075627,6.42335575,-0.6946377083333333,-6.61948875,0.2457423586808016,0.1577777643802873,0.0537561409614253,3.958922739146853,9.51754540708392,0.10964155438134782
1403636872001666560,45.437574,201.67190537813,6.42335575,-0.6946377083333333,-6.61948875,0.2457423586808016,0.1577777643802873,0.0537561409614253,4.174534375886235,9.51675246603121,-0.0007929410527101055
1403636872051666432,54.762364,207.1396765429293,6.840138375,-0.1797885833333333,-6.913688249999999,0.2171189589480945,0.122173047639603,-0.007679448708775,4.187102211412361,9.633683380741992,0.11693091471078176
1403636872101666560,50.220489,227.73366395237207,6.554111083333333,-0.122583125,-6.872827208333333,0.1256637061435917,0.0788888821901436,-0.0097738438111682,4.115080332119926,9.672844628956872,0.03916124821487976
1403636872151666432,44.179678,237.575782097296,6.554111083333333,-0.122583125,-6.872827208333333,0.1256637061435917,0.0788888821901436,-0.0097738438111682,3.8743955998606547,9.70118976188276,0.028345132925888805
1403636872201666560,56.474447,227.3008588785694,6.848310583333333,-0.2860272916666666,-6.954549291666666,0.1584758960810851,-0.0893608577021096,-0.0195476876223364,3.669219147413097,9.812713786490304,0.11152402460754374
1403636872251666432,38.799286,220.43996526751624,6.848310583333333,-0.2860272916666666,-6.954549291666666,0.1584758960810851,-0.0893608577021096,-0.0195476876223364,3.5371511965788462,9.899076149740472,0.0863623632501671
1403636872301666560,50.390482,219.67939619630852,6.578627708333332,-0.0817220833333333,-6.856482791666667,0.143116998663535,-0.1549852375770964,-0.0202458193231342,3.389622603165125,10.026206116272746,0.1271299665322747
1403636872351666432,59.921026,239.39086437311485,6.815621749999999,0.3350605416666666,-6.995410333333333,0.1186823891356144,-0.1298524963483781,-0.0132645023151569,2.9684867223233478,10.153653639694944,0.12744752342219812
1403636872401666560,44.294358,273.6643479107719,6.815621749999999,0.3350605416666666,-6.995410333333333,0.1186823891356144,-0.1298524963483781,-0.0132645023151569,2.701051260074181,10.160458209807512,0.006804570112567632
1403636872451666432,45.727014,369.58098358112096,7.436709583333332,0.6864655000000001,-7.297782041666666,0.075398223686155,-0.0614355896702004,0.0041887902047863,1.8438602928627084,10.369098972857085,0.2086407630495728
1403636872501666560,50.157786,479.07337073111233,6.9300326666666665,0.6782932916666666,-7.363159708333333,0.0802851455917391,-0.0055850536063818,0.0216420827247296,2.0158164661598685,10.251587944636595,-0.11751102822048942
1403636872551666432,50.102949,665.7593718168758,7.10982125,0.7927042083333332,-7.330470875,0.0495673507566389,0.0495673507566389,0.0,1.0422847652074025,10.296578915806636,0.044990971170040694
1403636872601666560,49.79229,890.4263472107278,6.807449541666666,0.53936575,-7.305954249999999,0.0712094334813686,0.1005309649148733,-0.0104719755119659,0.4845866278794074,10.364151883746487,0.06757296793985113
1403636872651666432,60.158252,867.6532876099856,7.036271375,0.3759215833333333,-6.954549291666666,-0.0237364778271228,0.1061160185212552,-0.0090757121103705,0.019913656758254076,10.419474456317264,0.055322572570776885
1403636872701666560,50.130129,765.7100995375608,6.701210833333333,0.24516625,-6.791105125,-0.0691150383789754,0.0579449311662117,0.0656243798749867,0.3630092448877668,10.481935274579971,0.06246081826270711
1403636872751666432,49.476385,547.1060166296271,7.0689602083333325,0.4821602916666666,-6.807449541666666,-0.1165879940332212,-0.0118682389135614,0.0356047167406843,0.7511781139504508,10.533295161237191,0.051359886657220244
1403636872801666560,40.173531,486.5225458838181,7.0689602083333325,0.4821602916666666,-6.807449541666666,-0.1165879940332212,-0.0118682389135614,0.0356047167406843,1.1955568465859296,10.592035204271735,0.05874004303454328
1403636872851666432,59.666395,374.9511357713896,6.782932916666666,0.784532,-6.774760708333333,-0.0893608577021096,-0.0328121899374933,0.161268422884276,1.700001375679288,10.671582918150557,0.07954771387882253
1403636872901666560,44.25025,311.4937313606459,6.782932916666666,0.784532,-6.774760708333333,-0.0893608577021096,-0.0328121899374933,0.161268422884276,2.2322365458019093,10.715889786268455,0.04430686811789819
1403636872951666432,45.496464,268.90710776578527,6.995410333333333,0.8008764166666666,-6.970893708333333,-0.1438151303643327,-0.0069813170079773,0.1528908424747032,2.7577342347451808,10.714110807615748,-0.0017789786527071527
1403636873001666560,50.232648,246.78122855525748,6.701210833333333,0.2941994999999999,-6.905516041666667,-0.1368338133563554,0.0167551608191455,0.1500983156715123,3.1753130220255112,10.721048407171901,0.006937599556152918
1403636873051666432,54.959298,238.97645073315007,6.970893708333333,0.196133,-7.126165666666666,-0.1661553447898601,0.0460766922526503,0.132645023151569,3.4645503838849248,10.655983997706482,-0.06506440946541936
1403636873101666560,55.363416,228.8904531159618,6.913688249999999,0.0163444166666666,-7.10982125,-0.1165879940332212,-0.0132645023151569,0.1857030324121966,3.6749402775039672,10.587809807532754,-0.06817419017372828
1403636873151666432,39.3219,220.6088426206424,6.913688249999999,0.0163444166666666,-7.10982125,-0.1165879940332212,-0.0132645023151569,0.1857030324121966,3.9137419757268868,10.479551632648713,-0.10825817488404077
1403636873201666560,53.397417,207.4016070413808,6.766588499999999,-0.1634441666666666,-7.1588545,-0.1494001839707146,-0.0083775804095727,0.1877974275145898,3.8909547110506892,10.17168880097606,-0.3078628316726526
1403636873251666432,47.11461,194.14325675690733,6.537766666666666,-0.367749375,-7.028099166666666,-0.1438151303643327,-0.007679448708775,0.2045525883337354,4.27299577410832,10.169714490255002,-0.001974310721058359
1403636873301666560,60.709715,184.96139732798704,6.513250041666667,-0.4576436666666666,-7.077132416666666,-0.1452113937659282,0.0020943951023931,0.1850049007113989,4.12527446430344,10.323893519704601,0.15417902944959927
1403636873351666432,48.998118,174.49247848427854,6.349805875,-0.6292600416666666,-7.134337875,-0.1305506280491758,0.0062831853071795,0.1738347934986352,4.803608287022892,11.256521026889999,0.9326275071853978
1403636873401666560,51.49436,173.24770643925103,6.32528925,-0.980665,-7.077132416666666,-0.0879645943005142,-0.0020943951023931,0.2199114857512855,4.063246437020715,10.197263153272278,-1.059257873617721
1403636873451666432,48.469543,172.6978156910755,6.357978083333332,-0.7600153749999999,-7.2487487916666655,-0.1312487597499735,-0.0376991118430775,0.1186823891356144,4.087030354666023,9.998936143450733,-0.19832700982154527
1403636873501666560,44.015169,164.74675354307078,6.357978083333332,-0.7600153749999999,-7.2487487916666655,-0.1312487597499735,-0.0376991118430775,0.1186823891356144,3.957803866566958,9.786314630376456,-0.2126215130742768
1403636873551666432,45.39299,159.0211452020058,6.047434166666666,-1.1686257916666667,-7.265093208333333,-0.1947787445225671,-0.0586430628670094,0.1605702911834783,3.8144212065937806,9.565966976173756,-0.22034765420269942
1403636873601666560,50.65918,165.54105239062287,6.088295208333333,-1.250347875,-7.232404375,-0.1905899543177807,-0.0600393262686049,0.1654572130890624,3.55082902145923,9.452844045437306,-0.1131229307364503
1403636873651666432,59.926987,177.73478747804043,6.268083791666666,-1.4301364583333334,-7.444881791666666,-0.1158898623324234,-0.0635299847725936,0.1843067690106012,3.2983605799722984,9.279227983256861,-0.17361606218044479
1403636873701666560,39.959669,203.7627101782952,6.268083791666666,-1.4301364583333334,-7.444881791666666,-0.1158898623324234,-0.0635299847725936,0.1843067690106012,2.921877894327304,9.243447646090647,-0.03578033716621398
1403636873751666432,50.533056,247.1286259502508,6.080123,-1.6671305,-7.567464916666665,-0.0356047167406843,-0.0495673507566389,0.1319468914507713,2.475014779286861,9.170582940415576,-0.0728647056750713
1403636873801666560,59.497595,281.66983861390275,5.990228708333333,-1.9449855833333327,-7.469398416666666,-0.0132645023151569,0.018151424220741,0.1417207352619395,2.0243670816396326,9.159101952023683,-0.011480988391893376
1403636873851666432,40.48276,338.9654258376204,5.990228708333333,-1.9449855833333327,-7.469398416666666,-0.0132645023151569,0.018151424220741,0.1417207352619395,1.5577425510373093,9.130024095765519,-0.029077856258163948
1403636873901666560,50.03333,383.7056711240475,6.4887334166666655,-1.5445473749999998,-7.297782041666666,-0.0167551608191455,0.0342084533390888,0.1165879940332212,1.0972403367573438,9.102811600399884,-0.027212495365635192
1403636873951666432,49.856186,440.59748884399175,6.341633666666666,-1.4301364583333334,-7.420365166666667,-0.0558505360638185,0.0705113017805709,0.1019272283164688,0.6743434971738719,9.059441795900142,-0.043369804499741704
1403636874001666560,50.026179,536.0891102026465,6.5704555,-1.2912089166666665,-7.379504124999999,-0.0600393262686049,0.0509636141582344,0.1277581012459849,0.33696582412567344,9.003510669097665,-0.05593112680247714
1403636874051666432,50.192594,598.1202736821118,6.554111083333333,-1.2748645,-7.338643083333332,-0.0516617458590321,0.0335103216382911,0.1151917306316257,2.188683324587901,9.566974941463545,0.5634642723658807
1403636874101666560,59.794903,529.4386021538159,6.578627708333332,-1.201314625,-7.641014791666667,0.0104719755119659,-0.0083775804095727,0.0970403064108847,0.30361201124587667,9.467357752022009,-0.09961718944153652
1403636874151666432,40.128946,462.8884048259754,6.578627708333332,-1.201314625,-7.641014791666667,0.0104719755119659,-0.0083775804095727,0.0970403064108847,0.5126988397876358,9.40138675517876,-0.06597099684324803
1403636874201666560,49.53003,394.31778507016026,6.112811833333333,-1.3157255416666664,-7.477570624999999,0.0153588974175501,-0.0230383461263251,0.0300196631343024,0.8065216475242929,9.330319037600244,-0.07106771757851682
1403636874251666432,50.764799,342.0828341423752,6.456044583333333,-1.4056198333333334,-7.428537374999999,0.025830872929516,-0.018151424220741,0.0586430628670094,1.1801203445511488,9.308025868559586,-0.022293169040658256
1403636874301666560,49.119711,215.5161611600927,6.1209840416666665,-2.018535458333333,-7.305954249999999,0.093549647906896,-0.0342084533390888,-0.057246799465414,1.694007208569883,9.300330939817476,-0.007694928742109752
1403636874351666432,50.691604,184.5327309109072,6.22722275,-1.7325081666666666,-7.371331916666667,0.104021623418862,-0.0293215314335047,0.0383972435438752,2.1842490861919432,9.267630941737849,-0.03269999807962698
1403636874401666560,49.4833,155.06928156856418,6.2599115833333325,-1.830574666666667,-7.363159708333333,0.1780235837034216,-0.0265290046303138,-0.0090757121103705,2.6837379634147744,9.238073293123694,-0.029557648614154886
1403636874451666432,50.123214,154.53880679287366,6.1209840416666665,-1.52003075,-7.40402075,0.1549852375770964,0.018151424220741,0.0383972435438752,3.0191505803511767,9.227681328647742,-0.01039196447595181
1403636874501666560,49.711466,152.4879666426124,6.382494708333334,-1.046042666666667,-7.583809333333333,0.1130973355292325,0.0809832772925368,-0.0027925268031909,3.333772346026093,9.171405625883615,-0.05627570276412719
1403636874551666432,54.676294,156.59959839836552,6.194533916666667,-1.372931,-7.363159708333333,0.0684169066781777,0.1228711793404008,-0.0041887902047863,3.3526676713080246,9.165548820514148,-0.0058568053694667555
1403636874601666560,55.241585,154.68566417142443,6.219050541666666,-1.1931424166666666,-7.289609833333333,0.1787217154042193,0.0844739357965255,0.0083775804095727,3.7627933704577408,9.273837542786024,0.10828872227187603
1403636874651666432,39.547444,154.56646629476637,6.219050541666666,-1.1931424166666666,-7.289609833333333,0.1787217154042193,0.0844739357965255,0.0083775804095727,3.147534393791398,9.624569469600013,0.3507319268139888
1403636874701666560,55.504799,160.3756487683443,6.3743225,-0.6047434166666666,-6.831966166666666,0.1710422666954443,0.0656243798749867,-0.0272271363311115,3.131176274878407,10.31223463903844,0.6876651694384268
1403636874751666432,48.501014,163.2390784982352,6.472389,-0.5230213333333333,-6.970893708333333,0.1521927107739055,0.0328121899374933,0.0230383461263251,4.8441266712200255,9.50292597289643,-0.8093086661420106
1403636874801666560,46.959877,168.111796158794,6.104639625,-0.392266,-6.856482791666667,0.1521927107739055,0.0125663706143591,-0.025830872929516,4.206423279616084,9.597835069227864,0.09490909633143474
1403636874851666432,59.722901,171.92049887455357,6.6603497916666665,0.0163444166666666,-7.191543333333333,0.2052507200345331,-0.0446804288510548,0.0335103216382911,4.099404173322544,9.71260270181623,0.1147676325883662
1403636874901666560,39.755106,186.6261234852438,6.6603497916666665,0.0163444166666666,-7.191543333333333,0.2052507200345331,-0.0446804288510548,0.0335103216382911,3.916030569523543,9.785421771380252,0.07281906956402118
1403636874951666432,50.629854,213.3390758406069,6.987238125,0.4739880833333333,-7.305954249999999,0.1410226035611418,-0.007679448708775,0.0809832772925368,3.527933075135163,9.80785451416719,0.022432742786937965
1403636875001666560,49.732685,279.0058909581145,6.782932916666666,0.367749375,-7.191543333333333,0.1193805208364121,0.0837758040957278,0.0097738438111682,2.9903928594549822,9.946244043462553,0.1383895292953632
1403636875051666432,50.254583,382.14025932231806,7.379504124999999,0.2941994999999999,-6.962721499999999,-0.0230383461263251,0.2352703831688356,0.140324471860344,2.605922307508982,9.939113095608624,-0.00713094785392876
1403636875101666560,59.794426,394.0000106969169,6.856482791666667,-0.4494714583333333,-7.265093208333333,-0.289026524130261,0.4293509959906051,0.3127630019573839,2.1557593212858213,9.959397927866522,0.020284832257898344
1403636875151666432,43.300867,350.8680849172697,6.856482791666667,-0.4494714583333333,-7.265093208333333,-0.289026524130261,0.4293509959906051,0.3127630019573839,1.8750352323028847,9.887791346219737,-0.07160658164678502
1403636875201666560,46.828509,390.8193722537326,5.826784541666666,-0.2124774166666666,-6.987238125,-0.2624975194999471,0.4105014400690662,0.3127630019573839,1.8816355207499937,9.589565692365522,-0.2982256538542156
1403636875251666432,60.155153,473.970066886308,6.112811833333333,-0.4739880833333333,-7.436709583333332,-0.3225368457685521,0.2220058808536787,0.48939032225921,1.5968632180721032,9.481158586965167,-0.10840710540035481
1403636875301666560,43.84923,624.9671811306126,6.112811833333333,-0.4739880833333333,-7.436709583333332,-0.3225368457685521,0.2220058808536787,0.48939032225921,1.4730803436293907,9.35813586188543,-0.12302272507973733
1403636875351666432,46.138763,683.1179005826779,7.199715541666666,-0.5802267916666666,-7.036271375,-0.2611012560983517,0.1123992038284348,0.5689773361501514,1.3800217021598815,9.25731162899946,-0.10082423288596942
1403636875401666560,49.969197,656.925348464899,6.243567166666667,-0.2369940416666666,-7.559292708333333,-0.2066469834361286,0.0013962634015954,0.55710909723659,1.3278405547890566,9.202344497571804,-0.05496713142765586
1403636875451666432,49.89624,492.7170794075088,6.276256,-0.2043052083333333,-7.681875833333333,-0.1291543646475804,-0.0397935069454707,0.4935791124639964,1.3554342262106533,9.207918090518797,0.005573592946992889
1403636875501666560,49.747467,401.2831335163704,6.742071875,0.1470997499999999,-7.469398416666666,-0.0844739357965255,-0.1089085453244461,0.4342379178961891,1.4592220215632987,9.2571397403925,0.04922164987370259
1403636875551666432,59.99279,365.3561565332283,6.823793958333333,0.0817220833333333,-7.322298666666667,-0.057246799465414,-0.0949459113084915,0.3064798166502042,1.5956814473942766,9.339177221291019,0.08203748089851892
1403636875601666560,44.456244,377.8381543602403,6.823793958333333,0.0817220833333333,-7.322298666666667,-0.057246799465414,-0.0949459113084915,0.3064798166502042,1.8392110532482144,9.478819840866722,0.139642619575703
1403636875651666432,45.570611,385.9026722431082,7.019926958333333,-0.1307553333333333,-7.044443583333333,-0.1291543646475804,-0.0111701072127637,0.3225368457685521,2.0575625548879755,9.61695799181629,0.13813815094956894
1403636875701666560,60.833931,302.13536068746464,6.52142225,-0.7191543333333333,-6.840138375,-0.3106686068549906,0.1214749159388053,0.2904227875318564,2.368423098199706,9.772743570560872,0.155785578744581
1403636875751666432,42.687893,263.2724339854406,6.52142225,-0.7191543333333333,-6.840138375,-0.3106686068549906,0.1214749159388053,0.2904227875318564,2.6022684020764615,9.924571381506375,0.15182781094550357
1403636875801666560,56.737423,249.87220152138488,7.077132416666666,-0.318716125,-6.7502440833333335,-0.3623303527140228,0.0223402144255274,0.2960078411382383,2.7547442869104235,9.998733643209547,0.0741622617031723
1403636875851666432,49.886942,205.64299266081647,7.232404375,-1.1522813749999998,-6.799277333333333,-0.3846705671395502,-0.0244346095279206,0.3351032163829112,3.0836252213103825,10.244475582242101,0.2457419390325537
1403636875901666560,45.330048,182.8336583826033,7.232404375,-1.1522813749999998,-6.799277333333333,-0.3846705671395502,-0.0244346095279206,0.3351032163829112,2.93920429189284,10.318860087864634,0.07438450562253252
1403636875951666432,44.371605,167.79627570051778,7.518431666666666,-0.5148491249999999,-6.594972124999999,-0.4440117617073574,-0.0013962634015954,0.3518583772020568,2.6571049012123487,10.119539124037315,-0.19932096382731856
1403636876001666560,49.836397,142.31210595609795,7.788114541666666,-0.8989429166666666,-6.684866416666666,-0.4475024202113461,0.08307767239493,0.4230678106834254,3.412335628241938,10.31261127380195,0.19307214976463527
1403636876051666432,49.580336,124.44160848785349,7.918869874999999,-0.5311935416666667,-6.161845083333333,-0.5557128338349946,0.1647590813882647,0.3106686068549906,6.061740610643976,12.692886695771627,2.3802754219696762
1403636876101666560,50.768852,122.41987096778536,7.886181041666666,-1.2421756666666668,-6.071950791666666,-0.5298819609054785,0.2282890661608583,0.3651228795172137,3.417588718284474,12.631783945041205,-0.06110275073042182
1403636876151666432,49.500465,134.57751843100695,7.681875833333333,-1.1441091666666665,-5.6306515416666665,-0.4970697709679851,0.2380629099720265,0.335801348083709,3.117705236487882,12.298197194417796,-0.33358675062340915
1403636876201666560,50.473213,130.80343078029975,7.861664416666666,-1.32389775,-5.753234666666667,-0.4132939668722573,0.1773254520026238,0.3309144261781249,3.445192226776276,12.415315583880588,0.1171183894627923
1403636876251666432,59.75914,139.29258790606727,7.959730916666666,-1.3320699583333333,-5.459035166666666,-0.2932153143350474,-0.0013962634015954,0.2631956512007449,3.4804900219747803,12.444445339091274,0.02912975521068617
1403636876301666560,49.84808,153.34673305949914,7.665531416666666,-0.980665,-5.6715125833333335,-0.3099704751541929,-0.0383972435438752,0.2722713633111154,3.2662487607840727,12.168301172067917,-0.2761441670233573
1403636876351666432,49.867153,151.9067891001017,7.591981541666666,-1.103248125,-5.761406875,-0.2359685148696333,-0.0781907504893459,0.1891936909161853,3.9091849429686993,12.573208582110073,0.40490741004215636
1403636876401666560,40.266037,142.62934993385662,7.591981541666666,-1.103248125,-5.761406875,-0.2359685148696333,-0.0781907504893459,0.1891936909161853,3.7640331740707933,12.774436210820554,0.2012276287104804
1403636876451666432,59.616804,132.5580975480562,7.559292708333333,-1.4709975,-6.562283291666667,-0.2331759880664424,0.0865683308989187,-0.0069813170079773,3.922990451634915,12.798238908354994,0.023802697534440753
1403636876501666560,40.620566,140.6305759644564,7.559292708333333,-1.4709975,-6.562283291666667,-0.2331759880664424,0.0865683308989187,-0.0069813170079773,4.0001047589234515,12.839439486446489,0.04120057809149458
1403636876551666432,50.020218,166.59542455582366,7.518431666666666,-1.7570247916666666,-6.202706124999999,-0.1256637061435917,0.2275909344600605,0.0041887902047863,3.9760984152918657,12.93443768477706,0.09499819833057188
1403636876601666560,49.95656,206.0758746768616,7.935214291666666,-1.6671305,-6.693038625,-0.0565486677646162,0.2771582852166995,-0.1598721594826805,3.848610141082713,13.087005569933938,0.15256788515687703
1403636876651666432,50.118685,240.4236446713597,6.464216791666666,-2.1166019583333333,-6.733899666666666,0.046774823953448,0.3106686068549906,-0.1500983156715123,3.8895763178449854,12.983735855136706,-0.10326971479723213
1403636876701666560,59.734344,186.35737773292965,6.32528925,-1.9286411666666663,-7.363159708333333,0.2617993877991494,0.1780235837034216,-0.1801179788058148,3.6208095926211574,12.936901648186433,-0.04683420695027252
1403636876751666432,40.035486,179.9477169971572,6.32528925,-1.9286411666666663,-7.363159708333333,0.2617993877991494,0.1780235837034216,-0.1801179788058148,4.722913100531784,11.71021788443792,-1.2266837637485128
1403636876801666560,55.555105,147.5077351264729,6.774760708333333,-2.3209071666666663,-6.840138375,0.2981022362406315,0.1521927107739055,-0.2904227875318564,3.287275420279733,11.468562168436753,-0.24165571600116742
1403636876851666432,56.792975,153.1564926320073,6.32528925,-2.312734958333333,-6.823793958333333,0.4342379178961891,0.1815142422074102,-0.3302162944773272,3.291927229871175,11.164962003254843,-0.30360016518191024
1403636876901666560,37.945747,147.34939308562926,6.32528925,-2.312734958333333,-6.823793958333333,0.4342379178961891,0.1815142422074102,-0.3302162944773272,3.313108363338907,10.814987106600894,-0.3499748966539489
1403636876951666432,54.731608,163.37873094416634,6.357978083333332,-1.9940188333333333,-7.028099166666666,0.4977679026687828,0.1905899543177807,-0.3469714552964727,3.3747416403116253,10.665644480292565,-0.14934262630832862
1403636877001666560,47.84441,172.78637420962832,6.635833166666666,-1.6834749166666665,-6.946377083333333,0.6108652381980153,0.1703441349946465,-0.3169517921621702,4.371701174433886,10.157772812141673,-0.5078716681508926
1403636877051666432,46.418667,188.54189371290428,6.390666916666666,-1.9041245416666663,-7.265093208333333,0.6639232474586428,0.1193805208364121,-0.4237659423842232,3.9540643459709814,9.901357597755219,-0.256415214386454
1403636877101666560,50.778389,198.39897483382444,7.060788,-1.3647587916666666,-7.117993458333333,0.7330382858376184,0.0921533845053006,-0.372104196525191,5.448584344832944,9.027241656174438,-0.8741159415807811
1403636877151666432,49.835681,190.4346755627317,6.415183541666666,-1.8224024583333327,-7.436709583333332,0.7630579489719208,0.0460766922526503,-0.5047492196767601,4.368018510114971,9.067226894553112,0.03998523837867474
1403636877201666560,49.901724,186.76068414181069,6.995410333333333,-1.3402421666666664,-7.0689602083333325,0.8042477193189871,0.0027925268031909,-0.3755948550291797,4.7890703568484545,9.111849227109683,0.04462233255657111
1403636877251666432,60.138226,181.37261717901916,6.529594458333333,-0.9234595416666666,-7.232404375,0.7204719152232593,-0.0174532925199432,-0.3427826650916863,4.945115078550661,9.244449811409863,0.13260058430017985
1403636877301666560,39.957285,183.7749448261267,6.529594458333333,-0.9234595416666666,-7.232404375,0.7204719152232593,-0.0174532925199432,-0.3427826650916863,4.941876042070768,9.522362464618093,0.27791265320822944
1403636877351666432,49.427747,182.1628890880229,6.4887334166666655,-0.661948875,-7.681875833333333,0.7204719152232593,-0.0376991118430775,-0.4237659423842232,5.098002184374688,9.959570650138943,0.4372081855208503
1403636877401666560,50.73452,173.24784978529345,6.390666916666666,-0.563882375,-7.240576583333333,0.6799802765769908,-0.064926248174189,-0.3776892501315729,4.578005088093351,10.651048035847566,0.6914773857086232
1403636877451666432,59.631587,166.1322821557002,6.276256,-0.1879607916666666,-7.305954249999999,0.6080727113948244,-0.1570796326794896,-0.2645919146023404,5.184142571965083,11.09771264531114,0.4466646094635731
1403636877501666560,51.010847,159.0618867697063,6.251739374999999,0.1389275416666666,-7.273265416666667,0.5173155902911193,-0.1870992958137921,-0.1270599695451872,4.994261547455736,11.694125679294014,0.5964130339828753
1403636877551666432,49.110651,158.62216162730743,6.333461458333334,0.5066769166666666,-7.526603874999999,0.450294947014537,-0.2534218073895766,-0.0788888821901436,4.9045262694544185,12.40950536921786,0.7153796899238447
1403636877601666560,40.150165,167.57444653350402,6.333461458333334,0.5066769166666666,-7.526603874999999,0.450294947014537,-0.2534218073895766,-0.0788888821901436,4.933712891043003,13.210817177389433,0.8013118081715742
1403636877651666432,61.031103,172.56967630588494,6.831966166666666,0.4821602916666666,-7.485742833333332,0.3420845333908886,-0.208043246837724,0.0956440430092892,4.013099561476005,13.785463248113583,0.5746460707241496
1403636877701666560,42.930603,201.760325485436,6.831966166666666,0.4821602916666666,-7.485742833333332,0.3420845333908886,-0.208043246837724,0.0956440430092892,3.795058570965722,14.379470275573631,0.594007027460048
1403636877751666432,46.070576,222.91805853678716,6.603144333333333,0.0326888333333333,-7.469398416666666,0.2059488517353309,-0.1864011641129944,0.1340412865531645,3.9347517696371073,14.78616269093585,0.4066924153622189
1403636877801666560,61.022282,239.29966584833767,6.864654999999999,0.1389275416666666,-6.970893708333333,-0.0411897703470661,-0.1689478715930511,0.2911209192326541,3.7658233054742523,15.223041401200177,0.43687871026432745
1403636877851666432,44.208526,262.7181564899777,6.864654999999999,0.1389275416666666,-6.970893708333333,-0.0411897703470661,-0.1689478715930511,0.2911209192326541,3.2825350167515435,15.599072961697036,0.37603156049685893
1403636877901666560,44.762135,249.9743284967431,6.398839124999999,0.24516625,-6.913688249999999,-0.1528908424747032,-0.161268422884276,0.2401573050744197,3.4780973790557987,16.088190207360377,0.4891172456633406
1403636877951666432,49.431085,256.37649586020706,7.085304625,0.24516625,-6.880999416666667,-0.2569124658935653,-0.1787217154042193,0.2813470754214859,2.0638858693310773,16.26419857050891,0.17600836314853296
1403636878001666560,50.602198,271.61434944013536,6.52142225,0.2043052083333333,-7.085304625,-0.293913446035845,-0.1186823891356144,0.293913446035845,2.581999861667995,16.646932005701974,0.3827334351930638
1403636878051666432,49.389839,292.93757058449813,7.40402075,0.8417374583333332,-6.554111083333333,-0.4125958351714595,-0.0733038285837618,0.2960078411382383,5.509417711451488,19.40389130038744,2.7569592946854655
1403636878101666560,50.486803,261.52846647894324,7.199715541666666,0.2860272916666666,-6.872827208333333,-0.432143522793796,0.0006981317007977,0.4105014400690662,4.306480672830411,22.288855342162424,2.8849640417749853
1403636878151666432,59.715033,226.63070130618692,7.485742833333332,0.3105439166666667,-6.831966166666666,-0.4391248398017733,0.1130973355292325,0.4279547325890095,2.9353110569687018,24.467334603044037,2.1784792608816126
1403636878201666560,40.352583,200.94960508678216,7.485742833333332,0.3105439166666667,-6.831966166666666,-0.4391248398017733,0.1130973355292325,0.4279547325890095,5.491594685687817,28.31120867434493,3.843874071300892
1403636878251666432,50.697803,183.6405233045496,7.077132416666666,0.4249548333333333,-6.284428208333333,-0.486597795456019,0.122173047639603,0.4314453910929983,6.710620624354139,32.6099180902489,4.298709415903968
1403636878301666560,49.367667,168.48846595789874,7.869836625,0.0163444166666666,-6.586799916666666,-0.364424747816416,0.1333431548523667,0.5291838292046808,5.772746120740798,38.23324780235674,5.6233297121078465
1403636878351666432,50.170898,149.17318400918572,7.395848541666666,-0.0817220833333333,-6.317117041666666,-0.3832743037379548,0.1438151303643327,0.5375614096142535,11.845603128013298,46.31389678731879,8.080648984962046
1403636880251666432,42.917251,422.091586012949,7.117993458333333,0.7927042083333332,-6.594972124999999,-0.3134611336581816,0.1256637061435917,0.2094395102393195,33.31304219581819,10.448070774233715,-35.865826013085076
1403636880301666560,46.940565,349.7074205531626,7.305954249999999,0.1552719583333333,-6.407011333333333,-0.4419173666049642,0.153588974175501,0.2974041045398337,2.2769940175497325,10.400307435137185,-0.04776333909653019
1403636880351666432,49.790621,298.55910376395326,7.763597916666666,0.1470997499999999,-6.447872374999999,-0.4977679026687828,0.1696460032938488,0.3197443189653611,2.5538246214214984,10.44118621972822,0.040878784591035
1403636880401666560,60.157061,279.57778966729944,7.681875833333333,-0.8744262916666666,-6.733899666666666,-0.5801474433629151,0.1696460032938488,0.3337069529813158,2.5836799564752915,10.50472775184629,0.06354153211806945
1403636880451666432,39.634943,276.4966690964606,7.681875833333333,-0.8744262916666666,-6.733899666666666,-0.5801474433629151,0.1696460032938488,0.3337069529813158,2.635299328178768,10.601873342298465,0.09714559045217541
1403636880501666560,50.302505,303.0240322785488,7.273265416666667,-1.6344416666666666,-6.505077833333333,-0.4984660343695805,0.1389282084587486,0.2834414705238791,2.5262446752013146,10.970741104569097,0.3688677622706322
1403636880551666432,49.873829,335.92961918286846,7.469398416666666,-1.6017528333333333,-6.341633666666666,-0.5187118536927147,0.0837758040957278,0.3197443189653611,1.3399418852202356,10.376478455421498,-0.5942626491475984
1403636880601666560,50.1647,344.81163264004283,7.093476833333334,-1.9041245416666663,-6.03108975,-0.382576172037157,-0.0111701072127637,0.2254965393576673,1.7187045207993583,10.329690066863586,-0.04678838855791234
1403636880651666432,49.724578,290.81827336319924,7.534776083333333,-2.1492907916666666,-6.104639625,-0.3162536604613725,-0.1019272283164688,0.2429498318776106,1.6195012682938432,10.297386052677744,-0.03230401418584172
1403636880701666560,50.228358,280.6049667139351,7.085304625,-1.8632635,-5.736890249999999,-0.1710422666954443,-0.1675516081914556,0.1919862177193762,1.6650776643525655,10.332270284364679,0.03488423168693444
1403636880751666432,59.735775,390.1474056287913,7.477570624999999,-1.6099250416666664,-5.524412833333333,0.0244346095279206,-0.1284562329467826,0.1361356816555577,1.7744895013757498,10.358593753430712,0.026323469066033667
1403636880801666560,40.179968,387.1649972678009,7.477570624999999,-1.6099250416666664,-5.524412833333333,0.0244346095279206,-0.1284562329467826,0.1361356816555577,2.007490872527478,10.356767780268465,-0.0018259731622478625
1403636880851666432,60.820341,277.27983305261483,7.976075333333333,-1.4301364583333334,-5.410001916666666,0.2373647782712288,0.0223402144255274,0.0244346095279206,2.223178658914362,10.339552489457882,-0.01721529081058293
1403636880901666560,48.707008,247.15995618138737,8.164036124999999,-0.93163175,-5.213868916666666,0.2548180707911721,0.1291543646475804,-0.0160570291183478,2.4193785969029142,10.330953840791523,-0.008598648666358955
1403636880951666432,39.629936,245.4861387909428,8.164036124999999,-0.93163175,-5.213868916666666,0.2548180707911721,0.1291543646475804,-0.0160570291183478,2.4449926220037552,10.34481225751982,0.01385841672829713
1403636881001666560,50.611258,258.0153603067202,8.458235625,-0.784532,-5.385485291666667,0.2520255439879811,0.2143264321449036,-0.0781907504893459,2.3982391334366615,10.46643966079477,0.12162740327494959
1403636881051666432,49.675941,255.17381525545744,7.951558708333333,-0.6782932916666666,-5.189352291666666,0.2764601535159017,0.2708750999095199,-0.1291543646475804,2.536328941739684,10.55189039842324,0.08545073762847011
1403636881101666560,60.497523,249.442795280962,8.245758208333333,-0.3268883333333333,-5.279246583333333,0.4237659423842232,0.2157226955464991,-0.1668534764906579,2.6392024146984423,10.588283393611949,0.03639299518870942
1403636881151666432,49.474716,261.3250974959948,8.302963666666667,-0.1144109166666666,-5.295591,0.507541746479951,0.1661553447898601,-0.1689478715930511,2.7450038483481345,10.576823556409275,-0.01145983720267374
1403636881201666560,40.636063,267.0097386461163,8.302963666666667,-0.1144109166666666,-5.295591,0.507541746479951,0.1661553447898601,-0.1689478715930511,2.784237696911625,10.554722418475416,-0.02210113793385915
1403636881251666432,49.454927,286.4832360667846,8.450063416666666,0.3023717083333333,-5.311935416666666,0.5417501998190398,0.1123992038284348,-0.1864011641129944,2.6733910690564353,10.543538949884773,-0.011183468590642676
1403636881301666560,61.178923,334.08134652524546,8.294791458333332,0.563882375,-5.107630208333333,0.3769911184307752,0.057246799465414,-0.2436479635784084,2.4229707384031194,10.506783292859199,-0.036755657025574706
1403636881351666432,38.838386,415.6503549466416,8.294791458333332,0.563882375,-5.107630208333333,0.3769911184307752,0.057246799465414,-0.2436479635784084,1.9620196922630537,10.580292801143111,0.07350950828391234
1403636881401666560,60.365677,535.9947386362613,7.976075333333333,0.907115125,-5.123974625,0.1710422666954443,0.0774926187885482,-0.2562143341927675,1.9576709530121446,10.56599298797749,-0.014299813165621345
1403636881451666432,44.251919,455.1381458683609,7.976075333333333,0.907115125,-5.123974625,0.1710422666954443,0.0774926187885482,-0.2562143341927675,1.9230266496274635,10.548739801333134,-0.017253186644355267
1403636881501666560,50.12083,418.5598935693746,8.5317855,1.3647587916666666,-5.54075725,0.0921533845053006,0.1298524963483781,-0.1738347934986352,2.0659943263474245,10.521234310106067,-0.02750549122706758
1403636881551666432,45.711279,391.9976901724195,7.477570624999999,0.8744262916666666,-5.410001916666666,0.0446804288510548,0.1514945790731078,-0.2750638901143063,2.3970000625115264,10.267528662098997,-0.2537056480070703
1403636881601666560,59.672356,384.2776172928325,7.240576583333333,1.103248125,-5.589790499999999,0.0593411945678072,0.0963421747100869,-0.2199114857512855,2.5525726636582218,10.21582659858679,-0.051702063512205854
1403636881651666432,40.228844,409.0153657027871,7.240576583333333,1.103248125,-5.589790499999999,0.0593411945678072,0.0963421747100869,-0.2199114857512855,2.818624796745072,10.182931022457906,-0.03289557612888494
1403636881701666560,50.253391,419.91389475195257,7.763597916666666,1.1686257916666667,-5.638823749999999,-0.0139626340159546,0.0628318530717958,-0.1298524963483781,3.1336019704965,10.135151678004657,-0.047779344453248385
1403636881751666432,49.949407,384.4714890180742,7.518431666666666,0.784532,-5.704201416666666,-0.0118682389135614,-0.0244346095279206,-0.0851720674973232,3.3809120465261002,10.088468693234036,-0.04668298477062116
1403636881801666560,49.989462,332.86306368584,7.40402075,0.2860272916666666,-6.055606375,-0.1375319450571531,-0.0307177948351002,-0.025830872929516,3.572417765426798,10.002197375199781,-0.08627131803425492
1403636881851666432,49.316168,317.82743954470226,7.2487487916666655,0.5311935416666667,-6.300772625,-0.1605702911834783,-0.0195476876223364,0.1354375499547599,3.6958997656284844,9.898198860455034,-0.10399851474474708
1403636881901666560,60.763836,311.2741349795858,7.060788,0.3023717083333333,-6.742071875,-0.1668534764906579,-0.0404916386462684,0.2310815929640492,3.683524697446656,9.794510972148426,-0.10368788830660769
1403636881951666432,38.819313,308.8871571271121,7.060788,0.3023717083333333,-6.742071875,-0.1668534764906579,-0.0404916386462684,0.2310815929640492,3.76452198839024,9.816164887014803,0.021653914866377022
1403636882001666560,60.902357,298.6240915690101,6.799277333333333,-0.1797885833333333,-6.840138375,-0.1745329251994329,0.0356047167406843,0.247138622082397,3.647064297345009,9.705547475066032,-0.1106174119487715
1403636882051666432,44.252157,295.37545775047084,6.799277333333333,-0.1797885833333333,-6.840138375,-0.1745329251994329,0.0356047167406843,0.247138622082397,3.588556417019348,9.59210431178465,-0.11344316328138149
1403636882101666560,45.538903,293.47494549164674,6.668522,-0.5883989999999999,-6.594972124999999,-0.1801179788058148,0.0516617458590321,0.2722713633111154,3.440801658740702,9.503058471869775,-0.08904583991487591
1403636882151666432,60.064792,306.25133539947683,6.889171625,-1.2666922916666667,-6.627660958333332,-0.2303834612632515,0.1054178868204575,0.2059488517353309,4.622343011558038,11.361613318054705,1.85855484618493
1403636882201666560,45.344592,285.4519347461143,6.889171625,-1.2666922916666667,-6.627660958333332,-0.2303834612632515,0.1054178868204575,0.2059488517353309,2.911551052542937,11.17709178296606,-0.18452153508864377
1403636882251666432,45.048952,328.64644538311063,7.265093208333333,-1.7815414166666663,-6.815621749999999,-0.2171189589480945,0.1389282084587486,0.1445132620651305,2.59383085348961,11.07628662827812,-0.10080515468794005
1403636882301666560,59.942007,389.6647846971893,7.755425708333333,-1.9286411666666663,-6.096467416666667,-0.0104719755119659,0.1396263401595463,0.1500983156715123,2.319004863620575,11.073081121928498,-0.003205506349623022
1403636882351666432,49.737453,418.7636402973423,7.804458958333332,-1.846919083333333,-5.581618291666667,0.0684169066781777,0.0970403064108847,0.0509636141582344,1.9244882865768045,11.056527452830386,-0.016553669098112067
1403636882401666560,39.700985,383.0919995874178,7.804458958333332,-1.846919083333333,-5.581618291666667,0.0684169066781777,0.0970403064108847,0.0509636141582344,1.6990839575636545,11.076104990923122,0.019577538092736546
1403636882451666432,60.323,374.63372071085394,8.711574083333332,-1.3320699583333333,-4.690847583333333,0.2045525883337354,0.0705113017805709,0.0712094334813686,1.5892517154493147,11.17340943481949,0.09730444389636794
1403636882501666560,45.336247,366.9223071336955,8.711574083333332,-1.3320699583333333,-4.690847583333333,0.2045525883337354,0.0705113017805709,0.0712094334813686,1.5615451524274948,11.281017141195123,0.10760770637563333
1403636882551666432,44.186592,337.82295928437014,8.850501625,-1.201314625,-4.674503166666667,0.2925171826342496,0.1054178868204575,0.1005309649148733,1.4608011468452844,11.389349746863102,0.10833260566797875
1403636882601666560,49.827575,298.73536660804524,9.250939833333334,-0.7518431666666666,-4.200515083333333,0.228987197861656,0.1891936909161853,0.0013962634015954,1.379263844352602,11.473692021319135,0.08434227445603248
1403636882651666432,49.801827,277.0999206520788,9.218251,-0.7927042083333332,-4.004382083333333,0.2638937829015426,0.3274237676741362,0.0097738438111682,1.3135916791438806,11.548107069424626,0.07441504810549127
1403636882701666560,50.397396,246.8199958896056,8.915879291666666,-0.7436709583333333,-4.020726499999999,0.3385938748868999,0.5033529562751646,-0.0013962634015954,1.3798295844627344,11.609203654214635,0.061096584790009345
1403636882751666432,49.965382,252.1648317412617,8.719746291666667,-0.3268883333333333,-3.669321541666666,0.481710873550435,0.6024876577884426,-0.0356047167406843,1.404277775943497,11.657827544103611,0.048623889888975924
1403636882801666560,50.139665,266.0962532629372,8.425546791666665,-0.4004382083333333,-3.947176625,0.4740314248416599,0.6366961111275314,-0.1207767842380075,1.3018069954296554,11.736999072082584,0.07917152797897309
1403636882851666432,49.84498,306.2215981738991,8.131347291666666,-0.196133,-3.734699208333333,0.5166174585903216,0.6003932626860493,-0.1256637061435917,1.2268262067357296,11.816846483287474,0.0798474112048897
1403636882901666560,60.646534,320.3936926261242,8.368341333333333,-0.4004382083333333,-3.9144877916666654,0.5319763560078716,0.2708750999095199,-0.0593411945678072,1.1629052624810903,11.907206014828224,0.09035953154075038
1403636882951666432,42.637587,326.18850096302367,8.368341333333333,-0.4004382083333333,-3.9144877916666654,0.5319763560078716,0.2708750999095199,-0.0593411945678072,1.2847095972867852,12.004522154446454,0.09731613961822916
1403636883001666560,46.910524,300.1354095144614,8.613507583333332,-0.7109821249999999,-4.028898708333333,0.4928809807631986,0.1019272283164688,-0.0781907504893459,1.5035320954749198,12.00670623172891,0.002184077282455732
1403636883051666432,60.071945,320.1196321982295,9.013945791666666,-0.5557101666666666,-4.2822371666666665,0.3239331091701475,0.0356047167406843,-0.1137954672300302,1.2941681161715413,12.24630946337121,0.23960323164230068
1403636883101666560,44.97552,369.5693897827818,9.013945791666666,-0.5557101666666666,-4.2822371666666665,0.3239331091701475,0.0356047167406843,-0.1137954672300302,1.2496013930263021,12.435823340206397,0.1895138768351874
1403636883151666432,54.874897,381.29273563785455,8.940395916666665,-0.5311935416666667,-4.069759749999999,0.1542871058762987,0.1759291886010284,-0.1752310569002306,1.1812814965941654,12.46990284599634,0.034079505789943454
1403636883201666560,39.810657,423.0740108727418,8.940395916666665,-0.5311935416666667,-4.069759749999999,0.1542871058762987,0.1759291886010284,-0.1752310569002306,1.1160817425727154,12.520954361171885,0.05105151517554418
1403636883251666432,50.176859,407.8512125999106,9.193734375,-0.3759215833333333,-3.9880376666666666,0.1452113937659282,0.1884955592153876,-0.1389282084587486,1.097499116744789,12.554624937614603,0.033670576442718314
1403636883301666560,50.432682,436.98136051933767,9.242767625,-0.2369940416666666,-4.249548333333333,0.1843067690106012,0.1836086373098034,0.0013962634015954,1.0125242888007073,12.61563098612381,0.06100604850920632
1403636883351666432,49.740791,491.00597840890464,9.618689208333333,-0.0898942916666666,-3.8899711666666654,0.1193805208364121,0.1228711793404008,0.0006981317007977,0.8686621424317725,12.643931793528242,0.02830080740443286
1403636883401666560,50.438643,492.0248414255538,9.536967125,-0.3268883333333333,-3.9390044166666662,0.1473057888683213,0.1033234917180643,0.0907571211037051,0.7447396875140825,12.664055484270442,0.02012369074219933
1403636883451666432,59.640646,543.7496857665416,9.749444541666666,-0.196133,-3.759215833333333,0.1570796326794896,0.1919862177193762,0.0265290046303138,0.5873396512301668,12.716566019740256,0.0525105354698141
1403636883501666560,40.155172,509.0287966359356,9.749444541666666,-0.196133,-3.759215833333333,0.1570796326794896,0.1919862177193762,0.0265290046303138,0.4281352672012938,12.77383799139185,0.05727197165159481
1403636883551666432,50.132036,478.0874392006217,9.177389958333332,-0.8172208333333333,-3.3751220416666667,0.1340412865531645,0.239459173373622,-0.0335103216382911,0.32542098368911054,12.846460567560525,0.07262257616867451
1403636883601666560,59.53908,516.598183406041,9.234595416666666,-0.6782932916666666,-3.260711125,0.1870992958137921,0.132645023151569,0.0488692190558412,0.31116355500194853,12.890751071860873,0.04429050430034742
1403636883651666432,40.163517,503.1366725462548,9.234595416666666,-0.6782932916666666,-3.260711125,0.1870992958137921,0.132645023151569,0.0488692190558412,0.3220899699164548,12.945023920243633,0.054272848382760586
1403636883701666560,50.395012,537.4038431600073,9.667722458333332,-0.220649625,-3.358777625,0.1096066770252439,0.0411897703470661,-0.104021623418862,0.2531791250317416,12.959887992674066,0.014864072430432529
1403636883751666432,49.514532,585.8995032992003,9.389867375,-0.2860272916666666,-3.1544724166666662,0.1103048087260416,0.0300196631343024,0.0663225115757845,0.17124165801174973,12.9833496823309,0.02346168965683404
1403636883801666560,55.312395,571.832471229665,8.809640583333332,-0.4249548333333333,-3.015544875,0.0593411945678072,0.0237364778271228,0.0307177948351002,0.22455877728450227,13.056064404573153,0.07271472224225306
1403636883851666432,48.387051,588.9976193780163,9.471589458333332,-0.220649625,-3.18716125,0.1563815009786919,0.0642281164733913,0.2366666465704311,0.43736706462325325,13.011335656482473,-0.04472874809068017
1403636883901666560,56.569576,572.6244853185045,9.471589458333332,-0.4249548333333333,-3.0073726666666665,0.0376991118430775,0.0432841654494593,0.0418879020478639,0.25135212656007566,13.057481018602001,0.046145362119528244
1403636883951666432,39.940119,594.0316266707489,9.471589458333332,-0.4249548333333333,-3.0073726666666665,0.0376991118430775,0.0432841654494593,0.0418879020478639,0.188233654475981,13.082428680747501,0.02494766214550026
1403636884001666560,50.266504,536.6340292090156,12.470789916666666,-0.5883989999999999,-4.584608875,0.0733038285837618,0.171740398396242,0.1061160185212552,0.041948731765819446,13.104960235527274,0.02253155477977309
1403636884051666432,59.686661,540.1588224151232,8.9240515,-0.0408610416666666,-2.8357562916666668,0.1158898623324234,0.1110029404268393,0.1347394182539622,0.06009507309606604,13.125683498008678,0.020723262481403992
1403636884101666560,50.219059,475.7636253309424,9.643205833333331,-0.8825985,-2.803067458333333,-0.1417207352619395,0.0677187749773799,-0.2792526803190927,0.1331832944517425,13.134067376028986,0.008383878020307378
1403636884151666432,39.794207,605.181407906332,9.643205833333331,-0.8825985,-2.803067458333333,-0.1417207352619395,0.0677187749773799,-0.2792526803190927,0.10559329732976173,13.120637852679367,-0.013429523349618222
1403636884201666560,60.397148,644.1464845214325,9.112012291666666,-0.0735498749999999,-2.288218333333333,-0.028623399732707,0.1780235837034216,0.0202458193231342,0.020260156127659173,13.113624076299232,-0.007013776380135894
1403636884251666432,40.339946,571.2619504525361,9.112012291666666,-0.0735498749999999,-2.288218333333333,-0.028623399732707,0.1780235837034216,0.0202458193231342,0.038491543884290276,13.100390242614642,-0.013233833684589413
1403636884301666560,59.498072,576.76861068447,9.177389958333332,0.1634441666666666,-2.9583394166666666,0.0202458193231342,0.0446804288510548,0.1019272283164688,0.06435043452018484,13.101787349043564,0.0013971064289215462
1403636884351666432,39.993763,659.7786275301468,9.177389958333332,0.1634441666666666,-2.9583394166666666,0.0202458193231342,0.0446804288510548,0.1019272283164688,0.05240316749047274,13.108766265613825,0.006978916570261617
1403636884401666560,49.53146,654.029337503673,9.422556208333331,-0.5148491249999999,-2.427145875,0.0055850536063818,0.0223402144255274,0.0907571211037051,0.01731146237766658,13.102711662391735,-0.006054603222089838
1403636884451666432,60.029268,652.5352850285539,8.719746291666667,-0.04903325,-2.3699404166666667,0.0,0.0509636141582344,0.1019272283164688,0.0215175440291736,13.100644224382624,-0.0020674380091119104
1403636884501666560,40.418863,650.2537799191077,8.719746291666667,-0.04903325,-2.3699404166666667,0.0,0.0509636141582344,0.1019272283164688,0.011029263479877309,13.095776391416534,-0.004867832966089836
1403636884551666432,60.8809,656.0062382537715,9.635033625,-0.34323275,-2.623278875,0.0111701072127637,0.0439822971502571,0.0928515162060983,0.00691101239688663,13.094613618002265,-0.0011627734142685142
1403636884601666560,45.506,657.7972715543225,9.316317499999998,-0.122583125,-2.533384583333333,0.007679448708775,0.0481710873550434,0.0963421747100869,0.011859965454948601,13.093838337880303,-0.0007752801219620409
1403636884651666432,43.282748,658.4919641284285,10.198916,-0.4739880833333333,-2.7622064166666664,0.0069813170079773,0.0132645023151569,0.0823795406941323,0.02024403729835232,13.08657575068905,-0.007262587191252834
1403636884701666560,60.492754,652.0357275298526,9.332661916666666,-0.1634441666666666,-2.4925235416666665,0.0167551608191455,-0.007679448708775,0.0970403064108847,0.009712531040463969,13.087809553208917,0.0012338025198666003
1403636884751666432,49.796343,661.8354013410972,9.438900625,-0.6292600416666666,-2.655967708333333,-0.0062831853071795,0.0272271363311115,0.0502654824574366,0.011732523616341708,13.079695052865455,-0.008114500343461728
1403636884801666560,40.14182,660.4479242879949,9.438900625,-0.6292600416666666,-2.655967708333333,-0.0062831853071795,0.0272271363311115,0.0502654824574366,0.015312641313866497,13.078701119310916,-0.0009939335545396943
1403636884851666432,50.846816,663.3585911434802,9.528794916666666,-0.3595771666666666,-2.557901208333333,0.0160570291183478,0.025830872929516,0.1026253600172665,0.011326933551823994,13.079187920511732,0.0004868012008163447
1403636884901666560,61.0466,659.961374818844,9.357178541666666,-0.612915625,-2.508867958333333,0.0125663706143591,0.0069813170079773,0.1026253600172665,0.016437145925583575,13.078040887267955,-0.0011470332437770736
1403636884951666432,38.489818,661.8470032723071,9.357178541666666,-0.612915625,-2.508867958333333,0.0125663706143591,0.0069813170079773,0.1026253600172665,0.011036812397319988,13.079961145704697,0.0019202584367423725
1403636885001666560,50.043107,661.7255517894644,9.422556208333331,-0.2941994999999999,-2.533384583333333,-0.0027925268031909,0.0188495559215387,0.0579449311662117,0.010394679155853931,13.083477690719569,0.0035165450148717525
1403636885051666432,55.125236,662.3375693650842,9.422556208333331,-0.5883989999999999,-2.5660734166666663,-0.0020943951023931,0.0237364778271228,0.0816814089933346,0.007408469214561567,13.08356719239847,8.950167890198202e-05
1403636885101666560,44.843912,664.231494167265,9.528794916666666,-0.2288218333333333,-2.606934458333333,0.0,0.0244346095279206,0.0823795406941323,0.0061284412449194555,13.086464907509496,0.002897715111025434
1403636885151666432,49.966097,663.9557662712816,9.414383999999998,-0.4576436666666666,-2.557901208333333,-0.0090757121103705,0.0125663706143591,0.0719075651821663,0.0073548427608941215,13.086675791165703,0.00021088365620691718
1403636885201666560,55.193424,666.6721872130141,9.438900625,-0.4004382083333333,-2.655967708333333,0.0041887902047863,0.0209439510239319,0.0893608577021096,0.016745238098637795,13.09231860187197,0.005642810706266488
1403636885251666432,44.711352,665.3708687994763,9.26728425,-0.3840937916666667,-2.4516625,-0.0083775804095727,0.0139626340159546,0.0607374579694026,0.004342058066291043,13.095490235016879,0.0031716331449089807
1403636885301666560,60.179948,666.1469847752022,9.308145291666667,-0.3268883333333333,-2.476179125,-0.0055850536063818,0.0209439510239319,0.0823795406941323,0.012771818863893636,13.102150239145166,0.006660004128287156
1403636885351666432,39.920092,667.7684719489899,9.308145291666667,-0.3268883333333333,-2.476179125,-0.0055850536063818,0.0209439510239319,0.0823795406941323,0.007092113984644652,13.111171323362598,0.009021084217431863
1403636885401666560,49.589157,666.7162092290238,9.46341725,-0.4739880833333333,-2.672312125,-0.0069813170079773,0.0160570291183478,0.0712094334813686,0.006969491652214258,13.11385303212044,0.0026817087578425713
1403636885451666432,49.909592,665.697964550383,9.56148375,-0.3595771666666666,-2.5905900416666663,-0.0034906585039886,0.0237364778271228,0.0719075651821663,0.006910195735717809,13.117474172256458,0.003621140136017331
1403636885501666560,55.91917,666.4248085955182,9.46341725,-0.3759215833333333,-2.5660734166666663,-0.0034906585039886,0.0195476876223364,0.0774926187885482,0.009253923051188473,13.120316430815693,0.0028422585592355887
1403636885551666432,43.740273,666.9478779069863,9.438900625,-0.4331270416666666,-2.5415567916666664,-0.0041887902047863,0.0146607657167523,0.0767944870877505,0.006658395307173214,13.117804563135918,-0.0025118676797752926
1403636885601666560,60.842514,664.8847348219018,9.422556208333331,-0.4576436666666666,-2.525212375,-0.0027925268031909,0.0174532925199432,0.0656243798749867,0.008935600880275153,13.108618145761634,-0.009186417374284161
1403636885651666432,49.20721,665.4693021571304,9.471589458333332,-0.392266,-2.582417833333333,0.0013962634015954,0.0153588974175501,0.0921533845053006,0.007111767473081108,13.104745369346501,-0.003872776415132506
1403636885701666560,52.558661,666.2264231226624,9.455245041666666,-0.3840937916666667,-2.6151066666666667,-0.0041887902047863,0.0293215314335047,0.0607374579694026,0.008246471696169308,13.107405075726378,0.0026597063798767806
1403636885751666432,47.456503,664.990916185649,9.528794916666666,-0.4004382083333333,-2.5170401666666664,-0.0027925268031909,0.0153588974175501,0.085870199198121,0.0016481884999628058,13.107102025327197,-0.0003030503991805489
1403636885801666560,45.237064,665.5327134786253,9.528794916666666,-0.4004382083333333,-2.5170401666666664,-0.0027925268031909,0.0153588974175501,0.085870199198121,0.008150781526022152,13.104976071084115,-0.002125954243082262
1403636885851666432,44.995785,664.0561626588401,9.520622708333333,-0.4985047083333333,-2.623278875,-0.0041887902047863,0.0293215314335047,0.0705113017805709,0.008106691657806886,13.109415128846443,0.0044390577623278915
1403636885901666560,50.388098,666.6270093401489,9.340834125,-0.2941994999999999,-2.5660734166666663,-0.0013962634015954,0.0055850536063818,0.0942477796076938,0.00684862372905576,13.10398713047729,-0.0054279983691536415
1403636885951666432,49.733638,663.877517511473,9.381695166666669,-0.4903325,-2.557901208333333,-0.0069813170079773,0.025830872929516,0.0565486677646162,0.008067577768120863,13.100071979878859,-0.003915150598430728
1403636886001666560,49.859286,665.519824484545,9.381695166666669,-0.392266,-2.476179125,0.0062831853071795,0.0209439510239319,0.0970403064108847,0.010298535699731614,13.10584079897435,0.005768819095491651
1403636886051666432,55.057049,665.6224745682167,9.569655958333334,-0.3023717083333333,-2.680484333333333,-0.0062831853071795,0.0209439510239319,0.0593411945678072,0.008878899545704345,13.108123463486221,0.0022826645118705358
1403636886101666560,59.169292,664.5458235330477,9.308145291666667,-0.3023717083333333,-2.5170401666666664,-0.0020943951023931,0.0174532925199432,0.0809832772925368,0.006836717228001356,13.107123118285093,-0.0010003452011275726
1403636886151666432,45.330524,664.5452977398136,9.373522958333332,-0.5557101666666666,-2.5170401666666664,-0.0069813170079773,0.0202458193231342,0.0712094334813686,0.002923110770699538,13.10638828295878,-0.0007348353263125773
1403636886201666560,40.536643,666.9379183635228,9.373522958333332,-0.5557101666666666,-2.5170401666666664,-0.0069813170079773,0.0202458193231342,0.0712094334813686,0.006811313119837238,13.105870549272854,-0.000517733685926558
1403636886251666432,50.411701,665.0085800875848,9.46341725,-0.3595771666666666,-2.631451083333333,0.0,0.0272271363311115,0.0879645943005142,0.013231370772347085,13.103890527392482,-0.0019800218803727176
1403636886301666560,49.9053,665.2247963317453,9.398039583333333,-0.4004382083333333,-2.50069575,-0.0069813170079773,0.0209439510239319,0.0635299847725936,0.007354582558978784,13.101886415404879,-0.0020041119876026414
1403636886351666432,49.906015,666.7018175919471,9.5124505,-0.44129925,-2.6477955,0.0034906585039886,0.0153588974175501,0.0900589894029074,0.008161298223300932,13.106801883377834,0.0049154679729550566
1403636886401666560,50.212384,665.2425272317846,9.471589458333332,-0.3023717083333333,-2.557901208333333,-0.0048869219055841,0.018151424220741,0.0705113017805709,0.0008954642064232564,13.107013244330668,0.00021136095283402767
1403636886451666432,49.323558,664.1888950957415,9.438900625,-0.4903325,-2.623278875,-0.0034906585039886,0.0188495559215387,0.0802851455917391,0.0049678204789194965,13.104310155004374,-0.0027030893262942612
1403636886501666560,50.584793,662.3991512769719,9.422556208333331,-0.3840937916666667,-2.4925235416666665,-0.0006981317007977,0.0251327412287183,0.0788888821901436,0.007388915033949372,13.104717509371039,0.00040735436666494707
1403636886551666432,49.487591,663.6077205794074,9.316317499999998,-0.4249548333333333,-2.606934458333333,-0.0055850536063818,0.0216420827247296,0.0781907504893459,0.006190012091348874,13.102921862747834,-0.0017956466232043056
1403636886601666560,50.61698,665.0896591122743,9.373522958333332,-0.3840937916666667,-2.508867958333333,-0.0013962634015954,0.0230383461263251,0.0802851455917391,0.003458202403844493,13.103555954925142,0.000634092177307366
1403636886651666432,49.552679,662.4090605587621,9.438900625,-0.3759215833333333,-2.582417833333333,-0.0006981317007977,0.0230383461263251,0.0781907504893459,0.002531468679684565,13.103936126283505,0.0003801713583637678
1403636886701666560,60.556888,662.5778097655216,9.504278291666663,-0.392266,-2.6477955,0.0,0.0132645023151569,0.0781907504893459,0.006290536185655765,13.105112863307225,0.001176737023719454
1403636886751666432,38.630248,663.0392582281735,9.504278291666663,-0.392266,-2.6477955,0.0,0.0132645023151569,0.0781907504893459,0.0027497192586288413,13.10591365865554,0.0008007953483151198
1403636886801666560,50.727129,663.1463759503016,9.422556208333331,-0.4086104166666666,-2.5660734166666663,-0.0034906585039886,0.0223402144255274,0.0726056968829641,0.004140938374259926,13.10357768494222,-0.002335973713320172
1403636886851666432,55.567264,663.5760244613207,9.520622708333333,-0.4086104166666666,-2.655967708333333,0.0013962634015954,0.0195476876223364,0.0802851455917391,0.002323950856568971,13.103187542621516,-0.0003901423207040011
1403636886901666560,54.44932,663.2109270698912,9.455245041666666,-0.392266,-2.59876225,-0.0027925268031909,0.0216420827247296,0.075398223686155,0.003931240992648506,13.104267693362504,0.001080150740987662
1403636886951666432,39.503813,663.2258015563623,9.455245041666666,-0.392266,-2.59876225,-0.0027925268031909,0.0216420827247296,0.075398223686155,0.0016244347940244934,13.104327889821764,6.019645926080841e-05
1403636887001666560,60.187578,663.273544490076,9.430728416666666,-0.367749375,-2.574245625,0.0027925268031909,0.0195476876223364,0.0816814089933346,0.0058133252725699035,13.10405586414681,-0.00027202567495443475
1403636887051666432,39.468765,661.8970621900673,9.430728416666666,-0.367749375,-2.574245625,0.0027925268031909,0.0195476876223364,0.0816814089933346,0.008604159443311547,13.107804230723739,0.0037483665769286745
1403636887101666560,60.814381,662.3016923728948,9.340834125,-0.392266,-2.5415567916666664,0.0020943951023931,0.0195476876223364,0.0872664625997164,0.0036984607023766705,13.105282654480419,-0.002521576243319501
1403636887151666432,50.670147,662.3910096410311,9.291800875,-0.4086104166666666,-2.533384583333333,0.0034906585039886,0.0356047167406843,0.0809832772925368,0.0049055478222686305,13.103909303747072,-0.0013733507333473227
1403636887201666560,39.273977,661.5201599779615,9.291800875,-0.4086104166666666,-2.533384583333333,0.0034906585039886,0.0356047167406843,0.0809832772925368,0.005877713013734192,13.103594086954526,-0.0003152167925453142
1403636887251666432,50.311327,660.6522408130314,9.594172583333334,-0.4821602916666666,-2.5905900416666663,-0.0020943951023931,0.0139626340159546,0.0747000919853573,0.004804815268775284,13.104459280821079,0.0008651938665522607
1403636887301666560,49.85404,660.0647724220032,9.56148375,-0.416782625,-2.7131731666666665,-0.0062831853071795,0.0104719755119659,0.0719075651821663,0.007646684988613511,13.102641155114725,-0.001818125706353868
1403636887351666432,49.906016,660.6803714509091,9.406211791666664,-0.3105439166666667,-2.459834708333333,-0.0020943951023931,0.0300196631343024,0.0795870138909414,0.003355671508906013,13.101780741503704,-0.0008604136110204053
1403636887401666560,49.891471,662.056063554951,9.430728416666666,-0.4985047083333333,-2.655967708333333,-0.0055850536063818,0.0139626340159546,0.0719075651821663,0.01077107750210419,13.099656106598983,-0.0021246349047210344
1403636887451666432,55.21679,661.9663391030314,9.447072833333332,-0.367749375,-2.525212375,0.0006981317007977,0.0216420827247296,0.0879645943005142,0.003093421009521503,13.098792253045191,-0.0008638535537919267
1403636887501666560,44.448137,662.4573317634503,9.504278291666663,-0.4331270416666666,-2.6886565416666666,-0.0069813170079773,0.0188495559215387,0.0705113017805709,0.01139517533470556,13.095493255426005,-0.0032989976191863946
1403636887551666432,50.482512,662.6749913437284,9.349006333333334,-0.392266,-2.4925235416666665,0.0020943951023931,0.0223402144255274,0.0823795406941323,0.0023029896153805803,13.095229078975578,-0.0002641764504272004
1403636887601666560,49.892902,661.91880315501,9.447072833333332,-0.367749375,-2.574245625,-0.0055850536063818,0.0244346095279206,0.0760963553869527,0.0024738564986889412,13.096406875143229,0.001177796167651124
1403636887651666432,50.162792,661.256595623814,9.528794916666666,-0.5311935416666667,-2.5905900416666663,-0.0020943951023931,0.0139626340159546,0.0767944870877505,0.0042964480559505355,13.1006022322919,0.0041953571486708086
1403636887701666560,50.042629,661.5134628259519,9.438900625,-0.3595771666666666,-2.574245625,0.0,0.0251327412287183,0.0809832772925368,0.005241591764717309,13.10424882230136,0.0036465900094597714
1403636887751666432,49.579621,661.8462519564654,9.340834125,-0.4739880833333333,-2.557901208333333,-0.0069813170079773,0.0195476876223364,0.0747000919853573,0.004279985229413352,13.104584332615987,0.0003355103146276406
1403636887801666560,50.246238,661.0952939665618,9.447072833333332,-0.3268883333333333,-2.5415567916666664,0.0027925268031909,0.0272271363311115,0.085870199198121,0.0025727047634813145,13.103061103333625,-0.0015232292823625926
1403636887851666432,59.679985,661.2771072690169,9.504278291666663,-0.392266,-2.4843513333333336,0.0006981317007977,0.0104719755119659,0.0837758040957278,0.00585727892487683,13.099898472806165,-0.0031626305274592426
1403636887901666560,46.973229,660.385284334828,9.381695166666669,-0.4331270416666666,-2.574245625,-0.0027925268031909,0.0083775804095727,0.0712094334813686,0.004887841169423316,13.099925132857384,2.6660051219096204e-05
1403636887951666432,53.580522,661.104593079057,9.373522958333332,-0.3840937916666667,-2.525212375,0.0006981317007977,0.0174532925199432,0.0809832772925368,0.003116170903353212,13.09974773094455,-0.00017740191283444062
1403636888001666560,39.546967,661.8030776748902,9.373522958333332,-0.3840937916666667,-2.525212375,0.0006981317007977,0.0174532925199432,0.0809832772925368,0.00242056780900475,13.098273187295273,-0.0014745436492766828
1403636888051666432,50.315142,662.0454565221464,9.414383999999998,-0.4086104166666666,-2.606934458333333,-0.0013962634015954,0.0230383461263251,0.0788888821901436,0.0034722005367281467,13.09696502862626,-0.0013081586690137925
1403636888101666560,59.70025,661.4803776187109,9.422556208333331,-0.4576436666666666,-2.533384583333333,-0.0020943951023931,0.018151424220741,0.0767944870877505,0.004576988516328762,13.095696289129844,-0.001268739496415705
1403636888151666432,39.754868,662.5128059364644,9.422556208333331,-0.4576436666666666,-2.533384583333333,-0.0020943951023931,0.018151424220741,0.0767944870877505,0.0035277485110735674,13.093838287815535,-0.0018580013143090213
1403636888201666560,50.234556,661.6726017850336,9.316317499999998,-0.44129925,-2.525212375,-0.0006981317007977,0.0104719755119659,0.0781907504893459,0.005608006640856082,13.096902233599506,0.003063945783971178
1403636888251666432,60.225964,662.0353231248557,9.406211791666664,-0.4249548333333333,-2.574245625,-0.0013962634015954,0.0251327412287183,0.0774926187885482,0.002523691905526191,13.098344341873752,0.0014421082742455127
1403636888301666560,44.590711,660.9100125314023,9.406211791666664,-0.4249548333333333,-2.574245625,-0.0013962634015954,0.0251327412287183,0.0774926187885482,0.002799466790640703,13.09943514536715,0.0010908034933976296
1403636888351666432,59.392214,661.9164698827344,9.471589458333332,-0.4985047083333333,-2.582417833333333,-0.0041887902047863,0.0160570291183478,0.0712094334813686,0.0023619366544682554,13.099371142351906,-6.400301524323027e-05
1403636888401666560,46.033144,660.4175367458596,9.430728416666666,-0.3268883333333333,-2.606934458333333,-0.0013962634015954,0.0202458193231342,0.0865683308989187,0.005287299429296622,13.100344471993877,0.0009733296419707216
1403636888451666432,39.817095,661.0447465722976,9.430728416666666,-0.3268883333333333,-2.606934458333333,-0.0013962634015954,0.0202458193231342,0.0865683308989187,0.00535169477445602,13.09673761279751,-0.0036068591963669405
1403636888501666560,50.405741,662.0076641684219,9.504278291666663,-0.416782625,-2.574245625,-0.0069813170079773,0.0230383461263251,0.0705113017805709,0.00753503473782541,13.097024499107082,0.00028688630957240946
1403636888551666432,49.892425,660.3433934085238,9.496106083333332,-0.4249548333333333,-2.549729,0.0006981317007977,0.0230383461263251,0.08307767239493,0.009848207299819542,13.098347514374522,0.001323015267439942
1403636888601666560,60.738802,594.497606724665,10.427737833333332,0.4004382083333333,-3.0564059166666664,0.1172861257340189,-0.0097738438111682,0.046774823953448,0.015684499995287142,13.109733131407442,0.011385617032919626
1403636888651666432,43.801308,551.3794911596252,10.427737833333332,0.4004382083333333,-3.0564059166666664,0.1172861257340189,-0.0097738438111682,0.046774823953448,0.01625581912368613,13.121088359022925,0.011355227615483798
1403636888701666560,44.920921,433.9247844643586,10.370532375,-1.054214875,-2.6151066666666667,0.1829105056090057,-0.0230383461263251,0.0048869219055841,0.02269576466513815,13.136786449828033,0.015698090805107867
1403636888751666432,49.959421,431.6804129933208,10.378704583333333,-0.980665,-2.5660734166666663,0.2324778563656447,-0.036302848441482,-0.0349065850398865,0.01539852870507784,13.143386969721588,0.006600519893554591
1403636888801666560,60.605288,575.2845734453908,9.455245041666666,-2.165635208333333,-2.132946375,0.085870199198121,-0.085870199198121,0.0397935069454707,0.008331586712313462,13.144971019514905,0.001584049793317277
1403636888851666432,39.939403,582.3438738934158,9.455245041666666,-2.165635208333333,-2.132946375,0.085870199198121,-0.085870199198121,0.0397935069454707,0.01210260217501315,13.142244780984798,-0.0027262385301067837
1403636888901666560,60.807944,646.221318065359,8.785123958333333,-1.5118585416666666,-2.231012875,0.0020943951023931,0.0328121899374933,0.0446804288510548,0.014969316571170134,13.12752782517582,-0.014716955808978582
1403636888951666432,48.847675,643.5639886093925,8.793296166666666,-1.9940188333333333,-1.8796079166666664,0.0216420827247296,-0.0027925268031909,0.0502654824574366,0.022628606860114284,13.112446650668163,-0.01508117450765667
1403636889001666560,52.82712,602.466964128428,9.210078791666666,-1.22583125,-2.4108014583333333,0.093549647906896,0.0048869219055841,0.0390953752446729,0.016669567626484694,13.095272032655908,-0.017174618012255394
1403636889051666432,36.812305,623.7845083508026,9.210078791666666,-1.22583125,-2.4108014583333333,0.093549647906896,0.0048869219055841,0.0390953752446729,0.020940921414747658,13.07911838876867,-0.016153643887237834
1403636889101666560,50.316334,606.8095481474146,9.087495666666666,-2.239185083333333,-2.3699404166666667,0.0425860337486616,-0.0034906585039886,0.036302848441482,0.010811710712350193,13.07394054207698,-0.005177846691690746
1403636889151666432,60.22501,646.781575693952,7.371331916666667,-0.0081722083333333,-1.22583125,-0.0237364778271228,0.0481710873550434,0.0781907504893459,0.016231177598649876,13.086621479136303,0.012680937059323938
1403636889201666560,39.612055,598.8522449108006,7.371331916666667,-0.0081722083333333,-1.22583125,-0.0237364778271228,0.0481710873550434,0.0781907504893459,0.01670534603137308,13.087956301644304,0.00133482250800121
